sample,t_s,gyro_x,gyro_y,gyro_z,accel_x,accel_y,accel_z
0,1.2e-05,0,0,0,0,0,-1026
1,0.011211,0,1,0,2,1,-1022
2,0.022402,0,0,0,-2,-1,-1029
3,0.033592,0,-1,-1,-3,-2,-1029
4,0.044775,0,-1,-1,-4,2,-1027
5,0.055936,0,-1,0,1,3,-1021
6,0.067124,0,2,0,0,2,-1029
7,0.078307,1,2,0,-5,0,-1028
8,0.08949,1,2,0,-4,1,-1025
9,0.100674,1,1,-1,-3,3,-1022
10,0.111862,1,1,0,-13,0,-1024
11,0.123011,1,1,1,1,0,-1033
12,0.134192,0,1,0,-1,0,-1020
13,0.145374,1,2,0,-3,1,-1018
14,0.156555,-1,0,-1,-2,-4,-1028
15,0.167744,0,1,0,1,-2,-1022
16,0.178924,1,0,0,3,3,-1024
17,0.190104,-1,-2,1,-2,-2,-1024
18,0.201284,1,0,1,2,2,-1020
19,0.212463,0,0,0,0,4,-1029
20,0.223653,0,1,0,-5,-1,-1025
21,0.234835,-1,2,1,-3,0,-1027
22,0.246017,0,2,-1,-3,2,-1024
23,0.257201,0,0,0,-1,0,-1024
24,0.268391,1,0,0,-1,-2,-1022
25,0.279566,0,0,0,1,-1,-1025
26,0.290748,0,0,-1,0,1,-1028
27,0.301932,0,-1,0,-1,3,-1025
28,0.313112,1,0,-1,2,-1,-1023
29,0.324295,1,-1,0,1,-3,-1027
30,0.335491,1,0,-1,1,0,-1028
31,0.346671,0,-1,0,-1,0,-1027
32,0.357859,0,0,0,-2,2,-1023
33,0.36904,0,0,0,-3,0,-1018
34,0.380227,0,0,0,1,2,-1021
35,0.391379,0,0,0,1,-4,-1022
36,0.402559,0,-1,1,-3,1,-1024
37,0.413739,0,-1,1,-3,1,-1027
38,0.424921,0,-1,0,-5,3,-1023
39,0.436118,1,1,0,2,0,-1029
40,0.447308,0,-1,0,1,1,-1025
41,0.458491,-1,-2,0,-1,-1,-1023
42,0.46967,0,-1,1,0,3,-1019
43,0.480849,1,0,0,0,-1,-1034
44,0.492041,0,0,1,2,-1,-1025
45,0.503197,0,0,0,-4,-1,-1020
46,0.514378,-1,0,0,3,-4,-1022
47,0.525561,0,0,1,-2,3,-1023
48,0.536743,0,0,0,1,3,-1023
49,0.547934,0,1,1,2,4,-1022
50,0.559123,0,0,0,-4,4,-1027
51,0.570306,0,0,1,-6,2,-1026
52,0.581489,0,0,1,0,-1,-1026
53,0.592671,0,0,0,-2,0,-1026
54,0.603862,1,0,0,0,5,-1025
55,0.615011,1,1,0,2,1,-1023
56,0.626205,0,-1,0,-2,-2,-1025
57,0.637389,1,1,0,-3,4,-1026
58,0.648577,0,-1,0,-1,2,-1025
59,0.659748,0,0,0,4,0,-1025
60,0.670928,0,2,0,0,-2,-1028
61,0.682108,0,0,0,2,3,-1025
62,0.693287,1,0,0,3,4,-1030
63,0.704469,0,0,-1,-1,1,-1032
64,0.715658,0,-1,0,-1,0,-1026
65,0.726841,0,0,-1,-1,5,-1021
66,0.738024,1,0,0,1,2,-1021
67,0.749204,0,1,0,-1,2,-1025
68,0.760387,0,-1,1,-2,1,-1023
69,0.771564,0,1,1,2,-1,-1021
70,0.782746,0,2,-1,2,0,-1024
71,0.793925,0,0,0,-1,3,-1028
72,0.805106,0,1,0,2,2,-1025
73,0.816286,0,-1,-1,0,2,-1023
74,0.827469,0,-1,0,3,3,-1031
75,0.83865,-1,0,1,-1,0,-1021
76,0.849829,0,1,0,2,-1,-1023
77,0.861018,1,0,0,-1,3,-1026
78,0.872201,1,1,0,-1,0,-1024
79,0.88338,0,0,0,-3,-1,-1028
80,0.894569,-1,2,-1,1,3,-1026
81,0.905754,1,1,-1,0,4,-1027
82,0.916936,0,0,0,0,0,-1020
83,0.928122,1,2,0,-1,-2,-1027
84,0.939309,1,1,-1,0,1,-1028
85,0.950489,1,0,-1,-2,-4,-1024
86,0.961672,-1,-1,0,-4,4,-1027
87,0.972853,1,-1,0,1,5,-1023
88,0.984045,0,-1,-1,0,3,-1018
89,0.995195,0,-1,0,0,-1,-1032
90,1.006386,0,0,0,0,1,-1027
91,1.017568,1,0,0,-7,-2,-1027
92,1.028746,0,1,0,-4,1,-1025
93,1.039935,0,-1,0,-1,-2,-1027
94,1.051122,-1,0,0,2,2,-1020
95,1.062303,0,-1,0,3,4,-1022
96,1.073486,-1,0,0,0,-2,-1029
97,1.084668,0,0,1,-3,2,-1029
98,1.095857,0,-1,0,1,1,-1023
99,1.107009,0,-1,0,4,0,-1025
100,1.118192,0,0,0,1,-1,-1022
101,1.129374,0,0,0,-1,1,-1024
102,1.140554,0,0,1,2,2,-1028
103,1.151753,0,0,1,2,4,-1027
104,1.162936,-1,-1,0,1,3,-1016
105,1.174126,0,0,-1,-1,0,-1025
106,1.185326,1,1,0,-1,5,-1027
107,1.196516,1,1,0,0,3,-1027
108,1.207706,1,1,1,-2,-1,-1022
109,1.218893,1,1,0,-2,-3,-1028
110,1.230083,1,1,1,2,-3,-1023
111,1.24127,0,0,0,-2,-5,-1024
112,1.252452,0,-1,1,-1,0,-1020
113,1.263648,0,-1,0,0,-2,-1023
114,1.274831,1,-1,-1,1,2,-1026
115,1.286014,1,-1,0,2,-1,-1026
116,1.297198,0,-1,0,0,0,-1023
117,1.308383,0,0,0,-2,1,-1024
118,1.319566,0,0,0,0,1,-1024
119,1.330747,0,0,0,1,1,-1026
120,1.341927,0,0,0,-1,3,-1025
121,1.353109,0,1,0,-3,-2,-1024
122,1.364286,1,0,0,-3,2,-1023
123,1.375474,0,0,0,-1,1,-1027
124,1.386656,1,0,0,1,1,-1029
125,1.39784,0,0,0,2,-1,-1023
126,1.409026,-1,0,-1,-1,4,-1025
127,1.420209,0,-1,0,-2,6,-1028
128,1.431384,0,-1,0,0,2,-1023
129,1.44257,0,0,0,0,2,-1030
130,1.45377,0,0,0,0,3,-1020
131,1.464954,0,-1,0,-3,-1,-1016
132,1.476144,0,-2,0,2,1,-1023
133,1.48733,1,-1,0,0,2,-1026
134,1.498518,0,0,0,1,2,-1023
135,1.509703,0,0,0,-1,0,-1019
136,1.520884,0,-1,0,-3,0,-1021
137,1.532074,0,-1,-1,0,-1,-1024
138,1.543262,0,0,0,-2,1,-1022
139,1.554446,0,-1,-1,-6,1,-1016
140,1.565629,-1,-2,0,1,-2,-1027
141,1.576813,0,-1,-1,3,1,-1027
142,1.588002,0,-1,-1,0,1,-1025
143,1.599194,0,-1,1,0,0,-1026
144,1.610377,0,-1,1,-1,0,-1020
145,1.62156,0,0,0,-1,0,-1024
146,1.632739,-1,-1,0,-3,-2,-1026
147,1.643929,0,-1,-1,-3,0,-1025
148,1.655122,1,0,-1,-1,5,-1029
149,1.666307,0,-1,-2,1,4,-1027
150,1.677486,0,0,0,2,3,-1020
151,1.688665,0,-2,0,3,-3,-1026
152,1.699857,1,0,0,1,-1,-1027
153,1.711011,0,0,0,-1,-3,-1027
154,1.722195,1,-1,-1,2,-2,-1022
155,1.733376,0,-1,0,0,-2,-1025
156,1.744561,0,-1,-1,0,-3,-1024
157,1.755768,0,-1,0,-1,-3,-1023
158,1.766948,0,0,0,0,-1,-1018
159,1.778143,1,0,0,1,4,-1030
160,1.789324,1,0,0,-2,0,-1023
161,1.800514,0,1,0,0,5,-1025
162,1.811705,0,0,1,2,-5,-1021
163,1.82289,0,0,0,3,0,-1028
164,1.834081,0,-1,1,0,1,-1022
165,1.845263,0,0,0,-2,2,-1028
166,1.856449,0,1,0,4,-1,-1028
167,1.867635,0,1,1,-1,1,-1024
168,1.87882,0,0,1,1,0,-1032
169,1.89003,0,-1,0,2,3,-1021
170,1.901212,0,2,0,-1,0,-1030
171,1.912396,0,1,0,-1,-3,-1025
172,1.923565,0,1,0,-2,1,-1023
173,1.934751,0,0,1,-1,1,-1022
174,1.945933,0,-1,0,0,0,-1026
175,1.957115,0,0,1,0,0,-1027
176,1.968295,1,1,0,2,-3,-1023
177,1.979493,0,1,0,0,0,-1027
178,1.990676,0,0,0,0,0,-1021
179,2.001856,0,1,0,-1,-1,-1023
180,2.013036,0,1,-1,-3,-2,-1023
181,2.024216,0,0,-1,-3,0,-1020
182,2.035381,0,0,0,3,6,-1025
183,2.046566,0,0,1,4,0,-1025
184,2.057749,0,0,1,-1,3,-1025
185,2.068934,0,0,1,-2,-1,-1020
186,2.080119,0,0,0,0,1,-1021
187,2.091313,0,0,0,0,-3,-1020
188,2.1025,-1,-1,0,-1,4,-1024
189,2.113683,-1,-1,1,0,-2,-1022
190,2.124864,0,0,0,-1,1,-1022
191,2.136055,0,0,0,0,-2,-1022
192,2.147199,0,-1,-1,-2,1,-1028
193,2.158383,0,0,1,-1,2,-1023
194,2.169574,1,0,0,-2,1,-1023
195,2.180761,0,0,0,3,3,-1023
196,2.191936,1,0,0,-2,0,-1030
197,2.203122,1,0,-1,2,0,-1030
198,2.214308,0,1,0,-1,4,-1024
199,2.225491,0,0,0,-2,1,-1030
200,2.236692,1,0,-1,0,-2,-1020
201,2.247888,1,1,-1,1,0,-1028
202,2.259074,1,-1,-1,1,-2,-1029
203,2.270262,0,-1,-1,1,4,-1026
204,2.281446,1,0,-1,1,0,-1029
205,2.29263,1,-1,0,0,1,-1022
206,2.303817,0,0,0,2,-1,-1019
207,2.315008,0,-1,-1,-4,0,-1026
208,2.326196,0,0,0,-3,0,-1025
209,2.337382,1,1,-1,0,0,-1024
210,2.348569,0,1,-1,0,0,-1024
211,2.359755,0,1,0,0,3,-1028
212,2.370938,1,1,-1,0,2,-1023
213,2.382127,1,0,-1,-1,-3,-1025
214,2.393313,1,0,0,3,4,-1023
215,2.404503,1,1,-1,5,2,-1027
216,2.41569,1,1,0,1,0,-1021
217,2.426875,1,1,0,0,1,-1027
218,2.438064,1,1,0,1,2,-1018
219,2.449247,1,2,0,-1,-3,-1021
220,2.460435,1,0,0,1,2,-1025
221,2.471632,0,1,1,-1,3,-1021
222,2.482815,0,0,1,1,1,-1025
223,2.494008,0,-1,0,5,2,-1024
224,2.505193,0,0,-1,0,1,-1024
225,2.516382,0,0,0,-4,2,-1028
226,2.527564,0,-1,0,0,-3,-1020
227,2.53875,0,0,0,4,1,-1026
228,2.549939,0,0,0,2,-1,-1024
229,2.561124,1,0,0,-2,3,-1029
230,2.572314,0,0,0,-4,-2,-1032
231,2.583503,0,-1,0,-4,0,-1030
232,2.594699,1,0,0,-3,2,-1025
233,2.605884,1,0,0,1,0,-1027
234,2.617067,1,0,0,-2,2,-1027
235,2.62825,1,0,-1,-1,-1,-1023
236,2.639436,1,1,-1,2,-2,-1029
237,2.650618,1,1,-1,3,0,-1024
238,2.661806,1,0,0,-6,-1,-1026
239,2.67299,1,1,0,-2,-2,-1021
240,2.684173,1,0,-1,-1,0,-1021
241,2.695356,0,-1,-1,-3,-1,-1024
242,2.706537,0,-2,0,3,1,-1021
243,2.717719,1,-1,-1,-1,5,-1025
244,2.7289,0,0,-1,0,3,-1020
245,2.740087,0,-1,0,4,2,-1024
246,2.751272,0,0,0,-4,-1,-1025
247,2.762454,0,-1,0,1,-2,-1024
248,2.773644,0,0,0,1,-2,-1024
249,2.784827,1,0,0,-2,3,-1023
250,2.796012,1,0,0,-1,3,-1028
251,2.807202,0,1,0,-3,-1,-1020
252,2.818389,1,0,0,-3,-1,-1027
253,2.829574,0,-1,0,-3,1,-1025
254,2.840758,0,0,0,0,0,-1029
255,2.851941,0,1,0,0,0,-1027
256,2.863129,1,0,0,1,2,-1026
257,2.874318,0,-1,0,0,-1,-1024
258,2.885498,0,-1,0,0,-1,-1025
259,2.896686,0,0,0,-4,0,-1027
260,2.907879,0,-1,1,2,0,-1026
261,2.919076,0,0,0,0,-1,-1020
262,2.930263,0,0,0,-1,5,-1020
263,2.941452,0,-1,-1,-2,2,-1025
264,2.952647,0,0,-1,-3,5,-1023
265,2.963832,1,1,1,0,3,-1019
266,2.975017,0,-1,1,-4,-1,-1021
267,2.986202,0,1,-1,-3,-2,-1020
268,2.997383,-1,1,0,-4,-1,-1027
269,3.008568,1,1,0,1,4,-1018
270,3.019762,1,1,0,1,2,-1025
271,3.030942,1,2,0,-6,-2,-1029
272,3.04213,1,0,0,4,0,-1023
273,3.05331,0,1,0,0,3,-1028
274,3.0645,0,1,-1,3,-3,-1023
275,3.075683,0,1,-1,1,-1,-1024
276,3.086864,0,1,-1,-1,1,-1022
277,3.098046,1,0,-1,0,-2,-1023
278,3.109226,1,-1,0,0,1,-1021
279,3.120405,0,-1,0,-2,3,-1023
280,3.131568,0,-1,0,0,0,-1024
281,3.142748,0,0,0,0,2,-1022
282,3.153934,1,-1,0,2,2,-1027
283,3.165113,1,-2,0,-1,4,-1023
284,3.176321,0,-1,0,0,3,-1023
285,3.187638,-1,1,-1,0,-3,-1027
286,3.198891,0,0,-1,0,0,-1025
287,3.210078,1,0,0,-3,3,-1028
288,3.221266,1,-2,0,1,0,-1026
289,3.232449,0,-2,-1,-1,2,-1023
290,3.243641,0,-1,-1,2,1,-1022
291,3.254824,1,0,1,-3,2,-1033
292,3.266008,1,-1,0,0,1,-1023
293,3.277192,0,0,1,-2,0,-1027
294,3.28838,0,0,1,2,1,-1029
295,3.299568,0,0,0,0,-5,-1022
296,3.310779,0,-1,0,1,0,-1026
297,3.321962,0,1,0,0,6,-1022
298,3.333144,1,1,0,0,1,-1030
299,3.344322,0,1,0,1,-2,-1027
300,3.355508,1,1,-1,0,-2,-1025
301,3.366692,0,0,0,-1,-3,-1025
302,3.377874,0,0,-1,1,-1,-1020
303,3.389066,1,1,-1,3,4,-1027
304,3.400248,0,0,0,1,-2,-1021
305,3.411435,0,0,-1,0,0,-1021
306,3.422623,1,0,0,0,3,-1030
307,3.43381,0,1,-1,-3,2,-1024
308,3.444996,1,1,-1,-3,-3,-1027
309,3.456186,0,0,-1,1,2,-1023
310,3.467379,1,2,-1,-1,2,-1018
311,3.478561,0,1,0,-3,1,-1025
312,3.489758,0,2,1,0,1,-1023
313,3.50094,0,0,1,1,1,-1022
314,3.512127,0,1,0,4,2,-1023
315,3.523319,1,0,0,-6,-2,-1026
316,3.534503,0,-2,0,-4,-3,-1027
317,3.545686,0,0,1,3,-1,-1028
318,3.556868,1,0,1,-1,1,-1028
319,3.568058,0,0,0,2,1,-1025
320,3.579244,0,1,0,1,3,-1025
321,3.59043,0,0,0,-1,-1,-1032
322,3.601609,0,1,0,-3,2,-1025
323,3.612792,0,1,0,1,4,-1014
324,3.623978,0,0,-1,-2,3,-1016
325,3.635163,1,1,1,3,0,-1024
326,3.646343,0,1,0,1,2,-1021
327,3.657525,0,1,0,0,-1,-1024
328,3.668733,0,0,0,-1,3,-1028
329,3.679935,0,0,0,-2,1,-1022
330,3.691124,1,1,0,2,2,-1024
331,3.702309,2,1,0,2,3,-1023
332,3.71349,1,2,-1,-1,-1,-1022
333,3.724675,1,0,0,-1,1,-1028
334,3.735866,0,0,1,3,-1,-1022
335,3.747011,0,0,0,-5,0,-1017
336,3.75819,0,-2,0,0,-3,-1019
337,3.769369,0,-1,-1,-3,0,-1019
338,3.780551,1,-2,1,0,6,-1024
339,3.791754,0,0,1,-2,3,-1024
340,3.802935,0,-1,0,-4,-1,-1024
341,3.814122,0,-1,-1,-1,2,-1024
342,3.825302,0,-1,-1,2,3,-1028
343,3.836492,0,-2,0,3,3,-1028
344,3.847683,0,-1,0,0,3,-1028
345,3.858877,1,1,0,-4,3,-1024
346,3.870062,0,1,-1,-2,1,-1019
347,3.881244,1,1,0,4,1,-1020
348,3.892431,1,1,-1,-2,0,-1027
349,3.903616,1,1,0,2,0,-1023
350,3.914799,1,1,0,2,2,-1027
351,3.925984,1,0,-1,-2,-3,-1016
352,3.937175,0,1,0,-1,3,-1029
353,3.948362,1,0,0,-3,-2,-1022
354,3.959566,0,2,0,-2,0,-1023
355,3.970784,0,0,0,-1,-1,-1025
356,3.982435,0,0,0,-2,4,-1026
357,3.994079,0,0,0,0,2,-1030
358,4.005749,0,0,0,-1,1,-1030
359,4.01739,0,0,0,-2,-2,-1022
360,4.029066,0,0,0,3,4,-1028
361,4.04074,1,-1,0,2,5,-1029
362,4.0524,0,1,0,-1,0,-1021
363,4.064091,0,0,1,0,1,-1027
364,4.075762,1,-1,0,5,1,-1024
365,4.087428,-1,-1,0,1,3,-1026
366,4.099059,1,0,0,0,-1,-1021
367,4.110722,0,0,0,4,4,-1023
368,4.122378,0,0,-1,3,1,-1027
369,4.134024,0,0,1,1,1,-1023
370,4.145666,0,1,0,5,0,-1024
371,4.157313,1,1,0,-1,0,-1021
372,4.168987,1,0,0,-3,-4,-1017
373,4.180647,0,0,1,0,2,-1032
374,4.192332,0,-1,0,4,0,-1025
375,4.203993,0,0,0,0,0,-1022
376,4.215642,1,0,1,-1,1,-1027
377,4.227308,0,0,1,1,1,-1025
378,4.238971,1,0,0,3,4,-1025
379,4.250627,0,-1,0,-2,0,-1026
380,4.262278,0,0,-1,-1,-1,-1023
381,4.273955,0,0,0,-1,3,-1024
382,4.285623,0,0,0,0,2,-1021
383,4.29728,0,0,0,0,1,-1025
384,4.308924,0,0,0,-2,1,-1029
385,4.320615,0,0,0,0,3,-1025
386,4.332273,0,0,0,2,2,-1025
387,4.343956,1,1,0,2,0,-1028
388,4.355641,1,0,0,-4,-2,-1024
389,4.36731,0,0,0,-1,2,-1028
390,4.378972,-1,0,0,1,1,-1030
391,4.39052,0,0,0,-3,2,-1024
392,4.402086,0,0,0,2,2,-1021
393,4.413647,0,0,0,2,-4,-1027
394,4.425207,0,0,-1,-2,-1,-1024
395,4.436748,0,1,0,-2,4,-1021
396,4.448333,1,0,-1,3,-1,-1030
397,4.459892,0,0,0,-2,1,-1026
398,4.471458,1,0,0,-1,1,-1024
399,4.483041,0,0,0,-4,1,-1025
400,4.494659,0,0,0,-3,1,-1029
401,4.506318,0,0,0,-1,-1,-1022
402,4.517973,0,1,0,-1,3,-1029
403,4.529627,0,0,0,0,3,-1028
404,4.541286,0,0,0,2,5,-1028
405,4.552958,1,-1,0,2,0,-1022
406,4.564621,0,0,-1,3,-2,-1025
407,4.576275,0,0,0,1,1,-1023
408,4.587959,1,0,0,1,1,-1016
409,4.599652,1,0,0,0,0,-1019
410,4.611229,0,0,0,1,0,-1023
411,4.622811,0,0,-1,-2,-5,-1032
412,4.634356,0,0,-1,0,-3,-1030
413,4.645901,0,0,-1,-1,-1,-1023
414,4.657454,0,1,-1,-3,-1,-1031
415,4.669001,0,0,0,-1,1,-1023
416,4.680549,1,-1,0,-1,0,-1024
417,4.692137,0,0,0,-1,2,-1030
418,4.703764,0,0,0,2,0,-1025
419,4.715445,0,0,1,4,1,-1023
420,4.727098,0,0,0,-4,-2,-1027
421,4.738765,0,0,0,5,-1,-1023
422,4.750414,1,0,0,-2,-1,-1026
423,4.762061,1,0,0,1,-1,-1022
424,4.773763,1,0,0,-2,1,-1028
425,4.785406,1,0,0,0,4,-1024
426,4.797071,0,0,0,-1,-3,-1023
427,4.808727,0,0,0,1,-4,-1026
428,4.820256,0,-1,0,1,-1,-1018
429,4.831822,0,-1,0,-3,3,-1021
430,4.843401,0,0,0,-1,-3,-1026
431,4.854958,0,0,0,-3,1,-1020
432,4.866522,0,0,-1,-2,1,-1030
433,4.87809,1,-1,0,0,-1,-1032
434,4.889642,0,0,-1,2,0,-1023
435,4.901216,0,0,0,1,-2,-1026
436,4.912837,0,0,0,1,1,-1025
437,4.924508,0,0,0,3,1,-1031
438,4.936159,0,0,0,-5,3,-1024
439,4.947873,0,0,0,-2,-2,-1020
440,4.959549,0,0,0,-2,-1,-1020
441,4.971207,0,0,0,1,0,-1026
442,4.982867,0,0,0,3,-2,-1022
443,4.994534,0,0,0,-1,3,-1028
444,5.006205,0,1,0,1,2,-1023
445,5.017855,0,0,0,0,-2,-1022
446,5.029414,1,0,0,1,1,-1024
447,5.040971,1,0,0,-2,1,-1029
448,5.052582,1,0,-1,1,3,-1026
449,5.064142,1,1,0,-4,3,-1022
450,5.075713,0,0,-1,1,1,-1024
451,5.087286,1,1,0,0,3,-1022
452,5.09884,0,0,-1,1,2,-1025
453,5.110395,1,0,0,3,2,-1020
454,5.122046,1,0,-1,1,-1,-1024
455,5.133748,0,0,-1,1,1,-1026
456,5.145406,0,0,0,-1,-1,-1029
457,5.157051,0,0,-1,-3,1,-1025
458,5.168708,0,0,0,-2,4,-1024
459,5.180391,0,0,0,1,0,-1029
460,5.19208,0,0,0,1,3,-1025
461,5.203747,0,-1,0,1,-2,-1021
462,5.215448,-1,0,-1,0,-1,-1019
463,5.227057,0,0,0,-1,2,-1019
464,5.238613,1,1,1,-2,4,-1025
465,5.2502,0,0,0,-1,2,-1029
466,5.261743,1,1,-1,-4,-5,-1019
467,5.273284,1,1,-1,1,-1,-1024
468,5.284834,0,0,-1,-2,2,-1018
469,5.296416,1,1,0,-1,1,-1022
470,5.308007,1,0,0,0,-1,-1027
471,5.319557,0,0,0,8,-1,-1019
472,5.331263,1,0,-1,-1,1,-1019
473,5.342919,0,0,0,-1,2,-1029
474,5.354561,0,0,0,-1,0,-1020
475,5.366236,-1,0,0,1,-1,-1028
476,5.377886,1,0,0,-3,2,-1023
477,5.389524,0,0,0,5,-2,-1025
478,5.401168,1,1,0,0,3,-1025
479,5.412852,0,1,-1,2,1,-1030
480,5.424504,0,0,0,-2,1,-1021
481,5.43616,0,1,0,3,1,-1027
482,5.447868,0,0,0,0,1,-1016
483,5.459512,0,0,0,1,1,-1019
484,5.471178,0,0,0,4,3,-1027
485,5.482852,0,0,0,-4,-2,-1027
486,5.494513,0,-1,0,2,2,-1025
487,5.506197,-1,-1,-1,0,2,-1026
488,5.51787,0,0,-1,0,1,-1024
489,5.529547,0,0,-1,1,0,-1023
490,5.541106,0,0,-1,-2,0,-1025
491,5.552693,0,0,0,-3,0,-1025
492,5.564263,0,-1,0,0,3,-1024
493,5.575823,0,0,0,1,3,-1024
494,5.587378,0,0,0,0,-2,-1024
495,5.598927,0,1,0,2,0,-1029
496,5.610479,0,-1,0,-2,-1,-1023
497,5.622089,0,0,0,2,0,-1027
498,5.633739,1,0,0,-2,0,-1028
499,5.645406,0,1,0,-1,2,-1027
500,5.657044,0,0,-1,-2,1,-1029
501,5.668694,0,0,0,-1,0,-1025
502,5.68038,1,0,-1,-1,4,-1025
503,5.69202,1,0,0,1,1,-1024
504,5.703717,0,-1,0,-4,1,-1026
505,5.715384,1,1,0,-2,2,-1020
506,5.727055,0,-1,0,0,6,-1022
507,5.738738,0,0,0,-3,6,-1028
508,5.750293,0,0,0,1,3,-1019
509,5.761842,0,0,0,3,2,-1023
510,5.773389,0,0,0,-1,-3,-1023
511,5.784961,0,-1,0,-1,-1,-1026
512,5.796566,-1,0,-1,-3,1,-1024
513,5.808142,1,0,-1,-4,0,-1028
514,5.819708,0,0,-1,1,3,-1028
515,5.831308,1,0,0,-2,-3,-1024
516,5.842967,1,1,0,3,0,-1021
517,5.854641,1,0,0,0,0,-1018
518,5.866288,1,-1,0,-1,2,-1029
519,5.877964,1,0,0,-1,0,-1025
520,5.889635,0,0,1,-1,-1,-1020
521,5.901283,1,0,1,1,-3,-1021
522,5.912962,0,0,0,0,0,-1027
523,5.924638,0,0,-1,0,-3,-1024
524,5.936319,0,0,0,-3,-2,-1025
525,5.947988,0,0,-1,1,-1,-1025
526,5.959545,0,0,0,1,1,-1030
527,5.9711,0,-1,-1,-2,-2,-1024
528,5.98269,1,-1,0,-3,-2,-1024
529,5.994233,1,0,0,0,0,-1024
530,6.005834,0,0,0,0,-1,-1025
531,6.017388,0,0,0,-3,3,-1024
532,6.028944,0,0,0,-1,0,-1023
533,6.040498,0,0,0,-3,-4,-1029
534,6.052122,0,0,0,-2,-3,-1031
535,6.063807,0,0,0,2,0,-1024
536,6.075492,0,0,0,-2,-1,-1028
537,6.087137,0,0,1,2,-2,-1030
538,6.098787,1,-1,0,2,1,-1026
539,6.110451,0,1,0,-3,1,-1021
540,6.122117,0,1,0,3,-1,-1029
541,6.133765,1,0,0,1,0,-1033
542,6.145435,0,0,0,-1,1,-1022
543,6.157141,1,0,0,1,4,-1029
544,6.168702,1,0,0,1,1,-1025
545,6.180302,1,0,0,2,-2,-1024
546,6.191885,1,1,0,-1,0,-1025
547,6.203449,0,0,0,-1,0,-1027
548,6.214996,1,-1,0,2,2,-1022
549,6.226546,0,0,0,0,-2,-1026
550,6.238095,1,0,0,-2,-1,-1026
551,6.249692,0,0,1,1,0,-1029
552,6.261312,0,0,1,3,2,-1019
553,6.272987,0,-1,0,2,0,-1026
554,6.284641,1,-1,0,-1,2,-1017
555,6.296368,0,0,0,-1,-3,-1024
556,6.308013,0,1,0,-12,-1,-1029
557,6.319738,1,0,0,0,0,-1027
558,6.331399,1,0,-1,-1,-2,-1025
559,6.343062,1,-1,0,-5,2,-1025
560,6.354756,0,1,0,-1,3,-1029
561,6.366411,0,0,0,1,3,-1028
562,6.377968,-1,-1,0,1,-1,-1023
563,6.389541,0,0,-1,3,-3,-1026
564,6.401081,1,0,0,2,-1,-1024
565,6.412618,0,0,0,0,3,-1021
566,6.424179,0,0,0,-4,-1,-1024
567,6.43575,0,0,0,-4,0,-1022
568,6.447288,1,0,1,-2,6,-1024
569,6.458839,0,0,0,-3,0,-1023
570,6.470527,0,0,1,1,2,-1026
571,6.482188,0,0,0,-1,-3,-1024
572,6.493856,0,-1,0,0,0,-1027
573,6.505508,0,0,0,-1,2,-1025
574,6.517145,0,0,0,2,4,-1023
575,6.528795,1,-1,0,3,1,-1024
576,6.540478,0,0,0,-2,0,-1025
577,6.552127,0,0,0,1,0,-1026
578,6.563818,1,0,0,-1,2,-1022
579,6.575481,0,0,-1,-1,0,-1028
580,6.587052,0,-1,1,4,3,-1028
581,6.598606,1,0,0,-1,3,-1020
582,6.610177,0,1,0,0,1,-1023
583,6.621748,1,0,0,-1,2,-1019
584,6.633313,0,0,0,-1,-1,-1024
585,6.644862,0,0,0,-1,1,-1025
586,6.656441,0,0,0,0,5,-1024
587,6.66801,0,0,0,-5,0,-1027
588,6.679647,0,-1,0,-4,2,-1024
589,6.691323,0,-1,1,-2,2,-1029
590,6.703,0,0,-1,-3,1,-1024
591,6.714657,0,-1,0,0,1,-1027
592,6.726304,0,0,0,-4,2,-1022
593,6.737981,1,0,0,-4,-2,-1023
594,6.749639,0,0,0,-2,0,-1031
595,6.761285,0,0,0,-3,-4,-1023
596,6.772974,0,0,0,1,0,-1027
597,6.784619,0,1,0,3,5,-1030
598,6.796185,0,0,0,-1,2,-1028
599,6.80776,1,-1,0,-1,1,-1029
600,6.819357,0,0,0,0,1,-1029
601,6.83093,1,0,0,0,1,-1022
602,6.842463,0,1,0,3,-2,-1017
603,6.853998,0,0,0,2,-1,-1024
604,6.865546,0,0,0,4,1,-1022
605,6.8771,0,0,-1,-1,1,-1021
606,6.888737,-1,-1,0,-1,5,-1030
607,6.900393,0,0,1,2,1,-1024
608,6.912112,-1,0,-1,-3,-1,-1024
609,6.92376,0,0,1,-1,3,-1023
610,6.935451,0,0,0,-1,2,-1029
611,6.947125,-1,1,0,2,0,-1018
612,6.958769,0,0,0,-1,1,-1022
613,6.970419,0,0,1,-1,0,-1022
614,6.982124,0,0,0,1,0,-1022
615,6.993819,0,-1,0,0,-2,-1025
616,7.005412,0,0,0,-1,-2,-1023
617,7.016966,1,1,0,-5,3,-1024
618,7.028523,0,0,0,-4,-1,-1029
619,7.040084,0,0,-1,-2,3,-1025
620,7.051673,0,0,1,-1,-2,-1031
621,7.063226,1,0,0,2,0,-1024
622,7.074801,0,0,0,-2,2,-1019
623,7.086355,1,0,0,2,2,-1031
624,7.097992,1,0,1,-5,-1,-1025
625,7.109645,1,0,0,1,-3,-1025
626,7.121299,0,0,0,1,0,-1028
627,7.132974,0,0,-1,0,3,-1032
628,7.144624,0,1,0,-3,-1,-1025
629,7.156282,0,0,0,0,2,-1027
630,7.16797,0,0,0,1,3,-1024
631,7.179625,0,1,0,3,-1,-1021
632,7.191324,1,0,-1,-1,4,-1022
633,7.202991,0,0,-1,-3,-3,-1019
634,7.214566,1,0,0,-1,1,-1022
635,7.226123,1,0,0,-1,2,-1027
636,7.23769,0,0,0,-4,-4,-1021
637,7.249231,1,0,0,2,-1,-1023
638,7.260773,0,0,0,-3,0,-1026
639,7.272328,0,0,-1,0,1,-1026
640,7.283936,0,0,0,0,0,-1028
641,7.295494,0,0,0,-2,0,-1021
642,7.307196,1,0,0,-1,-3,-1026
643,7.318867,1,-1,0,-2,-2,-1023
644,7.330521,1,-1,1,-5,0,-1018
645,7.342184,1,0,0,-3,-2,-1029
646,7.353837,1,-1,1,-4,-3,-1026
647,7.36551,0,-1,0,-3,2,-1025
648,7.377167,0,0,-1,-4,-2,-1025
649,7.388808,0,-1,-1,-1,3,-1031
650,7.400507,0,0,0,2,-1,-1023
651,7.412168,-1,0,0,0,2,-1024
652,7.423753,0,0,0,-2,1,-1026
653,7.435291,-1,0,0,-2,0,-1021
654,7.446848,0,0,0,-1,2,-1022
655,7.458424,0,0,0,0,1,-1031
656,7.469975,1,0,1,-1,1,-1021
657,7.481552,0,0,0,-1,0,-1026
658,7.493093,0,0,0,-3,-2,-1027
659,7.504658,0,0,0,-3,-3,-1026
660,7.516392,0,0,1,2,3,-1026
661,7.528112,0,1,0,-1,-1,-1029
662,7.53977,0,1,0,0,-1,-1031
663,7.551447,1,-1,0,-2,1,-1024
664,7.563113,1,0,1,3,-3,-1023
665,7.574766,0,1,0,1,0,-1030
666,7.586416,1,0,0,-2,1,-1026
667,7.598062,0,0,0,-1,2,-1022
668,7.609743,1,0,0,-4,1,-1020
669,7.621401,0,1,0,3,4,-1023
670,7.633043,1,0,0,0,1,-1027
671,7.64471,0,0,0,2,0,-1029
672,7.656363,0,0,0,2,-1,-1027
673,7.668011,0,-1,0,3,3,-1024
674,7.679709,0,0,0,0,5,-1022
675,7.691373,1,-1,0,2,1,-1023
676,7.703035,0,0,0,-4,1,-1025
677,7.714723,0,0,-1,-3,2,-1025
678,7.72638,0,0,-1,3,0,-1025
679,7.738042,0,0,0,0,-4,-1023
680,7.749715,0,0,-1,1,0,-1022
681,7.761367,0,1,1,-1,2,-1027
682,7.773003,1,0,0,-3,1,-1026
683,7.784651,1,0,0,-4,2,-1023
684,7.796335,0,0,0,-2,3,-1026
685,7.808023,0,0,0,-1,4,-1023
686,7.819778,0,0,0,-1,3,-1027
687,7.831441,0,0,0,3,-1,-1027
688,7.843048,1,0,1,0,2,-1034
689,7.854597,1,0,-1,-1,-2,-1015
690,7.866154,1,-1,-1,-2,2,-1027
691,7.877704,0,0,1,-2,1,-1022
692,7.889252,0,0,0,-3,0,-1018
693,7.900796,0,1,1,0,0,-1021
694,7.912396,0,1,0,-2,2,-1030
695,7.923965,0,0,0,-2,0,-1024
696,7.935586,0,0,-1,2,2,-1029
697,7.94725,1,0,1,3,2,-1022
698,7.958902,0,1,0,4,-2,-1024
699,7.970554,0,0,0,-4,1,-1021
700,7.982227,0,1,1,-2,0,-1024
701,7.99387,0,0,0,3,-2,-1030
702,8.005524,1,0,0,1,2,-1026
703,8.017196,0,0,0,-2,-5,-1022
704,8.028866,1,1,1,-4,1,-1020
705,8.040558,0,1,0,-1,-2,-1025
706,8.052159,0,0,0,-2,-1,-1027
707,8.063711,0,0,0,1,-1,-1030
708,8.075283,0,0,0,1,1,-1027
709,8.086832,0,-1,0,-1,0,-1022
710,8.098423,0,-1,0,0,-1,-1025
711,8.109981,0,0,0,0,1,-1024
712,8.121568,0,0,0,-2,0,-1025
713,8.133139,0,0,0,1,3,-1024
714,8.144685,0,0,0,3,-1,-1028
715,8.156248,1,0,0,-5,-3,-1020
716,8.167772,1,0,0,0,-2,-1026
717,8.17929,0,0,0,-1,1,-1023
718,8.190835,0,0,-1,1,4,-1022
719,8.202401,0,0,1,-1,2,-1024
720,8.213954,0,0,0,0,2,-1023
721,8.225527,0,0,0,0,2,-1028
722,8.237138,0,1,0,3,2,-1031
723,8.248786,1,0,0,1,8,-1021
724,8.260493,0,0,0,-1,-1,-1026
725,8.272167,1,0,0,-4,-4,-1026
726,8.283835,0,0,0,1,-1,-1023
727,8.295525,0,0,-1,4,5,-1022
728,8.307211,0,1,0,0,-1,-1022
729,8.318873,0,1,0,4,0,-1026
730,8.330525,1,0,0,2,2,-1031
731,8.342183,1,0,0,2,-1,-1026
732,8.353844,0,1,0,2,1,-1017
733,8.365497,0,1,0,0,0,-1026
734,8.377139,1,1,0,2,1,-1026
735,8.388787,1,0,1,0,0,-1027
736,8.40048,0,1,0,4,0,-1025
737,8.412131,0,0,0,3,-3,-1020
738,8.423813,0,0,1,-1,3,-1021
739,8.435487,0,0,0,-2,-1,-1026
740,8.447161,1,0,0,0,-1,-1023
741,8.458815,1,0,0,0,-1,-1026
742,8.470503,0,0,0,1,0,-1028
743,8.482153,0,0,0,1,3,-1020
744,8.493806,0,0,1,-2,-3,-1024
745,8.505479,0,0,1,-2,2,-1032
746,8.517118,1,0,0,4,0,-1028
747,8.528769,1,0,0,0,0,-1024
748,8.540443,0,0,1,-1,1,-1021
749,8.552105,0,0,1,1,3,-1031
750,8.56376,0,1,0,-1,-3,-1023
751,8.575295,0,0,0,0,2,-1021
752,8.586868,1,-1,0,-3,0,-1029
753,8.598425,0,0,-1,-3,2,-1025
754,8.609992,0,0,-1,0,2,-1023
755,8.621569,0,1,0,1,2,-1028
756,8.633133,0,0,0,-4,-1,-1025
757,8.644677,0,0,-1,-4,1,-1023
758,8.656265,1,0,0,2,1,-1020
759,8.667892,0,-1,0,1,-3,-1029
760,8.679562,0,1,0,0,-3,-1020
761,8.691222,1,0,-1,2,0,-1026
762,8.702881,0,0,0,0,1,-1025
763,8.714524,0,0,0,0,2,-1026
764,8.726189,1,0,0,0,1,-1023
765,8.73785,0,0,0,1,-2,-1019
766,8.749488,0,0,0,3,-5,-1028
767,8.761148,0,1,0,0,-2,-1028
768,8.772804,0,0,0,2,-2,-1026
769,8.784418,0,0,1,0,4,-1024
770,8.796046,0,0,0,6,6,-1022
771,8.807594,0,0,0,3,-3,-1024
772,8.819176,1,0,0,-1,1,-1021
773,8.830725,0,0,0,2,1,-1021
774,8.842297,0,1,0,3,3,-1033
775,8.853849,-1,0,-1,2,0,-1028
776,8.865408,0,0,0,-2,0,-1023
777,8.877045,0,0,-1,0,-1,-1019
778,8.888721,0,0,0,1,0,-1024
779,8.900356,0,0,0,-2,-1,-1028
780,8.91201,1,0,0,-2,-1,-1020
781,8.923712,0,-1,-1,2,0,-1019
782,8.935372,0,0,0,0,-1,-1022
783,8.947037,0,0,0,-3,2,-1030
784,8.958713,1,0,-1,-2,1,-1027
785,8.970379,1,0,-1,-4,3,-1024
786,8.98203,1,1,0,-5,2,-1029
787,8.993587,0,0,-1,-1,-1,-1030
788,9.005162,0,0,0,0,1,-1026
789,9.016717,1,0,0,2,-1,-1022
790,9.028287,0,0,0,-3,-1,-1026
791,9.039836,1,0,0,1,0,-1023
792,9.051485,0,0,0,-1,-2,-1026
793,9.063051,0,0,0,2,3,-1027
794,9.074639,0,0,0,0,-2,-1027
795,9.086357,1,-1,0,2,-1,-1026
796,9.098008,0,0,0,-1,-2,-1024
797,9.109683,1,0,-1,4,1,-1026
798,9.121355,0,1,-1,1,0,-1025
799,9.132996,0,0,0,-1,0,-1027
800,9.144644,0,0,0,-1,-1,-1029
801,9.156352,0,1,0,1,5,-1021
802,9.168001,1,0,-1,-5,1,-1021
803,9.180107,0,1,0,-2,1,-1024
804,9.191796,0,0,0,0,4,-1027
805,9.203366,0,0,1,0,-6,-1029
806,9.214953,0,0,-1,-4,1,-1024
807,9.22651,0,0,0,-1,2,-1027
808,9.238057,0,0,0,-1,3,-1021
809,9.249635,0,0,-1,-2,1,-1026
810,9.261187,1,-1,0,1,4,-1024
811,9.272763,1,0,0,-2,2,-1028
812,9.28435,1,0,0,3,4,-1020
813,9.295917,0,0,-1,0,-3,-1021
814,9.307466,0,0,-1,5,-1,-1028
815,9.319036,1,0,0,1,-1,-1019
816,9.330581,1,0,1,-1,-1,-1030
817,9.342136,0,0,0,-5,2,-1024
818,9.353681,1,-1,0,-1,2,-1027
819,9.365221,0,0,0,1,-1,-1022
820,9.37684,1,0,0,-1,-5,-1021
821,9.388481,1,-1,-1,2,-3,-1028
822,9.400163,0,1,-1,-2,-2,-1023
823,9.41184,0,1,0,-1,1,-1025
824,9.423489,1,1,0,3,-1,-1025
825,9.435138,0,0,-1,4,1,-1031
826,9.446817,0,0,0,0,0,-1021
827,9.458464,1,0,0,3,1,-1024
828,9.47011,0,0,1,1,2,-1028
829,9.481774,0,0,0,0,5,-1028
830,9.493444,0,0,-1,1,3,-1032
831,9.50509,0,0,-1,0,4,-1020
832,9.516738,0,0,0,2,-1,-1028
833,9.528394,0,1,-1,0,0,-1027
834,9.540078,0,0,0,-1,3,-1028
835,9.551743,1,0,0,2,-3,-1033
836,9.563475,1,0,0,0,3,-1021
837,9.575128,0,0,0,-4,1,-1031
838,9.586821,0,0,0,3,2,-1025
839,9.598408,0,0,0,3,0,-1020
840,9.609945,0,-1,1,-3,0,-1027
841,9.621477,0,0,0,-1,0,-1027
842,9.633013,1,0,0,-2,3,-1025
843,9.644607,0,0,0,1,0,-1029
844,9.65631,0,0,-1,1,5,-1025
845,9.667916,0,0,0,-2,4,-1024
846,9.679559,0,-1,0,-1,-3,-1023
847,9.691217,0,0,0,1,1,-1028
848,9.702785,0,0,0,-1,4,-1026
849,9.714326,0,0,0,-2,-3,-1016
850,9.725867,0,0,1,-3,-4,-1031
851,9.737418,0,0,0,0,1,-1018
852,9.748962,1,0,1,2,4,-1026
853,9.760512,1,0,0,1,4,-1024
854,9.772098,1,0,0,0,0,-1022
855,9.783663,0,0,1,-1,-1,-1026
856,9.795229,1,0,1,0,2,-1021
857,9.80689,1,0,0,1,-2,-1025
858,9.818547,1,0,0,-1,2,-1022
859,9.830219,1,1,0,-1,1,-1021
860,9.841876,0,0,0,1,5,-1021
861,9.853574,0,0,0,-3,2,-1025
862,9.865214,0,0,0,1,2,-1026
863,9.876862,0,0,-1,3,1,-1022
864,9.888543,0,1,0,-2,2,-1027
865,9.900215,0,1,0,-2,3,-1021
866,9.9118,1,-1,0,-6,-4,-1026
867,9.923366,0,0,-1,1,1,-1027
868,9.934911,1,0,0,1,0,-1030
869,9.946448,0,-1,0,-1,-1,-1024
870,9.958013,0,0,0,0,0,-1031
871,9.96956,0,0,0,2,5,-1032
872,9.981103,0,-1,0,1,0,-1025
873,9.992651,0,-1,-1,-5,-2,-1023
874,10.004227,0,0,0,-5,0,-1026
875,10.015933,0,0,0,1,1,-1031
876,10.027581,0,0,0,-1,-3,-1024
877,10.039243,0,0,0,0,-1,-1027
878,10.050892,-1,-1,0,3,0,-1022
879,10.062538,0,0,0,-1,-5,-1022
880,10.074207,0,1,0,-1,1,-1029
881,10.085852,0,0,-1,0,-1,-1020
882,10.097514,1,-1,0,-1,3,-1024
883,10.10935,1,0,0,1,1,-1032
884,10.121001,1,0,0,-2,3,-1024
885,10.132654,-1,0,0,0,2,-1020
886,10.144351,0,0,0,-3,-1,-1031
887,10.155997,0,0,0,4,1,-1027
888,10.167668,0,1,0,-5,4,-1028
889,10.17931,0,0,1,0,-2,-1022
890,10.190962,0,0,-1,0,-1,-1020
891,10.202605,0,0,-1,5,-1,-1026
892,10.214289,1,-1,0,-2,1,-1024
893,10.225946,0,1,0,-2,3,-1025
894,10.237588,0,0,0,-3,2,-1027
895,10.249237,0,0,0,-2,-2,-1024
896,10.260887,0,0,0,1,0,-1021
897,10.272594,0,0,-1,3,0,-1028
898,10.284257,1,0,-1,4,2,-1031
899,10.295925,0,0,0,1,-2,-1027
900,10.307575,0,-1,0,0,0,-1025
901,10.319253,0,-1,0,1,1,-1024
902,10.330941,-1,0,1,3,-1,-1024
903,10.342595,0,0,0,-2,0,-1030
904,10.354244,0,0,-1,-2,0,-1031
905,10.365895,1,-1,-1,0,1,-1024
906,10.377571,1,0,-1,-1,0,-1022
907,10.389212,0,0,-1,-2,-4,-1025
908,10.400861,1,-1,0,-1,1,-1023
909,10.41254,0,-1,-1,0,-3,-1024
910,10.424227,1,0,-1,3,-4,-1021
911,10.435932,0,1,0,0,4,-1028
912,10.447511,0,0,0,-1,2,-1028
913,10.459047,0,1,0,0,-2,-1022
914,10.470625,0,0,0,-5,-3,-1028
915,10.482175,0,0,-1,-2,0,-1023
916,10.493737,1,0,0,-2,1,-1027
917,10.505284,0,1,0,-1,1,-1027
918,10.516825,-1,0,0,-2,1,-1026
919,10.528399,0,0,0,-1,1,-1022
920,10.540016,0,-1,1,-3,3,-1018
921,10.551698,0,-1,0,3,3,-1026
922,10.563318,1,0,0,0,1,-1022
923,10.57497,0,0,0,0,3,-1025
924,10.586606,0,0,0,0,4,-1023
925,10.598251,0,0,0,4,0,-1030
926,10.609916,-1,0,0,0,-1,-1022
927,10.621575,1,0,0,-2,1,-1027
928,10.63323,0,0,0,-3,-2,-1018
929,10.644837,0,0,1,-1,0,-1026
930,10.656407,0,0,0,-2,-3,-1020
931,10.66796,0,0,-1,-3,0,-1021
932,10.679536,1,1,0,-1,-1,-1022
933,10.691044,0,0,0,0,-1,-1022
934,10.702609,1,0,0,1,2,-1027
935,10.714162,1,0,-1,0,-1,-1026
936,10.725704,1,1,0,-1,3,-1025
937,10.737263,0,0,0,1,0,-1030
938,10.748879,1,0,-1,2,0,-1024
939,10.760555,1,0,0,2,2,-1021
940,10.77222,1,0,0,-2,-1,-1024
941,10.783872,1,0,0,-3,4,-1018
942,10.795562,0,0,0,2,-2,-1024
943,10.807222,0,0,0,1,1,-1020
944,10.818868,0,0,0,0,5,-1026
945,10.830515,1,0,0,-5,1,-1027
946,10.8422,0,0,0,2,3,-1024
947,10.853856,-1,-1,0,-2,2,-1026
948,10.86542,0,0,0,-2,0,-1023
949,10.876969,0,0,0,0,-3,-1028
950,10.888513,0,0,1,-3,2,-1024
951,10.900072,0,0,0,0,0,-1024
952,10.911654,0,-1,0,0,-1,-1023
953,10.923205,0,-1,0,-4,4,-1022
954,10.93477,0,1,0,-1,1,-1024
955,10.94632,1,0,-1,2,-3,-1024
956,10.957951,0,0,0,3,2,-1027
957,10.969597,0,0,0,-1,-2,-1023
958,10.981242,0,0,0,1,0,-1022
959,10.992908,0,0,1,1,-2,-1028
960,11.004599,1,0,-1,-2,-5,-1023
961,11.016251,0,0,0,-3,-1,-1025
962,11.027925,0,0,0,3,0,-1025
963,11.039579,0,0,0,1,-1,-1033
964,11.051291,-1,-1,0,0,3,-1028
965,11.062976,0,0,0,2,-1,-1025
966,11.074547,0,0,0,-4,1,-1021
967,11.086121,0,0,0,-3,3,-1025
968,11.097671,0,0,0,-2,-2,-1020
969,11.109215,0,0,0,-3,2,-1025
970,11.120761,1,0,0,0,0,-1022
971,11.13243,0,-1,0,-2,-1,-1025
972,11.144025,0,0,0,-2,0,-1023
973,11.155592,1,1,-1,2,-1,-1023
974,11.167226,0,0,-1,-6,-3,-1018
975,11.178876,1,0,0,0,0,-1028
976,11.190521,0,1,0,1,-1,-1020
977,11.202196,0,0,0,-2,3,-1028
978,11.213843,0,0,0,0,2,-1023
979,11.225492,0,0,0,0,3,-1030
980,11.237164,0,0,1,2,4,-1027
981,11.248848,1,0,0,0,2,-1022
982,11.26052,0,0,0,0,3,-1027
983,11.272197,0,-1,0,1,2,-1026
984,11.283779,0,-1,0,2,0,-1024
985,11.295334,0,0,0,-1,5,-1022
986,11.306886,0,0,-1,2,-1,-1024
987,11.318442,0,0,-1,-2,0,-1028
988,11.330029,1,1,1,0,2,-1032
989,11.341578,0,-1,0,1,1,-1027
990,11.353141,1,1,-1,-2,-1,-1024
991,11.364692,1,0,0,5,0,-1025
992,11.376331,0,-1,1,-2,-4,-1025
993,11.387993,0,-1,0,-4,1,-1018
994,11.399665,0,0,1,-4,-1,-1027
995,11.41133,-1,0,0,0,2,-1025
996,11.422981,0,1,0,-2,1,-1027
997,11.434662,0,0,0,0,-1,-1026
998,11.44631,0,0,0,0,4,-1024
999,11.457963,0,0,-1,-2,0,-1024
1000,11.469632,0,1,0,-2,1,-1019
1001,11.481296,0,0,0,-1,2,-1026
1002,11.492884,0,0,0,1,-2,-1025
1003,11.504421,0,0,0,-3,3,-1022
1004,11.515992,1,0,-1,0,0,-1021
1005,11.527531,0,0,0,-2,5,-1030
1006,11.539043,0,0,0,-1,1,-1016
1007,11.550603,0,0,0,3,1,-1026
1008,11.562145,0,0,0,0,-1,-1029
1009,11.573714,1,0,0,-1,0,-1023
1010,11.585339,1,0,0,1,0,-1025
1011,11.597,0,1,0,1,2,-1018
1012,11.608667,0,0,0,-2,0,-1019
1013,11.620342,0,0,-1,-3,-2,-1026
1014,11.632017,0,0,0,0,-2,-1023
1015,11.643701,0,0,0,-1,1,-1027
1016,11.655362,0,0,1,1,-1,-1023
1017,11.666998,1,0,0,-2,-2,-1023
1018,11.678656,0,0,0,-2,-5,-1031
1019,11.690326,0,0,0,0,-1,-1027
1020,11.701895,0,0,0,-5,0,-1028
1021,11.713452,0,0,-1,-3,1,-1024
1022,11.725015,0,1,0,-2,1,-1023
1023,11.736556,1,0,0,5,2,-1025
1024,11.748136,0,0,1,1,1,-1025
1025,11.75969,0,-1,0,5,3,-1023
1026,11.771239,0,0,0,-1,-6,-1022
1027,11.782798,0,-1,1,0,-5,-1027
1028,11.794435,0,1,0,-1,-1,-1022
1029,11.806163,0,0,-1,1,2,-1022
1030,11.817818,-1,1,0,1,-4,-1028
1031,11.829468,0,0,0,-1,2,-1025
1032,11.841129,1,0,0,-5,1,-1031
1033,11.852797,0,0,-1,2,-2,-1021
1034,11.864472,0,0,0,1,-2,-1026
1035,11.876149,0,0,0,0,-1,-1027
1036,11.887843,1,0,0,-1,-1,-1023
1037,11.899506,0,0,0,-2,1,-1023
1038,11.911048,0,0,-1,1,1,-1030
1039,11.922607,0,0,0,-2,1,-1019
1040,11.934157,0,0,0,0,0,-1027
1041,11.945733,0,-1,0,-2,4,-1029
1042,11.957276,0,0,0,-2,2,-1022
1043,11.968822,0,0,0,-2,2,-1028
1044,11.980391,1,1,0,-1,-3,-1026
1045,11.991944,0,0,0,3,-3,-1019
1046,12.003581,0,0,0,-1,0,-1021
1047,12.015234,0,-1,1,3,1,-1029
1048,12.026887,0,0,0,1,1,-1019
1049,12.038579,0,-1,0,0,3,-1022
1050,12.050223,0,0,-1,-2,1,-1027
1051,12.061874,0,-1,0,-4,-4,-1021
1052,12.073548,0,0,0,-1,3,-1027
1053,12.085194,0,0,0,-2,-2,-1022
1054,12.096862,0,-1,0,-1,0,-1021
1055,12.108559,0,1,0,-1,-2,-1028
1056,12.120148,0,0,0,1,0,-1027
1057,12.131702,0,0,0,2,-2,-1028
1058,12.143278,0,0,-1,-1,-2,-1024
1059,12.154836,0,1,0,-1,-1,-1018
1060,12.166394,0,0,0,0,-1,-1024
1061,12.177958,1,0,0,0,1,-1025
1062,12.189509,0,0,-1,1,-4,-1030
1063,12.201072,0,0,0,1,-3,-1029
1064,12.212623,0,0,0,-3,0,-1030
1065,12.22419,0,0,-1,4,-1,-1023
1066,12.23578,1,0,0,0,2,-1026
1067,12.247346,-1,-1,0,1,1,-1027
1068,12.258889,1,0,-1,5,4,-1021
1069,12.270428,0,0,0,-3,-1,-1026
1070,12.281973,1,-1,0,-3,-2,-1024
1071,12.293518,0,0,0,0,2,-1024
1072,12.305124,0,0,0,1,-3,-1024
1073,12.316761,0,0,-1,-1,0,-1028
1074,12.328436,1,0,0,-3,2,-1028
1075,12.340086,0,0,-1,-2,1,-1027
1076,12.351764,1,-1,0,-3,0,-1025
1077,12.363443,1,-1,0,-1,1,-1019
1078,12.375064,0,0,0,4,4,-1016
1079,12.386715,0,1,0,2,-4,-1020
1080,12.398355,0,-1,0,1,1,-1022
1081,12.410037,0,0,0,-2,3,-1026
1082,12.421694,0,1,0,-1,3,-1024
1083,12.433344,0,0,0,1,-1,-1025
1084,12.445006,0,0,0,-3,-2,-1025
1085,12.456664,1,0,0,1,-1,-1020
1086,12.468338,0,0,0,-1,1,-1028
1087,12.480007,1,-1,-1,0,1,-1027
1088,12.491661,0,0,0,1,2,-1026
1089,12.503319,0,-1,0,1,1,-1019
1090,12.514999,0,-1,1,0,-2,-1032
1091,12.526647,1,1,1,2,0,-1026
1092,12.538308,1,0,1,-1,-3,-1027
1093,12.549983,1,0,1,-3,-3,-1026
1094,12.561635,0,0,0,2,2,-1021
1095,12.573289,0,0,0,-2,2,-1028
1096,12.584963,0,0,0,0,4,-1031
1097,12.596604,0,-1,-1,1,2,-1019
1098,12.608257,0,0,1,-3,2,-1020
1099,12.619978,0,-1,0,3,-1,-1028
1100,12.631638,1,1,-1,-5,1,-1027
1101,12.643318,0,0,0,-3,-2,-1032
1102,12.654975,1,0,0,1,1,-1019
1103,12.666646,1,-1,0,-1,0,-1029
1104,12.678304,0,0,0,-3,-4,-1025
1105,12.689955,1,0,0,0,-2,-1025
1106,12.701605,0,0,0,1,0,-1027
1107,12.713274,0,0,0,-2,4,-1028
1108,12.724957,0,0,0,2,1,-1029
1109,12.736526,0,0,0,-5,-1,-1024
1110,12.748079,0,0,0,6,-1,-1024
1111,12.759648,-1,0,0,-1,0,-1020
1112,12.771197,0,0,1,-1,-3,-1025
1113,12.78274,0,0,0,0,2,-1024
1114,12.794289,0,0,0,-1,1,-1017
1115,12.805869,0,0,0,1,0,-1025
1116,12.817422,0,-1,1,-1,1,-1024
1117,12.829009,1,-1,0,3,2,-1020
1118,12.840628,0,0,0,3,3,-1032
1119,12.852313,0,1,0,1,5,-1020
1120,12.863984,1,0,1,-3,-1,-1025
1121,12.875667,0,1,1,3,-1,-1028
1122,12.887326,0,0,0,-4,0,-1026
1123,12.898979,1,0,1,-5,-3,-1025
1124,12.91065,0,0,0,1,-1,-1028
1125,12.92234,0,0,0,-3,-2,-1022
1126,12.934002,0,0,0,-6,2,-1026
1127,12.945669,1,0,0,-1,2,-1021
1128,12.957227,0,0,0,0,-2,-1025
1129,12.968774,0,0,-1,0,0,-1021
1130,12.980355,0,0,0,2,1,-1024
1131,12.991911,0,-1,0,-3,1,-1031
1132,13.003496,0,1,0,0,0,-1030
1133,13.015046,0,1,1,-4,-1,-1023
1134,13.026598,1,0,1,-2,2,-1022
1135,13.038156,1,0,0,0,-1,-1022
1136,13.049781,1,0,0,2,-2,-1027
1137,13.061436,0,0,0,1,3,-1028
1138,13.073082,0,1,0,0,-3,-1018
1139,13.084736,0,-1,0,1,-3,-1024
1140,13.096387,0,-1,1,1,0,-1024
1141,13.108063,1,0,0,-2,0,-1027
1142,13.119726,1,1,0,1,0,-1025
1143,13.13138,0,0,0,-1,1,-1026
1144,13.143066,1,1,0,-5,-3,-1027
1145,13.15472,0,0,0,-2,1,-1022
1146,13.166285,0,-1,0,0,-1,-1021
1147,13.177887,0,0,0,-1,-2,-1027
1148,13.189526,0,0,1,0,-2,-1020
1149,13.201117,0,0,0,-4,3,-1026
1150,13.212688,0,-1,0,2,1,-1028
1151,13.224268,0,0,-1,-1,1,-1026
1152,13.235832,0,0,0,-3,2,-1025
1153,13.247435,1,0,0,-3,1,-1023
1154,13.259029,0,0,0,1,-2,-1030
1155,13.270619,1,0,0,0,-2,-1027
1156,13.282162,0,1,1,-1,0,-1025
1157,13.293724,1,0,0,1,1,-1021
1158,13.305274,0,0,1,-2,-1,-1021
1159,13.316839,0,1,0,3,-1,-1032
1160,13.328407,0,1,0,-4,1,-1024
1161,13.340074,1,0,0,-3,-2,-1027
1162,13.351713,1,0,0,4,1,-1023
1163,13.363296,0,0,0,-2,2,-1026
1164,13.374855,0,0,0,-3,-1,-1025
1165,13.386405,1,-1,0,5,3,-1025
1166,13.397952,0,0,0,1,0,-1024
1167,13.409508,0,0,-1,1,2,-1026
1168,13.421075,0,0,0,-1,1,-1027
1169,13.432625,1,0,0,4,-1,-1024
1170,13.444178,1,0,0,1,-3,-1029
1171,13.455772,1,0,0,0,2,-1030
1172,13.467473,0,0,0,0,0,-1023
1173,13.479132,1,0,0,-3,1,-1025
1174,13.490795,0,0,0,1,0,-1025
1175,13.502454,0,0,-1,-2,-3,-1027
1176,13.514105,0,1,0,2,-1,-1032
1177,13.525759,1,0,-1,-1,-4,-1027
1178,13.537433,1,1,0,1,1,-1024
1179,13.549081,1,0,0,-2,3,-1020
1180,13.560748,1,0,0,-1,-1,-1028
1181,13.572437,0,0,-1,-1,-1,-1032
1182,13.584024,0,0,0,0,2,-1028
1183,13.595583,0,0,0,-2,3,-1021
1184,13.607133,0,0,1,1,-1,-1028
1185,13.618742,0,1,-1,-3,0,-1028
1186,13.630294,1,0,0,-2,-1,-1021
1187,13.641851,0,1,0,-4,-3,-1025
1188,13.653394,1,0,0,0,-1,-1027
1189,13.664992,0,-1,0,3,-3,-1022
1190,13.676613,0,0,0,-1,0,-1024
1191,13.688308,0,0,0,-1,-4,-1023
1192,13.699969,0,1,0,-1,3,-1030
1193,13.71167,1,0,-1,-2,3,-1015
1194,13.723307,0,0,0,-1,2,-1022
1195,13.734946,-1,1,0,0,3,-1029
1196,13.746595,0,0,-1,-3,-2,-1030
1197,13.758277,0,0,-1,1,-3,-1021
1198,13.76993,0,0,-1,-5,0,-1026
1199,13.781564,0,-1,0,-2,0,-1033
1200,13.793124,1,-1,0,4,-2,-1020
1201,13.804665,1,0,0,-1,-1,-1018
1202,13.816243,0,1,0,0,0,-1023
1203,13.827775,0,0,1,3,-1,-1026
1204,13.839302,0,0,0,1,0,-1024
1205,13.850849,0,1,0,-1,3,-1028
1206,13.862401,0,1,1,2,2,-1020
1207,13.874013,0,1,0,-5,2,-1022
1208,13.885693,1,0,0,3,-1,-1023
1209,13.897346,0,0,1,-2,1,-1025
1210,13.90899,0,0,0,1,1,-1027
1211,13.920665,0,0,0,-1,-2,-1029
1212,13.932343,0,0,-1,-6,1,-1027
1213,13.944043,1,0,0,3,0,-1026
1214,13.955717,0,0,0,2,0,-1033
1215,13.967386,0,0,1,0,-4,-1025
1216,13.979126,0,0,0,-1,-1,-1023
1217,13.990802,0,1,0,-1,1,-1029
1218,14.002375,0,1,0,-2,2,-1026
1219,14.013952,0,0,0,0,0,-1026
1220,14.025542,0,0,1,0,3,-1023
1221,14.037113,0,0,0,0,1,-1025
1222,14.048652,0,0,0,-3,5,-1033
1223,14.060206,0,1,0,-3,2,-1024
1224,14.071778,0,0,0,-3,0,-1018
1225,14.083344,0,0,0,-6,-2,-1025
1226,14.094977,1,-1,0,-2,-1,-1025
1227,14.106644,0,-1,0,-2,-3,-1020
1228,14.1183,0,0,0,2,4,-1023
1229,14.129956,0,-1,-1,0,0,-1030
1230,14.141609,-1,-1,0,-4,0,-1023
1231,14.153251,0,0,0,0,2,-1021
1232,14.164957,0,0,0,-1,-2,-1022
1233,14.176634,1,0,0,2,0,-1028
1234,14.188316,1,0,0,-4,1,-1024
1235,14.199994,0,0,0,-1,0,-1027
1236,14.211606,0,0,0,-3,2,-1022
1237,14.223174,0,0,-1,0,2,-1026
1238,14.234744,1,-1,0,1,5,-1026
1239,14.24629,1,0,-1,-1,2,-1025
1240,14.257851,1,-1,0,-3,-2,-1016
1241,14.2694,1,0,0,1,2,-1022
1242,14.280947,1,0,0,2,3,-1025
1243,14.292566,0,0,0,-2,3,-1018
1244,14.304218,0,1,0,1,-3,-1026
1245,14.315908,0,0,0,2,4,-1020
1246,14.327572,0,-1,-1,0,-2,-1025
1247,14.339225,0,0,0,-1,3,-1023
1248,14.350895,0,-1,0,2,4,-1025
1249,14.36254,0,0,0,-1,0,-1027
1250,14.37419,2,0,0,4,-1,-1021
1251,14.385838,1,-1,1,2,2,-1028
1252,14.397545,1,0,1,6,1,-1031
1253,14.409201,0,0,0,0,1,-1025
1254,14.420763,1,-1,-1,1,-1,-1028
1255,14.432354,0,-1,0,0,0,-1023
1256,14.443907,0,-1,0,-2,4,-1020
1257,14.455505,0,0,0,3,0,-1023
1258,14.467039,0,0,0,-2,1,-1029
1259,14.478611,1,0,0,-1,2,-1027
1260,14.49015,0,0,0,-3,0,-1018
1261,14.501705,1,0,-1,-2,2,-1020
1262,14.513322,0,1,0,1,2,-1022
1263,14.524969,1,0,0,-2,0,-1030
1264,14.536617,1,0,0,-1,5,-1019
1265,14.548296,0,0,0,-3,1,-1027
1266,14.559959,0,0,1,-2,3,-1026
1267,14.571632,0,-1,0,-2,-2,-1019
1268,14.583315,0,0,-1,-2,-1,-1021
1269,14.594953,0,0,0,0,2,-1021
1270,14.606618,0,0,0,3,2,-1022
1271,14.618275,0,0,0,2,4,-1029
1272,14.629859,0,0,0,2,2,-1025
1273,14.64142,0,1,0,-1,0,-1031
1274,14.652987,0,-1,0,5,3,-1022
1275,14.664535,0,0,0,-1,2,-1028
1276,14.676096,1,0,0,-2,-2,-1026
1277,14.687662,0,0,-1,0,1,-1026
1278,14.699268,0,-1,0,-1,1,-1021
1279,14.71084,1,0,0,0,3,-1023
1280,14.722466,0,0,0,-2,5,-1018
1281,14.734118,1,1,0,-1,-1,-1032
1282,14.745784,1,0,0,0,-1,-1029
1283,14.757439,0,0,0,0,0,-1027
1284,14.769105,0,-1,0,-2,2,-1026
1285,14.78076,1,0,0,-2,-2,-1022
1286,14.792429,1,0,0,-2,-3,-1023
1287,14.804087,1,0,0,-1,-1,-1024
1288,14.815759,0,0,1,1,-1,-1030
1289,14.827418,0,-1,0,0,-3,-1020
1290,14.83897,0,1,0,-3,0,-1025
1291,14.850516,0,0,0,3,-3,-1024
1292,14.86208,0,1,0,1,-1,-1025
1293,14.873629,0,0,0,1,3,-1022
1294,14.885195,0,0,0,0,0,-1027
1295,14.89674,0,1,0,-2,0,-1029
1296,14.90825,0,0,0,1,-4,-1029
1297,14.91978,0,0,1,1,2,-1034
1298,14.931433,1,1,0,-1,0,-1029
1299,14.943059,1,0,1,2,3,-1028
1300,14.954709,-1,0,-1,4,1,-1022
1301,14.966356,0,-1,-1,2,2,-1030
1302,14.978016,0,0,0,0,1,-1027
1303,14.989669,1,1,0,-1,-2,-1025
1304,15.00131,1,0,0,-1,-4,-1033
1305,15.012957,1,0,0,-3,1,-1031
1306,15.024618,0,0,0,-1,1,-1021
1307,15.036178,0,-1,0,-3,1,-1023
1308,15.047751,0,0,0,-2,3,-1020
1309,15.059297,0,0,0,-4,3,-1020
1310,15.070861,0,0,0,1,0,-1023
1311,15.082411,0,0,0,-1,-3,-1026
1312,15.093983,1,0,0,0,-2,-1028
1313,15.105526,0,0,-1,0,2,-1025
1314,15.117068,0,0,0,0,5,-1026
1315,15.128629,0,0,0,3,0,-1028
1316,15.1403,0,0,0,1,2,-1027
1317,15.15196,0,0,0,0,-4,-1023
1318,15.163642,0,0,0,-2,0,-1022
1319,15.175318,-1,0,0,-2,2,-1021
1320,15.187171,0,0,0,-1,1,-1032
1321,15.198948,1,0,0,1,0,-1027
1322,15.210609,1,0,0,1,-1,-1023
1323,15.222299,0,0,0,0,2,-1029
1324,15.23406,1,1,0,-1,2,-1020
1325,15.245762,0,0,0,0,0,-1026
1326,15.257359,0,0,-1,-4,-2,-1022
1327,15.268914,1,1,0,-1,3,-1023
1328,15.280495,0,0,-1,2,0,-1020
1329,15.292017,1,0,0,2,4,-1022
1330,15.303534,1,0,-1,1,-3,-1024
1331,15.315089,1,0,0,-2,-2,-1025
1332,15.326637,0,0,-1,-5,-2,-1024
1333,15.338196,1,0,-1,0,-1,-1023
1334,15.349818,1,1,0,3,-2,-1030
1335,15.361472,1,1,0,0,0,-1021
1336,15.373146,0,0,0,-1,2,-1027
1337,15.384793,0,-1,0,1,3,-1030
1338,15.39647,0,-1,0,-4,-1,-1026
1339,15.408153,1,0,0,2,1,-1025
1340,15.41982,0,0,0,1,-3,-1023
1341,15.431489,0,-1,0,-1,0,-1027
1342,15.443176,1,0,-1,-1,-1,-1020
1343,15.454768,1,0,0,-1,0,-1025
1344,15.466392,0,0,0,2,2,-1023
1345,15.477978,0,1,0,-2,2,-1022
1346,15.489526,0,1,-1,1,1,-1025
1347,15.501072,0,0,0,2,-2,-1033
1348,15.51266,1,0,-1,-2,4,-1028
1349,15.524245,0,0,0,0,-7,-1023
1350,15.53584,1,0,0,-1,-2,-1025
1351,15.547421,0,0,0,0,-1,-1025
1352,15.559062,0,-1,0,2,2,-1029
1353,15.570726,0,0,0,-1,0,-1026
1354,15.582399,0,0,0,2,4,-1024
1355,15.594047,0,0,0,0,0,-1023
1356,15.605702,0,1,-1,2,1,-1022
1357,15.617346,0,0,0,-3,1,-1029
1358,15.628996,0,0,0,3,5,-1025
1359,15.640668,0,0,0,0,3,-1024
1360,15.652358,0,-1,0,1,-1,-1022
1361,15.664031,0,0,0,-2,-2,-1027
1362,15.675747,0,0,-1,0,2,-1024
1363,15.687432,-1,0,0,1,-4,-1020
1364,15.699096,0,0,-1,-1,5,-1018
1365,15.710768,1,0,0,-3,1,-1028
1366,15.722426,1,-1,-1,5,0,-1024
1367,15.734079,1,0,-1,1,0,-1023
1368,15.745735,0,1,-1,0,3,-1028
1369,15.757329,1,0,0,2,-1,-1029
1370,15.76888,1,1,0,0,-1,-1024
1371,15.780434,0,0,0,-3,0,-1022
1372,15.792009,1,0,0,3,4,-1022
1373,15.803595,0,0,0,-2,2,-1022
1374,15.815167,0,0,0,-2,1,-1024
1375,15.826729,0,0,0,1,4,-1026
1376,15.838271,0,0,0,-1,-3,-1023
1377,15.849825,0,0,0,-3,-2,-1025
1378,15.861442,1,0,0,-4,2,-1021
1379,15.873087,1,0,0,0,0,-1021
1380,15.884767,0,0,1,0,-6,-1022
1381,15.896431,0,0,0,-4,1,-1033
1382,15.90809,1,0,-1,-4,1,-1023
1383,15.919764,0,0,0,1,0,-1027
1384,15.931448,1,-1,0,-3,1,-1029
1385,15.9431,0,0,0,0,2,-1023
1386,15.954771,0,0,0,1,1,-1028
1387,15.966442,0,0,-1,1,0,-1026
1388,15.97801,1,0,0,-2,-1,-1019
1389,15.989587,1,-1,0,2,4,-1025
1390,16.001133,1,0,0,1,0,-1028
1391,16.012683,0,0,0,1,3,-1027
1392,16.024248,0,0,0,-1,1,-1025
1393,16.035774,0,0,0,0,3,-1027
1394,16.047293,0,0,0,-1,4,-1024
1395,16.058853,0,0,0,1,-2,-1027
1396,16.07054,1,0,0,1,1,-1027
1397,16.08221,1,0,0,0,2,-1026
1398,16.09388,0,0,0,-3,-1,-1025
1399,16.105533,0,0,0,-2,-2,-1029
1400,16.11719,0,0,0,1,2,-1018
1401,16.128834,1,-1,0,-5,0,-1028
1402,16.14049,1,-1,0,0,3,-1024
1403,16.152166,0,0,-1,-2,0,-1026
1404,16.16387,0,0,0,0,3,-1018
1405,16.175567,1,0,0,-3,2,-1022
1406,16.187246,0,-1,0,0,2,-1021
1407,16.198909,0,0,-1,-5,1,-1029
1408,16.210557,0,0,0,-4,1,-1028
1409,16.222219,0,0,0,0,1,-1026
1410,16.233878,0,0,0,1,2,-1022
1411,16.245528,0,0,0,0,-4,-1026
1412,16.257214,0,0,0,-1,-1,-1024
1413,16.268897,1,0,-1,2,-1,-1025
1414,16.280598,0,-1,0,3,1,-1032
1415,16.292163,0,0,-1,-2,2,-1022
1416,16.303716,1,0,1,2,6,-1022
1417,16.315287,0,0,0,4,5,-1026
1418,16.326849,0,0,0,1,1,-1030
1419,16.338393,0,0,0,-1,1,-1015
1420,16.349966,1,0,0,-1,-2,-1021
1421,16.361504,1,0,0,-3,2,-1020
1422,16.373053,0,0,0,0,0,-1024
1423,16.384678,1,0,0,-1,0,-1024
1424,16.39644,1,0,0,-1,2,-1029
1425,16.408344,0,0,0,-3,-1,-1023
1426,16.420102,0,0,0,-1,1,-1028
1427,16.431768,1,0,0,0,0,-1024
1428,16.44345,0,0,0,3,1,-1030
1429,16.45513,0,0,-1,-2,-2,-1022
1430,16.466776,0,0,-1,0,2,-1024
1431,16.478421,0,0,-1,-2,-4,-1022
1432,16.490074,0,-1,0,-2,2,-1023
1433,16.501719,0,0,0,4,0,-1023
1434,16.513394,0,0,0,2,2,-1023
1435,16.525037,0,0,0,-1,3,-1027
1436,16.53669,1,0,0,-5,3,-1023
1437,16.548374,0,1,-1,-2,-1,-1022
1438,16.560029,0,1,0,2,4,-1026
1439,16.571703,1,0,-1,1,2,-1030
1440,16.583396,1,-1,0,-2,2,-1027
1441,16.595059,0,0,-1,-3,3,-1026
1442,16.606704,1,-1,0,3,1,-1025
1443,16.618374,0,0,-1,-3,3,-1019
1444,16.630065,0,0,0,-2,4,-1029
1445,16.641718,0,-1,0,-1,3,-1026
1446,16.653391,0,1,0,-3,-1,-1027
1447,16.66505,0,0,-1,1,0,-1019
1448,16.676696,0,0,0,0,0,-1026
1449,16.688367,1,-1,0,2,4,-1020
1450,16.69992,0,0,0,1,-2,-1025
1451,16.711471,0,0,0,-1,-1,-1018
1452,16.723049,0,0,0,-2,-2,-1028
1453,16.734602,1,0,0,0,2,-1027
1454,16.746146,0,0,0,-1,4,-1019
1455,16.75769,0,0,0,3,-2,-1023
1456,16.769236,1,0,0,0,-1,-1019
1457,16.780813,0,1,0,2,5,-1028
1458,16.79239,0,0,0,0,5,-1023
1459,16.804093,1,0,-1,-1,-2,-1030
1460,16.815767,1,1,1,-2,-1,-1024
1461,16.827441,0,0,0,3,2,-1022
1462,16.839117,0,0,-1,-2,4,-1020
1463,16.85077,0,0,0,0,4,-1021
1464,16.86242,0,-1,0,3,2,-1029
1465,16.874069,0,0,-1,-6,1,-1019
1466,16.885737,0,1,0,-4,1,-1026
1467,16.897408,0,0,0,-4,-1,-1027
1468,16.909067,-1,0,-1,-3,-1,-1026
1469,16.920709,1,0,1,0,3,-1028
1470,16.93235,0,0,0,-2,1,-1020
1471,16.944022,0,0,0,0,3,-1017
1472,16.955688,1,1,0,1,-1,-1025
1473,16.967318,1,0,0,2,0,-1024
1474,16.978998,1,-1,0,0,-1,-1022
1475,16.990692,1,0,0,2,2,-1026
1476,17.00239,0,0,-1,-1,1,-1027
1477,17.01395,0,0,1,3,-2,-1026
1478,17.025501,0,0,0,-3,2,-1025
1479,17.037078,0,0,-1,-1,6,-1034
1480,17.048625,0,0,0,-3,0,-1020
1481,17.060212,0,-1,0,0,1,-1030
1482,17.07177,1,0,0,0,4,-1022
1483,17.083287,1,1,0,1,0,-1025
1484,17.094848,1,1,0,-4,2,-1022
1485,17.106466,0,0,1,0,1,-1026
1486,17.11813,0,0,1,-1,-1,-1022
1487,17.129775,0,0,-1,1,2,-1026
1488,17.141424,1,1,0,-1,-3,-1024
1489,17.153088,0,0,0,0,4,-1023
1490,17.164735,0,0,0,-2,-2,-1025
1491,17.17641,0,0,-1,-1,2,-1025
1492,17.188094,0,0,0,2,1,-1026
1493,17.199783,0,-1,0,-2,1,-1032
1494,17.211488,1,0,-1,4,-2,-1021
1495,17.22305,0,0,0,-2,1,-1021
1496,17.234602,1,0,0,-1,-1,-1023
1497,17.246145,0,0,0,0,-2,-1022
1498,17.257688,0,0,0,1,1,-1024
1499,17.269227,0,0,0,-2,0,-1027
1500,17.280802,0,0,0,1,1,-1019
1501,17.292379,1,0,0,1,2,-1023
1502,17.303987,0,0,0,-1,1,-1018
1503,17.315638,0,-1,0,1,0,-1022
1504,17.327314,0,-1,0,-2,1,-1024
1505,17.338953,1,0,0,-2,-1,-1025
1506,17.350634,0,0,0,0,2,-1027
1507,17.362317,0,1,0,1,1,-1024
1508,17.373959,0,-1,0,-3,0,-1023
1509,17.385625,0,1,0,-2,-1,-1024
1510,17.397273,0,0,0,-3,-2,-1019
1511,17.40892,1,1,0,-5,0,-1032
1512,17.420641,0,0,0,2,-3,-1025
1513,17.432222,0,0,0,7,0,-1029
1514,17.443765,0,0,1,2,-4,-1025
1515,17.45534,1,0,-1,2,0,-1024
1516,17.466883,0,0,0,2,1,-1025
1517,17.478429,0,-1,0,-1,-2,-1028
1518,17.489973,0,-1,0,-3,4,-1026
1519,17.501515,0,0,0,-2,-1,-1027
1520,17.513072,1,0,0,1,3,-1018
1521,17.524679,1,0,0,-2,0,-1024
1522,17.536364,0,0,0,2,1,-1022
1523,17.548018,1,0,0,0,0,-1023
1524,17.559704,0,0,0,-1,1,-1026
1525,17.571382,0,1,0,-1,5,-1024
1526,17.583047,0,0,1,0,3,-1028
1527,17.594719,0,0,-1,-4,2,-1022
1528,17.606386,0,0,0,-3,2,-1022
1529,17.618042,0,1,0,-2,2,-1023
1530,17.629715,0,0,0,0,0,-1027
1531,17.6414,1,1,1,-1,0,-1027
1532,17.653048,1,0,0,3,2,-1026
1533,17.66471,0,0,0,2,1,-1027
1534,17.676359,1,0,0,0,2,-1022
1535,17.688018,0,0,0,0,0,-1030
1536,17.699717,1,1,0,-1,-4,-1021
1537,17.711386,0,0,1,-4,0,-1022
1538,17.723083,0,0,1,-2,3,-1027
1539,17.734795,0,0,0,1,1,-1030
1540,17.746441,1,-1,0,1,3,-1024
1541,17.758119,1,0,-1,0,2,-1020
1542,17.769772,0,0,0,2,-3,-1023
1543,17.781427,0,0,0,2,1,-1024
1544,17.793096,1,0,-1,-2,2,-1024
1545,17.80476,1,0,0,-2,-1,-1031
1546,17.816422,1,0,0,1,4,-1024
1547,17.828168,1,0,-1,0,1,-1028
1548,17.839855,0,-1,-1,2,3,-1024
1549,17.851483,1,0,0,-1,0,-1027
1550,17.86305,0,0,-1,1,1,-1030
1551,17.874595,1,-1,1,3,-1,-1032
1552,17.886137,0,0,1,3,2,-1022
1553,17.897687,1,1,1,2,-9,-1021
1554,17.909234,0,0,-1,1,0,-1021
1555,17.920795,0,0,0,0,-1,-1025
1556,17.932393,0,0,-1,0,1,-1026
1557,17.944026,1,0,0,1,0,-1026
1558,17.955727,1,0,1,0,3,-1025
1559,17.96739,1,0,0,-4,1,-1025
1560,17.979066,0,1,1,-3,1,-1016
1561,17.990741,0,0,1,-1,3,-1022
1562,18.002383,0,1,0,0,2,-1021
1563,18.014027,0,1,0,-2,0,-1029
1564,18.025683,0,0,0,0,-2,-1023
1565,18.037417,0,0,0,-1,-2,-1021
1566,18.049093,1,0,0,1,3,-1029
1567,18.06065,0,-1,0,-2,2,-1022
1568,18.072205,0,0,0,3,1,-1024
1569,18.083773,1,0,0,-1,1,-1023
1570,18.09529,1,-1,0,1,1,-1022
1571,18.106864,0,-1,0,0,2,-1025
1572,18.118449,0,-1,0,-1,-4,-1022
1573,18.129988,0,-1,-1,-1,-1,-1029
1574,18.14156,0,-1,0,-1,2,-1018
1575,18.153176,0,-1,0,-1,-4,-1028
1576,18.167003,1,-1,1,-1,3,-1020
1577,18.178709,1,-1,1,-1,1,-1025
1578,18.190382,0,0,0,3,1,-1027
1579,18.202032,0,0,0,-1,2,-1024
1580,18.213685,0,-1,0,1,1,-1025
1581,18.225332,0,0,0,0,2,-1026
1582,18.236988,0,0,0,2,-4,-1025
1583,18.248664,0,1,0,-5,4,-1023
1584,18.260356,0,0,-1,0,-2,-1028
1585,18.27191,0,0,0,-5,-2,-1020
1586,18.283469,1,0,-1,-2,2,-1022
1587,18.295051,0,0,-1,3,3,-1020
1588,18.306606,0,0,0,-2,2,-1020
1589,18.318154,1,0,0,2,-1,-1025
1590,18.329706,1,0,0,-1,0,-1027
1591,18.341262,0,0,0,0,1,-1026
1592,18.352823,1,0,0,-1,-2,-1017
1593,18.364532,1,-1,0,2,-3,-1014
1594,18.376215,2,0,0,-1,-2,-1023
1595,18.387892,0,0,0,-1,-1,-1025
1596,18.399561,0,0,0,-1,-1,-1024
1597,18.411218,0,0,0,5,-2,-1030
1598,18.422887,0,0,-1,-1,-1,-1027
1599,18.434536,0,0,-1,3,3,-1021
1600,18.446185,1,0,-1,1,4,-1020
1601,18.457867,0,0,0,1,-3,-1023
1602,18.469523,0,-1,0,0,3,-1028
1603,18.481121,1,0,0,1,3,-1026
1604,18.492678,0,0,0,7,-2,-1020
1605,18.504255,0,-1,-1,-4,2,-1026
1606,18.515774,0,0,-1,2,0,-1016
1607,18.52729,0,1,0,2,-2,-1027
1608,18.538835,0,0,0,-1,0,-1019
1609,18.550375,0,0,0,1,1,-1028
1610,18.561932,0,0,-1,-2,2,-1026
1611,18.573549,0,0,0,-1,3,-1028
1612,18.585192,0,0,-1,0,0,-1030
1613,18.596842,0,0,0,-2,5,-1022
1614,18.608514,1,0,0,5,0,-1023
1615,18.62016,1,0,0,-1,1,-1018
1616,18.631861,1,0,0,2,0,-1022
1617,18.643572,0,0,0,-2,-2,-1022
1618,18.655226,0,-1,0,-1,0,-1027
1619,18.666904,0,0,-1,-2,-4,-1025
1620,18.678563,0,1,-1,2,-1,-1022
1621,18.690113,0,-1,1,1,-2,-1025
1622,18.701655,0,0,-1,0,-1,-1023
1623,18.713202,0,0,0,1,6,-1026
1624,18.724756,0,0,-1,3,2,-1028
1625,18.736326,0,0,0,0,1,-1022
1626,18.747896,1,0,0,-1,2,-1028
1627,18.759463,0,0,-1,2,4,-1024
1628,18.771036,0,0,-1,-1,0,-1029
1629,18.782702,0,1,0,0,0,-1028
1630,18.79437,0,0,0,2,-4,-1026
1631,18.80602,0,0,0,0,0,-1022
1632,18.817672,0,0,0,-4,-1,-1023
1633,18.829336,0,0,0,2,3,-1024
1634,18.840995,0,0,0,4,-3,-1018
1635,18.852672,-1,0,-1,-1,2,-1020
1636,18.864364,0,0,0,-1,1,-1026
1637,18.87607,0,-1,-1,-1,4,-1025
1638,18.887647,0,0,-1,2,1,-1020
1639,18.899208,0,1,-1,2,0,-1026
1640,18.910776,1,0,-1,1,2,-1025
1641,18.92233,1,0,0,1,-3,-1026
1642,18.933899,0,1,0,-1,1,-1021
1643,18.945473,1,0,0,1,-2,-1024
1644,18.957044,0,0,0,2,-1,-1028
1645,18.968585,0,0,0,2,-1,-1022
1646,18.980213,0,0,0,1,-1,-1033
1647,18.991877,0,0,0,1,-1,-1026
1648,19.003603,0,0,-1,-4,0,-1027
1649,19.015289,0,-1,0,3,2,-1024
1650,19.026935,0,0,0,-3,-2,-1028
1651,19.038586,1,0,0,2,0,-1027
1652,19.050259,0,0,0,-2,-1,-1021
1653,19.061919,0,0,0,-2,2,-1026
1654,19.073607,0,-1,0,3,0,-1023
1655,19.085276,0,0,0,7,-2,-1028
1656,19.096846,0,0,-1,2,3,-1021
1657,19.108399,0,0,0,-1,1,-1024
1658,19.119952,0,0,0,0,2,-1022
1659,19.131541,0,0,0,-1,1,-1023
1660,19.143094,1,-1,0,-1,3,-1027
1661,19.154663,1,-1,1,2,-2,-1026
1662,19.166206,0,0,0,0,2,-1023
1663,19.177756,0,0,0,1,-1,-1028
1664,19.189384,0,0,0,-4,-3,-1024
1665,19.201026,0,0,0,-1,2,-1020
1666,19.212674,1,-1,-1,0,2,-1025
1667,19.224384,1,0,0,0,-1,-1024
1668,19.236062,1,0,1,-4,2,-1019
1669,19.247731,0,0,0,1,-2,-1029
1670,19.259391,0,0,0,2,4,-1027
1671,19.271051,0,1,0,-1,2,-1021
1672,19.282694,0,0,-1,1,1,-1030
1673,19.294312,0,0,-1,1,2,-1026
1674,19.305877,0,0,0,-1,0,-1025
1675,19.317439,1,-1,0,-2,3,-1019
1676,19.329002,0,0,0,-2,0,-1028
1677,19.340569,0,0,0,1,-2,-1028
1678,19.352138,0,0,0,3,1,-1029
1679,19.363699,1,1,0,-2,2,-1022
1680,19.375269,0,1,0,1,2,-1021
1681,19.38683,1,0,-1,-1,-5,-1023
1682,19.398501,0,-1,-1,1,-1,-1025
1683,19.41016,-1,0,0,4,2,-1021
1684,19.42184,-1,0,1,1,1,-1025
1685,19.433501,0,0,0,-4,2,-1026
1686,19.44515,0,0,0,0,1,-1025
1687,19.456802,0,0,-1,-1,2,-1024
1688,19.46851,1,0,-1,1,3,-1032
1689,19.480156,0,1,0,-2,2,-1022
1690,19.491841,0,0,0,0,-2,-1030
1691,19.503409,1,0,0,-1,-2,-1027
1692,19.514958,1,0,-1,-4,-2,-1027
1693,19.526523,1,0,0,1,-1,-1026
1694,19.538072,0,-1,0,-1,-1,-1031
1695,19.549638,0,0,0,-2,0,-1022
1696,19.561198,0,1,0,-2,-4,-1024
1697,19.57276,0,1,0,-3,2,-1029
1698,19.584315,0,0,-1,0,-1,-1026
1699,19.59595,0,0,0,0,-6,-1028
1700,19.607608,0,0,1,2,1,-1027
1701,19.619313,0,0,0,2,2,-1020
1702,19.630967,0,-1,0,1,2,-1025
1703,19.642631,1,0,0,4,2,-1030
1704,19.654283,1,0,1,0,-2,-1023
1705,19.665924,0,1,0,2,-4,-1036
1706,19.677591,1,1,-1,0,-2,-1022
1707,19.689249,0,0,-1,-5,-2,-1021
1708,19.700902,1,-1,1,1,-2,-1024
1709,19.712613,1,0,0,0,1,-1027
1710,19.7242,1,1,0,-1,1,-1024
1711,19.735771,0,0,0,-2,-1,-1022
1712,19.747289,0,0,0,-1,3,-1020
1713,19.758828,0,0,-1,1,-1,-1027
1714,19.770361,1,-1,1,0,-1,-1031
1715,19.781909,0,-1,0,-1,3,-1032
1716,19.793451,1,-1,0,-3,1,-1020
1717,19.805013,0,0,-1,-3,1,-1022
1718,19.816643,0,0,0,3,1,-1026
1719,19.828352,0,1,0,-4,2,-1027
1720,19.84002,0,-1,0,-1,-1,-1026
1721,19.851732,0,0,0,4,2,-1020
1722,19.863382,0,0,0,-1,3,-1027
1723,19.875046,0,0,0,1,0,-1022
1724,19.886716,1,0,0,1,-2,-1024
1725,19.898369,0,1,-1,-1,-3,-1022
1726,19.910016,0,0,0,1,0,-1025
1727,19.921591,0,0,-1,-1,-1,-1031
1728,19.933137,0,0,-1,-2,0,-1025
1729,19.944686,0,0,0,-1,1,-1028
1730,19.956265,0,1,0,0,3,-1025
1731,19.967848,0,1,1,-1,-3,-1026
1732,19.979462,0,0,-1,-2,1,-1026
1733,19.991048,0,0,0,1,-4,-1019
1734,20.002591,1,0,0,0,1,-1026
1735,20.014152,1,0,0,0,-3,-1022
1736,20.02577,1,0,-1,-3,3,-1021
1737,20.037414,0,0,0,0,-3,-1028
1738,20.049058,0,0,0,0,2,-1027
1739,20.060732,0,-1,0,1,1,-1027
1740,20.072385,1,0,0,2,3,-1026
1741,20.084084,1,1,0,1,2,-1024
1742,20.095747,0,0,0,-3,0,-1028
1743,20.107463,0,0,0,-2,1,-1027
1744,20.119145,1,-1,0,-3,-2,-1028
1745,20.130806,0,0,0,-1,-1,-1023
1746,20.142369,1,1,-1,-4,3,-1028
1747,20.153947,0,0,0,2,0,-1029
1748,20.165497,1,0,0,-2,1,-1021
1749,20.177063,0,0,0,-2,-3,-1026
1750,20.188605,1,0,0,3,3,-1025
1751,20.200164,1,0,-1,3,-2,-1024
1752,20.211717,0,1,1,-1,-1,-1019
1753,20.223293,1,-1,1,-1,-2,-1019
1754,20.234914,0,0,0,1,1,-1026
1755,20.246569,0,-1,0,-1,-2,-1025
1756,20.258243,1,0,0,0,-1,-1028
1757,20.269881,0,0,0,-2,1,-1021
1758,20.28153,0,0,0,4,1,-1026
1759,20.293202,1,0,0,1,1,-1028
1760,20.304857,0,0,0,2,2,-1026
1761,20.316509,0,1,0,1,0,-1022
1762,20.328175,0,0,0,-1,2,-1024
1763,20.339884,0,0,0,-2,-2,-1021
1764,20.35158,1,0,0,1,1,-1024
1765,20.363245,0,-1,0,2,0,-1024
1766,20.374886,0,-1,0,-2,-1,-1030
1767,20.386534,0,0,0,-3,1,-1023
1768,20.398202,1,0,-1,0,3,-1022
1769,20.409848,0,0,0,0,1,-1023
1770,20.4215,0,1,1,5,0,-1022
1771,20.433215,0,0,0,-1,3,-1025
1772,20.444897,0,0,0,0,-1,-1026
1773,20.456503,1,0,0,-1,-1,-1028
1774,20.468068,1,0,0,3,2,-1021
1775,20.479646,0,0,-1,-5,0,-1021
1776,20.4912,0,0,-1,0,-1,-1022
1777,20.502755,0,0,-1,0,2,-1022
1778,20.514314,0,-1,0,0,-1,-1029
1779,20.525861,0,0,-1,-2,-2,-1029
1780,20.537422,0,0,1,1,-2,-1020
1781,20.549064,0,-1,0,2,-2,-1027
1782,20.560724,0,0,0,1,-1,-1025
1783,20.572391,0,0,0,3,2,-1029
1784,20.584076,0,0,0,-3,0,-1018
1785,20.595742,0,-1,0,-2,-3,-1033
1786,20.607424,1,0,0,1,-1,-1031
1787,20.619104,0,1,0,-2,-2,-1025
1788,20.630753,0,-1,-1,-4,0,-1031
1789,20.642424,0,-1,0,2,1,-1020
1790,20.654085,0,0,0,-5,-3,-1025
1791,20.665639,0,-1,0,-4,3,-1025
1792,20.677191,0,0,0,4,-2,-1029
1793,20.688758,0,0,-1,4,2,-1026
1794,20.700313,0,0,1,0,3,-1024
1795,20.711957,1,0,0,2,0,-1023
1796,20.723539,1,0,0,-4,5,-1025
1797,20.735049,0,0,0,0,3,-1025
1798,20.746602,0,-1,0,5,-3,-1029
1799,20.758236,0,0,-1,2,1,-1023
1800,20.769879,0,0,0,-2,2,-1029
1801,20.781526,0,0,0,-3,-2,-1030
1802,20.793199,1,0,0,2,-1,-1022
1803,20.804853,1,1,0,-4,1,-1026
1804,20.816505,1,0,0,-2,-1,-1025
1805,20.82818,0,0,1,1,4,-1027
1806,20.839846,1,0,0,1,2,-1028
1807,20.851499,1,0,0,-2,4,-1027
1808,20.863037,1,1,0,-4,1,-1026
1809,20.87459,1,0,0,2,1,-1026
1810,20.886187,0,0,0,-3,3,-1026
1811,20.897739,0,0,0,-1,1,-1026
1812,20.9093,1,0,0,-4,0,-1027
1813,20.920839,1,0,0,0,1,-1022
1814,20.932403,1,0,1,-1,0,-1030
1815,20.943953,1,0,0,-1,-3,-1028
1816,20.955564,0,-1,0,-1,0,-1020
1817,20.967229,0,-1,-1,2,1,-1023
1818,20.978886,1,0,0,1,1,-1024
1819,20.990525,0,0,0,2,-1,-1026
1820,21.002169,1,0,1,-3,3,-1027
1821,21.013839,1,-1,0,-3,5,-1026
1822,21.025482,1,-1,1,-2,2,-1024
1823,21.037127,0,0,0,0,-1,-1028
1824,21.048776,0,1,0,1,1,-1028
1825,21.060509,0,1,1,-1,3,-1020
1826,21.072159,0,0,0,1,4,-1025
1827,21.083869,0,1,0,-1,3,-1030
1828,21.095526,0,0,0,1,4,-1025
1829,21.107209,0,-1,0,-1,1,-1017
1830,21.118867,0,0,0,-5,1,-1034
1831,21.130512,1,0,-1,1,-2,-1024
1832,21.142162,0,0,0,1,-4,-1026
1833,21.153808,0,0,0,0,-1,-1025
1834,21.16538,0,-1,0,2,-1,-1028
1835,21.177037,0,0,0,-1,-2,-1030
1836,21.188767,1,0,-1,0,2,-1027
1837,21.200385,0,0,0,2,2,-1026
1838,21.211944,0,0,0,2,0,-1027
1839,21.223522,0,-1,0,-1,3,-1022
1840,21.23505,0,0,0,2,4,-1023
1841,21.246597,0,0,0,5,-1,-1027
1842,21.258153,0,-1,0,-1,1,-1025
1843,21.269706,0,0,0,0,-1,-1025
1844,21.281285,0,-1,0,0,3,-1020
1845,21.292839,0,0,0,-2,2,-1025
1846,21.304419,0,0,0,2,-4,-1019
1847,21.315989,1,-1,0,-3,1,-1020
1848,21.327535,0,-1,0,-1,2,-1023
1849,21.339087,0,0,0,0,-3,-1027
1850,21.350634,1,0,0,-4,2,-1026
1851,21.362209,0,0,0,-2,1,-1028
1852,21.373999,1,0,-1,0,0,-1023
1853,21.385668,0,0,0,3,-1,-1018
1854,21.397347,0,0,-1,0,-1,-1023
1855,21.409006,0,0,0,-5,3,-1021
1856,21.42065,1,0,0,0,1,-1032
1857,21.432364,0,-1,0,0,-1,-1024
1858,21.444075,0,-1,0,2,1,-1027
1859,21.455747,1,0,0,-1,-1,-1022
1860,21.467458,0,0,-1,-3,-1,-1025
1861,21.479033,0,0,0,-6,-3,-1019
1862,21.490592,0,0,0,-4,4,-1020
1863,21.502182,0,0,0,-2,4,-1025
1864,21.513731,0,1,0,0,1,-1020
1865,21.525293,1,-1,0,0,0,-1023
1866,21.536834,0,0,0,2,-1,-1023
1867,21.548393,0,-1,0,0,3,-1024
1868,21.559944,0,-1,-1,-4,0,-1027
1869,21.571563,0,-1,0,-1,2,-1024
1870,21.583245,1,0,-1,2,0,-1023
1871,21.594948,0,0,0,-2,-2,-1020
1872,21.606611,-1,-1,1,1,1,-1024
1873,21.618268,1,1,0,-2,1,-1023
1874,21.629919,0,0,0,-3,-1,-1026
1875,21.641588,0,-1,0,3,-1,-1025
1876,21.65324,0,-1,0,1,-2,-1026
1877,21.664892,0,0,0,-3,0,-1028
1878,21.676605,0,1,0,1,-4,-1027
1879,21.688178,0,0,-1,3,2,-1026
1880,21.699748,0,0,-1,1,3,-1030
1881,21.711296,0,0,-1,-2,0,-1024
1882,21.722842,1,0,-1,-3,2,-1025
1883,21.734389,0,-1,0,0,-2,-1025
1884,21.745933,0,0,-1,2,0,-1027
1885,21.757505,0,0,0,2,0,-1020
1886,21.769069,0,0,-1,-1,-1,-1031
1887,21.780718,1,0,0,0,0,-1022
1888,21.792356,-1,0,1,-2,2,-1022
1889,21.80401,0,0,0,2,1,-1024
1890,21.815729,1,0,0,1,4,-1024
1891,21.827388,1,0,0,5,-1,-1025
1892,21.839051,1,0,-1,-2,0,-1025
1893,21.850706,0,0,0,3,1,-1027
1894,21.862362,1,0,0,1,0,-1026
1895,21.874005,0,1,0,1,1,-1024
1896,21.885573,1,1,0,-5,2,-1027
1897,21.897121,1,1,0,0,1,-1023
1898,21.908664,1,0,1,-4,-1,-1025
1899,21.920256,0,1,0,1,-1,-1023
1900,21.93181,0,1,0,-1,-3,-1032
1901,21.943359,0,0,0,2,-2,-1017
1902,21.954917,1,0,0,0,-2,-1023
1903,21.966456,0,0,0,-3,-1,-1017
1904,21.978009,0,0,0,-4,2,-1024
1905,21.989631,1,0,0,1,-1,-1024
1906,22.001276,1,0,-1,-1,-1,-1025
1907,22.012962,0,-1,0,-2,1,-1027
1908,22.02462,0,0,0,1,1,-1020
1909,22.036273,0,0,0,-1,1,-1025
1910,22.047957,1,1,0,-3,-1,-1018
1911,22.059618,1,0,0,-5,0,-1018
1912,22.071297,0,0,-1,4,-1,-1023
1913,22.08299,0,0,0,0,0,-1024
1914,22.094653,1,1,0,-4,0,-1025
1915,22.106208,1,1,0,1,1,-1029
1916,22.117751,0,0,0,2,3,-1022
1917,22.129301,0,0,0,-4,-1,-1025
1918,22.140853,0,0,0,0,1,-1025
1919,22.152421,0,0,0,3,1,-1024
1920,22.163995,1,0,0,-2,1,-1026
1921,22.175541,0,0,0,-3,2,-1024
1922,22.187081,0,0,-1,1,3,-1029
1923,22.198703,0,0,-1,-1,4,-1021
1924,22.210361,0,0,0,-1,0,-1023
1925,22.222007,1,0,0,-2,-1,-1024
1926,22.233674,0,0,0,0,-2,-1015
1927,22.245325,0,0,0,0,-1,-1022
1928,22.256979,1,1,0,-1,3,-1021
1929,22.26863,1,0,0,-1,-2,-1022
1930,22.280275,1,0,0,1,3,-1022
1931,22.291976,1,1,-1,-6,0,-1015
1932,22.303632,1,0,0,4,1,-1025
1933,22.315197,0,0,0,-1,2,-1026
1934,22.326754,0,0,0,-2,-3,-1028
1935,22.338305,1,1,-1,-1,2,-1025
1936,22.349851,1,0,0,-2,2,-1023
1937,22.361397,0,-1,0,-6,-2,-1021
1938,22.372949,0,-1,0,4,0,-1028
1939,22.384523,1,0,0,-2,5,-1026
1940,22.396199,1,0,0,1,1,-1025
1941,22.407845,0,0,0,0,2,-1023
1942,22.419517,1,0,-1,-1,-1,-1028
1943,22.43119,0,0,0,4,-1,-1027
1944,22.442858,0,0,0,-1,-1,-1025
1945,22.454517,0,0,0,0,2,-1022
1946,22.46617,-1,-1,0,1,-1,-1024
1947,22.477846,1,0,0,0,2,-1027
1948,22.489497,1,1,1,3,0,-1025
1949,22.501151,0,0,0,0,2,-1025
1950,22.512826,0,0,0,1,-2,-1021
1951,22.524391,1,0,0,-2,6,-1018
1952,22.535952,0,0,-1,2,5,-1022
1953,22.547544,1,0,0,2,-1,-1022
1954,22.559122,1,0,0,0,-1,-1017
1955,22.570686,0,0,0,-2,-1,-1031
1956,22.582233,0,0,0,2,-7,-1023
1957,22.593792,0,0,0,0,1,-1022
1958,22.605348,1,0,1,4,3,-1027
1959,22.61697,1,0,0,-1,-1,-1026
1960,22.628623,1,0,0,-3,-2,-1024
1961,22.640289,0,0,0,-1,1,-1023
1962,22.651965,0,0,0,1,2,-1025
1963,22.663625,0,0,-1,-2,1,-1023
1964,22.675302,0,-2,0,0,5,-1022
1965,22.686956,0,-1,0,3,0,-1023
1966,22.698606,1,0,0,-3,4,-1026
1967,22.710261,1,0,0,-2,3,-1022
1968,22.72192,0,0,0,-4,1,-1028
1969,22.733478,1,0,-1,5,-2,-1019
1970,22.745025,0,0,-2,2,1,-1013
1971,22.756581,1,0,0,-1,0,-1025
1972,22.768167,0,0,0,-1,1,-1019
1973,22.779716,0,0,0,0,-1,-1023
1974,22.791292,1,0,0,0,-6,-1022
1975,22.802831,1,0,0,2,3,-1026
1976,22.814383,1,0,0,-1,0,-1025
1977,22.826004,0,0,0,-3,-5,-1026
1978,22.837661,0,0,0,-1,2,-1024
1979,22.849334,0,0,0,0,-1,-1022
1980,22.86099,0,0,0,-2,0,-1017
1981,22.872637,0,0,0,-3,7,-1025
1982,22.884349,0,0,0,-2,-4,-1026
1983,22.896015,0,0,0,-5,1,-1020
1984,22.907707,0,0,0,-1,-5,-1026
1985,22.919371,0,0,0,-1,0,-1029
1986,22.931057,0,-1,0,1,6,-1025
1987,22.942621,1,0,-1,-4,3,-1023
1988,22.954177,-1,-1,1,-4,-4,-1022
1989,22.965731,0,0,0,2,-5,-1027
1990,22.977295,0,0,0,-2,2,-1025
1991,22.988885,0,0,0,0,-3,-1029
1992,23.000443,1,0,0,1,2,-1023
1993,23.012038,1,0,0,1,5,-1018
1994,23.023599,0,0,0,-2,1,-1022
1995,23.035231,0,1,1,-1,3,-1028
1996,23.046878,0,0,0,1,-1,-1022
1997,23.058581,0,0,1,0,-1,-1027
1998,23.070236,0,1,0,1,-3,-1020
1999,23.081878,0,1,0,-3,1,-1024
