sample,t_s,gyro_x,gyro_y,gyro_z,accel_x,accel_y,accel_z
0,1.1e-05,5,9,10,9,24,-1018
1,0.011338,2,7,8,12,27,-1022
2,0.022542,2,5,9,9,27,-1026
3,0.03373,2,6,8,10,26,-1021
4,0.044922,2,7,8,14,25,-1018
5,0.056107,3,7,9,11,25,-1024
6,0.06729,3,8,8,11,31,-1022
7,0.07847,2,7,8,9,24,-1019
8,0.089655,2,6,9,14,25,-1018
9,0.100847,2,6,8,12,27,-1018
10,0.11205,2,7,8,10,25,-1016
11,0.123233,2,6,9,11,23,-1022
12,0.134416,3,6,10,13,22,-1027
13,0.145601,2,6,9,13,24,-1014
14,0.156786,2,7,9,12,23,-1021
15,0.167968,3,8,9,11,27,-1023
16,0.179148,2,7,9,12,24,-1022
17,0.190333,2,7,10,10,23,-1027
18,0.201515,2,6,9,14,25,-1025
19,0.212706,2,7,8,13,28,-1025
20,0.223895,2,7,9,12,26,-1022
21,0.235075,2,6,9,11,23,-1022
22,0.246253,2,6,9,17,25,-1017
23,0.257451,3,6,10,16,26,-1020
24,0.268599,3,7,9,14,24,-1024
25,0.279789,3,7,9,15,27,-1022
26,0.290974,3,7,9,13,22,-1020
27,0.302157,2,5,9,11,25,-1023
28,0.313341,2,6,8,13,24,-1025
29,0.324536,3,7,9,13,28,-1024
30,0.335721,2,6,10,13,25,-1013
31,0.346909,2,6,10,11,28,-1024
32,0.358094,2,6,9,12,26,-1027
33,0.369288,3,5,9,11,22,-1020
34,0.380475,1,3,10,12,24,-1016
35,0.391663,2,5,9,11,24,-1014
36,0.402848,2,5,9,10,25,-1020
37,0.414045,2,5,9,14,23,-1024
38,0.425227,2,7,9,17,25,-1020
39,0.436414,2,6,8,13,23,-1020
40,0.447606,2,6,9,10,24,-1022
41,0.4588,2,7,9,14,25,-1018
42,0.469982,2,8,9,12,27,-1016
43,0.481165,3,7,8,16,25,-1017
44,0.492351,2,8,9,13,23,-1023
45,0.503532,2,7,9,17,22,-1027
46,0.514717,2,6,9,12,25,-1023
47,0.525905,3,6,9,9,22,-1017
48,0.537102,2,7,9,10,27,-1018
49,0.548292,3,7,9,16,26,-1019
50,0.559477,2,6,9,10,24,-1017
51,0.570667,2,6,10,14,26,-1021
52,0.581851,2,6,9,14,23,-1016
53,0.59304,2,5,10,14,28,-1027
54,0.604232,2,6,9,14,26,-1021
55,0.615416,3,5,8,11,26,-1024
56,0.626599,2,6,8,13,23,-1026
57,0.637785,2,6,9,11,29,-1027
58,0.648973,2,5,9,16,26,-1017
59,0.660166,3,6,9,16,27,-1023
60,0.671348,2,6,9,10,27,-1022
61,0.68253,3,6,9,10,26,-1026
62,0.693715,2,5,9,10,26,-1014
63,0.704902,1,5,9,12,26,-1025
64,0.716046,2,6,9,11,28,-1022
65,0.727235,2,6,9,13,24,-1025
66,0.738416,2,5,9,15,28,-1024
67,0.749601,2,5,9,13,25,-1023
68,0.760783,2,6,9,11,24,-1022
69,0.77198,3,7,9,12,27,-1018
70,0.783163,2,7,9,13,26,-1024
71,0.794343,1,5,8,17,29,-1020
72,0.805535,2,5,9,13,23,-1018
73,0.81672,2,5,9,13,24,-1021
74,0.827902,2,5,9,17,23,-1022
75,0.839086,3,5,9,10,23,-1025
76,0.850269,2,6,10,15,23,-1016
77,0.861459,2,7,9,11,25,-1024
78,0.872602,2,7,9,10,25,-1015
79,0.88378,2,7,8,10,25,-1020
80,0.894968,2,7,9,12,24,-1025
81,0.90615,3,7,9,12,27,-1019
82,0.917334,2,8,8,13,26,-1022
83,0.928531,2,7,9,16,24,-1015
84,0.939716,3,7,9,14,28,-1027
85,0.950907,3,6,9,11,31,-1016
86,0.962088,3,6,9,12,24,-1030
87,0.97329,2,6,9,11,26,-1020
88,0.984477,2,5,9,11,26,-1025
89,0.995658,2,5,8,12,26,-1020
90,1.006844,2,5,8,10,23,-1021
91,1.018028,2,4,9,9,22,-1024
92,1.029215,2,5,9,12,27,-1026
93,1.040419,2,7,8,14,22,-1020
94,1.051598,2,6,8,13,27,-1022
95,1.062781,3,7,8,16,25,-1021
96,1.073972,3,6,9,12,25,-1020
97,1.085157,3,8,9,13,25,-1025
98,1.096344,2,6,9,11,24,-1024
99,1.107527,2,7,9,14,26,-1020
100,1.118712,3,6,8,13,22,-1015
101,1.129905,2,6,8,11,28,-1021
102,1.14113,2,6,9,11,24,-1025
103,1.152322,2,7,10,15,29,-1023
104,1.163512,3,6,10,18,28,-1019
105,1.174697,1,5,10,13,28,-1021
106,1.185883,2,5,9,13,26,-1025
107,1.197089,2,5,9,11,27,-1024
108,1.208229,2,6,9,16,25,-1022
109,1.219415,2,4,9,18,27,-1021
110,1.230599,2,5,10,15,27,-1020
111,1.241785,2,6,9,13,27,-1015
112,1.252973,2,6,10,13,23,-1016
113,1.264158,2,6,9,12,25,-1024
114,1.27534,2,4,10,14,25,-1027
115,1.286523,1,5,9,11,26,-1026
116,1.297707,2,6,10,12,28,-1023
117,1.308898,2,5,9,12,29,-1021
118,1.320045,1,6,9,7,27,-1015
119,1.331228,2,5,9,13,27,-1019
120,1.342408,2,6,9,13,27,-1021
121,1.353595,2,7,9,12,33,-1021
122,1.364785,2,6,9,11,24,-1017
123,1.375966,3,5,10,11,24,-1020
124,1.38715,2,7,10,9,27,-1016
125,1.398332,2,7,9,14,23,-1028
126,1.409516,3,7,9,6,30,-1023
127,1.420721,1,7,9,9,22,-1029
128,1.431906,2,6,8,10,23,-1025
129,1.443099,2,5,8,14,26,-1019
130,1.454286,2,6,8,15,24,-1013
131,1.465472,3,6,9,11,27,-1023
132,1.476664,2,6,9,10,26,-1030
133,1.487866,2,7,10,15,23,-1019
134,1.499079,3,7,9,12,27,-1024
135,1.510268,3,6,9,11,28,-1023
136,1.521465,2,5,9,12,24,-1020
137,1.532651,2,5,9,14,29,-1017
138,1.543835,2,5,9,11,28,-1019
139,1.555033,2,4,8,11,30,-1020
140,1.566216,2,6,8,12,23,-1018
141,1.577404,2,7,9,11,22,-1026
142,1.588602,2,7,9,13,22,-1021
143,1.599783,3,7,9,11,22,-1020
144,1.61097,2,7,9,10,24,-1024
145,1.622149,2,7,9,13,26,-1021
146,1.633339,3,6,8,9,24,-1021
147,1.644525,2,6,8,11,27,-1024
148,1.655717,2,8,9,15,24,-1023
149,1.666907,2,7,9,11,23,-1018
150,1.678105,2,6,9,11,26,-1021
151,1.689286,2,7,9,12,32,-1023
152,1.700473,2,7,9,14,27,-1026
153,1.711653,2,5,9,12,27,-1022
154,1.722843,3,6,10,15,24,-1019
155,1.734025,2,7,9,14,27,-1019
156,1.745213,2,6,9,12,24,-1028
157,1.756409,3,5,9,13,28,-1024
158,1.767587,2,5,8,11,23,-1030
159,1.778772,2,6,9,9,25,-1023
160,1.789973,2,5,9,17,25,-1022
161,1.801159,2,6,9,15,27,-1026
162,1.812347,3,7,9,15,27,-1020
163,1.82353,3,7,8,13,32,-1023
164,1.834721,3,6,8,15,29,-1024
165,1.845915,2,6,10,15,25,-1018
166,1.857104,2,7,9,13,30,-1024
167,1.86829,2,6,9,14,25,-1024
168,1.879473,2,5,9,13,26,-1022
169,1.890658,2,8,9,17,29,-1021
170,1.901841,2,7,9,11,26,-1020
171,1.913029,2,7,10,10,28,-1018
172,1.924225,3,6,9,14,25,-1024
173,1.935409,2,5,9,12,28,-1020
174,1.946588,2,5,10,10,24,-1023
175,1.957774,2,6,9,13,27,-1023
176,1.968967,2,5,9,10,25,-1020
177,1.980158,2,5,10,11,23,-1022
178,1.99134,2,6,9,14,27,-1019
179,2.00252,2,7,9,13,30,-1021
180,2.013705,2,6,10,12,30,-1024
181,2.0249,1,5,9,14,27,-1022
182,2.036045,2,6,9,13,25,-1026
183,2.047228,2,5,9,15,26,-1028
184,2.058409,2,6,9,9,26,-1018
185,2.069593,2,6,8,13,26,-1024
186,2.080789,2,5,9,6,29,-1025
187,2.091971,2,5,9,14,24,-1018
188,2.103155,2,5,9,16,25,-1026
189,2.114339,2,5,9,11,23,-1024
190,2.125523,3,5,9,15,26,-1022
191,2.136722,2,5,9,13,24,-1027
192,2.147906,1,5,8,12,24,-1018
193,2.159093,2,7,8,11,27,-1020
194,2.170277,3,6,8,12,23,-1020
195,2.181465,2,6,9,10,26,-1021
196,2.192652,2,5,9,13,25,-1021
197,2.20385,3,5,8,9,24,-1020
198,2.215044,2,5,9,12,25,-1026
199,2.226524,3,6,9,12,23,-1027
200,2.238116,2,6,10,14,30,-1024
201,2.249675,2,6,9,11,25,-1021
202,2.261248,3,6,8,14,25,-1019
203,2.272803,3,6,9,13,22,-1030
204,2.284324,2,6,8,12,29,-1020
205,2.29587,2,6,10,12,25,-1016
206,2.307415,2,6,9,17,27,-1020
207,2.318992,2,6,9,13,24,-1023
208,2.330692,2,7,9,15,26,-1020
209,2.342364,2,6,9,15,25,-1027
210,2.354038,3,6,10,9,25,-1019
211,2.365688,2,5,9,13,29,-1024
212,2.377418,3,6,10,15,22,-1018
213,2.389096,2,5,9,13,21,-1020
214,2.400797,3,5,9,17,24,-1029
215,2.412473,2,6,9,11,27,-1028
216,2.424168,2,6,9,11,25,-1018
217,2.435834,2,6,9,9,26,-1015
218,2.447398,2,5,9,14,22,-1022
219,2.458943,3,6,9,14,23,-1019
220,2.470494,2,6,9,15,28,-1021
221,2.482038,2,6,9,15,25,-1022
222,2.493585,2,7,9,12,27,-1018
223,2.505159,2,6,9,12,23,-1021
224,2.516732,2,6,9,13,25,-1023
225,2.528312,3,6,8,13,24,-1021
226,2.539927,3,7,9,13,25,-1018
227,2.551581,2,6,9,14,26,-1023
228,2.563219,2,6,9,11,25,-1023
229,2.574901,3,7,9,11,25,-1025
230,2.586554,3,6,8,13,25,-1026
231,2.598196,2,6,10,13,26,-1020
232,2.609844,2,7,9,13,25,-1021
233,2.621534,2,6,9,15,29,-1022
234,2.633197,2,5,9,10,25,-1018
235,2.644872,2,5,9,14,29,-1022
236,2.656476,2,5,8,16,24,-1028
237,2.668026,2,7,9,13,34,-1025
238,2.67961,2,7,9,13,25,-1023
239,2.691155,3,7,8,12,25,-1030
240,2.702697,2,6,9,14,26,-1022
241,2.714249,2,6,8,16,29,-1017
242,2.725794,2,6,9,12,25,-1021
243,2.737358,3,7,9,14,28,-1020
244,2.749019,2,7,9,11,29,-1018
245,2.760685,2,6,9,11,26,-1021
246,2.772358,3,7,9,13,26,-1028
247,2.78401,2,7,9,12,27,-1018
248,2.795668,2,7,9,15,29,-1021
249,2.807317,2,7,9,11,25,-1015
250,2.81896,2,7,10,11,26,-1021
251,2.830606,2,6,9,12,25,-1022
252,2.84229,2,6,9,12,23,-1028
253,2.853952,3,6,9,11,23,-1022
254,2.86553,2,6,9,14,27,-1024
255,2.877092,2,6,9,11,28,-1025
256,2.888655,3,6,10,13,25,-1030
257,2.900219,2,6,9,12,25,-1020
258,2.911771,2,6,9,11,23,-1020
259,2.923351,3,6,9,12,26,-1023
260,2.934903,2,6,9,16,27,-1022
261,2.946514,3,6,8,15,27,-1018
262,2.958156,2,6,9,10,26,-1016
263,2.969808,2,6,9,9,26,-1025
264,2.98145,2,6,9,11,24,-1023
265,2.993115,2,6,9,13,28,-1025
266,3.004792,3,6,9,11,26,-1024
267,3.016464,3,5,9,12,25,-1024
268,3.028093,3,6,9,13,32,-1020
269,3.039774,3,6,9,15,21,-1024
270,3.05143,2,6,9,17,26,-1021
271,3.063093,2,6,9,12,24,-1023
272,3.074656,2,5,9,14,29,-1018
273,3.08623,2,6,9,13,27,-1022
274,3.097771,2,6,10,12,26,-1020
275,3.109283,2,6,9,11,24,-1022
276,3.120801,2,6,10,17,29,-1023
277,3.132322,2,6,10,11,24,-1027
278,3.143869,2,6,9,11,23,-1025
279,3.155426,2,7,9,13,27,-1024
280,3.167047,2,7,9,13,27,-1024
281,3.178699,2,6,9,13,22,-1021
282,3.190342,3,6,9,14,30,-1024
283,3.201996,2,6,9,13,21,-1024
284,3.213666,3,6,9,12,25,-1017
285,3.225316,2,6,9,12,22,-1024
286,3.237013,2,6,10,13,26,-1025
287,3.248665,2,6,9,11,24,-1027
288,3.260343,3,6,9,12,25,-1024
289,3.272012,2,6,9,11,29,-1022
290,3.283572,2,6,8,14,26,-1025
291,3.295121,3,6,9,11,27,-1021
292,3.306732,3,5,9,15,27,-1022
293,3.318291,2,5,9,12,30,-1023
294,3.329852,2,6,8,12,29,-1014
295,3.341414,3,6,9,17,24,-1028
296,3.352983,2,6,9,15,28,-1024
297,3.364566,2,6,8,16,26,-1021
298,3.376206,2,6,8,10,26,-1019
299,3.387859,2,6,9,11,30,-1017
300,3.399528,3,6,9,11,29,-1021
301,3.411172,2,7,9,12,26,-1018
302,3.422817,2,6,9,13,25,-1022
303,3.434477,2,7,9,10,27,-1026
304,3.446122,2,6,9,14,22,-1020
305,3.457785,2,6,9,13,27,-1021
306,3.469446,2,6,9,15,25,-1022
307,3.481155,3,6,9,12,27,-1013
308,3.492816,2,7,9,15,26,-1038
309,3.504609,2,6,9,8,22,-1020
310,3.51622,3,6,9,14,29,-1018
311,3.527774,2,6,9,11,29,-1028
312,3.539327,2,7,9,13,25,-1025
313,3.550876,2,6,9,12,25,-1020
314,3.562461,1,7,9,12,25,-1023
315,3.574123,2,6,9,13,28,-1027
316,3.585785,2,7,9,14,27,-1018
317,3.597452,3,6,9,14,25,-1027
318,3.609132,2,5,9,15,30,-1025
319,3.620806,2,6,10,12,26,-1019
320,3.632498,2,6,9,15,29,-1024
321,3.644165,1,6,8,10,25,-1027
322,3.655814,2,6,9,10,25,-1023
323,3.667472,3,6,9,13,25,-1028
324,3.679161,2,7,9,12,27,-1023
325,3.690873,2,6,9,11,26,-1018
326,3.702484,2,5,9,11,27,-1020
327,3.714035,2,5,9,14,24,-1020
328,3.725588,2,6,9,12,28,-1021
329,3.737169,2,6,9,13,23,-1021
330,3.748741,2,6,9,12,23,-1021
331,3.760339,2,6,9,14,27,-1016
332,3.771894,3,6,9,16,27,-1027
333,3.78349,2,6,8,13,21,-1022
334,3.795112,3,6,9,11,23,-1022
335,3.806773,3,7,9,14,28,-1021
336,3.818428,2,7,9,10,28,-1025
337,3.83009,2,7,9,13,26,-1026
338,3.841765,2,7,9,13,25,-1017
339,3.853422,3,6,9,12,28,-1026
340,3.865145,2,6,9,13,24,-1018
341,3.87679,2,6,8,15,22,-1018
342,3.888475,3,6,9,14,25,-1019
343,3.900148,2,6,9,10,27,-1024
344,3.911712,2,6,9,11,28,-1017
345,3.923264,3,6,9,14,24,-1023
346,3.934807,2,6,10,13,32,-1027
347,3.946352,3,6,9,13,28,-1024
348,3.957891,3,6,9,12,27,-1023
349,3.969446,2,6,9,14,28,-1021
350,3.980991,2,5,10,12,26,-1023
351,3.992564,3,6,9,9,24,-1022
352,4.004206,2,6,9,11,23,-1025
353,4.015862,3,7,9,10,26,-1024
354,4.027526,2,6,8,11,24,-1021
355,4.039172,2,6,9,11,26,-1023
356,4.050865,2,5,9,11,25,-1020
357,4.062531,2,7,8,13,24,-1021
358,4.07417,3,7,9,10,28,-1027
359,4.085816,2,6,9,9,24,-1019
360,4.097527,2,6,9,15,29,-1026
361,4.109185,2,6,10,11,27,-1022
362,4.120743,2,6,9,12,27,-1018
363,4.132314,2,6,9,12,27,-1024
364,4.143864,2,6,9,12,24,-1026
365,4.155413,2,7,9,10,23,-1016
366,4.166978,2,6,9,10,22,-1019
367,4.178541,2,7,9,12,25,-1022
368,4.190102,2,7,9,15,20,-1028
369,4.201664,4,7,9,13,24,-1026
370,4.213314,3,6,8,13,25,-1025
371,4.225015,2,6,8,13,25,-1026
372,4.236677,3,6,9,16,26,-1020
373,4.248344,3,7,8,12,29,-1023
374,4.260025,3,6,9,15,26,-1021
375,4.271681,2,7,8,17,26,-1018
376,4.283329,2,6,8,12,24,-1013
377,4.294995,3,7,9,12,23,-1026
378,4.306665,3,6,8,13,27,-1021
379,4.318221,3,5,9,12,26,-1027
380,4.329787,2,6,8,13,28,-1021
381,4.341356,2,6,9,16,25,-1016
382,4.352932,3,6,9,12,26,-1027
383,4.364484,2,6,9,6,25,-1020
384,4.376032,2,6,9,8,24,-1022
385,4.387583,3,6,9,15,27,-1030
386,4.399132,2,6,8,11,23,-1028
387,4.410682,2,6,9,9,28,-1020
388,4.42236,2,6,9,8,25,-1024
389,4.434035,2,6,10,12,24,-1022
390,4.445694,3,6,10,14,25,-1027
391,4.457377,2,6,9,8,28,-1023
392,4.469032,2,6,9,15,27,-1025
393,4.480686,2,6,8,13,27,-1019
394,4.492364,2,5,8,14,23,-1021
395,4.504041,2,6,9,20,26,-1020
396,4.515701,2,6,10,13,24,-1020
397,4.5274,2,7,9,16,22,-1023
398,4.539065,2,6,9,12,29,-1023
399,4.550735,2,6,8,14,29,-1027
400,4.562404,2,6,9,12,26,-1020
401,4.574053,2,6,9,14,26,-1023
402,4.585709,2,5,9,13,28,-1018
403,4.597397,2,5,8,13,30,-1028
404,4.609108,2,6,9,10,29,-1016
405,4.620777,3,6,10,13,29,-1021
406,4.632331,3,6,10,13,25,-1019
407,4.64387,2,6,9,16,28,-1022
408,4.655411,3,6,9,10,27,-1022
409,4.66697,3,6,8,15,25,-1025
410,4.678511,3,6,9,17,28,-1022
411,4.690056,3,6,9,11,27,-1025
412,4.701597,3,7,8,13,25,-1020
413,4.713201,3,7,9,13,26,-1020
414,4.72496,1,6,9,9,25,-1021
415,4.736652,3,6,9,14,25,-1013
416,4.748322,3,6,9,12,26,-1019
417,4.75998,2,6,9,18,24,-1023
418,4.771653,3,5,9,15,26,-1021
419,4.783296,2,6,9,14,26,-1023
420,4.794976,2,6,9,11,27,-1022
421,4.806644,3,5,9,18,24,-1018
422,4.818296,2,6,9,12,24,-1022
423,4.829952,2,6,9,9,22,-1024
424,4.841651,2,6,10,9,26,-1023
425,4.853303,2,6,9,13,26,-1016
426,4.865007,2,5,9,10,30,-1023
427,4.87667,2,5,10,13,26,-1020
428,4.888337,3,6,10,10,28,-1025
429,4.900014,3,6,10,12,24,-1021
430,4.911666,2,6,10,12,24,-1024
431,4.923328,2,6,9,15,26,-1027
432,4.935009,3,6,9,13,23,-1021
433,4.946571,2,6,9,13,21,-1020
434,4.958128,2,5,8,14,22,-1022
435,4.969697,2,6,9,16,25,-1018
436,4.981266,3,6,9,10,26,-1022
437,4.992802,3,7,9,13,26,-1021
438,5.004324,2,6,9,10,27,-1017
439,5.015869,2,6,9,13,21,-1022
440,5.027446,2,5,9,17,24,-1020
441,5.039161,2,6,8,7,28,-1021
442,5.050823,2,6,9,12,24,-1022
443,5.062467,2,6,9,7,28,-1020
444,5.074125,3,6,8,13,27,-1023
445,5.085775,3,6,9,13,28,-1018
446,5.097429,2,6,9,14,24,-1024
447,5.109119,2,7,9,15,27,-1020
448,5.12078,2,6,9,14,31,-1026
449,5.132435,2,6,9,16,27,-1018
450,5.144092,2,6,9,14,24,-1021
451,5.155764,2,6,9,12,24,-1019
452,5.167431,2,7,9,13,29,-1019
453,5.179077,2,5,9,12,28,-1027
454,5.190753,2,6,9,11,26,-1024
455,5.202395,2,7,9,14,23,-1023
456,5.214049,2,6,9,15,28,-1021
457,5.225792,2,7,9,14,29,-1019
458,5.237489,1,6,9,11,26,-1021
459,5.249133,2,6,9,15,28,-1018
460,5.260721,2,6,9,12,24,-1026
461,5.272339,2,6,8,8,22,-1022
462,5.283896,2,6,9,9,29,-1023
463,5.295467,2,5,9,12,27,-1016
464,5.307012,3,5,9,19,28,-1020
465,5.318561,3,6,9,12,23,-1023
466,5.330115,2,6,9,13,27,-1022
467,5.341694,2,6,9,14,21,-1018
468,5.353421,3,6,8,16,26,-1028
469,5.365125,2,6,9,10,26,-1020
470,5.376797,2,6,9,10,25,-1014
471,5.388489,3,6,9,12,22,-1020
472,5.40015,3,6,9,13,25,-1022
473,5.4118,3,6,9,13,31,-1020
474,5.423469,3,6,9,10,26,-1023
475,5.435136,2,6,8,9,24,-1021
476,5.446804,3,7,10,17,27,-1019
477,5.458481,2,6,9,12,27,-1019
478,5.470144,3,7,9,17,26,-1022
479,5.481798,2,6,9,10,20,-1021
480,5.493469,2,6,10,12,26,-1026
481,5.505135,3,7,8,14,22,-1019
482,5.516795,3,7,9,13,22,-1023
483,5.528475,2,6,8,15,27,-1023
484,5.54018,2,6,9,10,20,-1022
485,5.55193,2,6,9,13,25,-1026
486,5.5636,3,5,9,13,26,-1024
487,5.575183,2,7,10,17,26,-1023
488,5.586727,2,7,9,15,26,-1020
489,5.598274,2,6,9,13,25,-1029
490,5.609822,3,6,8,13,23,-1021
491,5.62137,2,6,9,13,31,-1019
492,5.632948,2,6,10,15,22,-1022
493,5.644508,3,7,9,12,30,-1023
494,5.6561,2,6,9,11,27,-1021
495,5.667751,2,5,9,12,26,-1018
496,5.67941,2,6,8,13,28,-1017
497,5.691055,2,7,8,13,26,-1020
498,5.702718,2,6,9,12,30,-1025
499,5.714387,2,7,9,15,22,-1023
500,5.726027,2,7,9,12,23,-1020
501,5.737677,2,6,9,16,26,-1018
502,5.749538,2,5,9,13,24,-1018
503,5.761215,3,6,9,14,26,-1023
504,5.772847,3,6,9,12,26,-1019
505,5.784447,3,6,9,13,26,-1017
506,5.795991,2,5,8,13,26,-1020
507,5.80754,2,6,9,4,26,-1026
508,5.819089,2,6,8,13,25,-1018
509,5.830645,2,6,9,11,28,-1029
510,5.842194,2,6,9,11,22,-1019
511,5.853747,2,6,9,11,29,-1022
512,5.865351,2,6,9,11,21,-1018
513,5.877003,2,5,9,14,29,-1023
514,5.888668,2,6,9,8,29,-1020
515,5.900344,2,6,10,14,27,-1023
516,5.912041,2,6,9,10,24,-1024
517,5.923707,3,7,9,10,26,-1032
518,5.93536,2,6,9,10,23,-1020
519,5.947015,3,6,8,12,22,-1023
520,5.958666,2,6,9,14,26,-1013
521,5.970324,2,6,8,11,29,-1023
522,5.982022,2,7,9,18,21,-1030
523,5.993589,1,6,9,15,28,-1018
524,6.0052,1,6,9,11,23,-1023
525,6.016766,2,6,9,15,27,-1022
526,6.028333,2,6,9,14,23,-1023
527,6.039879,3,7,10,15,26,-1021
528,6.051439,2,6,8,11,25,-1023
529,6.062986,2,6,9,12,24,-1020
530,6.074547,2,6,9,14,27,-1020
531,6.086171,2,6,10,11,24,-1021
532,6.097827,2,6,9,10,25,-1023
533,6.109515,2,6,9,10,22,-1016
534,6.121166,2,6,9,15,30,-1022
535,6.132849,2,6,9,9,23,-1021
536,6.14452,3,7,9,10,27,-1025
537,6.156165,3,5,9,13,29,-1020
538,6.167812,2,5,9,12,27,-1019
539,6.179495,2,6,9,15,25,-1022
540,6.191151,2,5,9,13,29,-1023
541,6.20271,2,6,8,13,23,-1012
542,6.214254,2,7,10,12,22,-1023
543,6.225794,2,7,8,13,20,-1023
544,6.237348,2,5,8,14,25,-1020
545,6.248944,2,6,9,13,21,-1020
546,6.260501,3,6,9,9,27,-1025
547,6.272089,2,6,9,8,27,-1021
548,6.283653,3,6,9,7,25,-1019
549,6.295273,2,6,9,11,26,-1028
550,6.306932,3,6,9,12,26,-1022
551,6.318606,3,6,9,11,27,-1022
552,6.330269,2,6,9,10,27,-1014
553,6.34192,3,6,8,13,27,-1028
554,6.353596,3,6,8,14,19,-1022
555,6.365254,2,6,9,12,25,-1020
556,6.37691,3,7,9,14,24,-1020
557,6.388617,2,6,9,9,29,-1027
558,6.400283,2,6,9,11,27,-1025
559,6.411839,2,6,9,11,24,-1019
560,6.423421,3,5,8,10,24,-1022
561,6.43498,2,6,9,14,25,-1024
562,6.446555,2,6,9,15,25,-1019
563,6.458095,3,6,9,10,25,-1018
564,6.469636,3,6,8,15,25,-1015
565,6.481203,3,6,9,14,24,-1027
566,6.492762,3,6,8,9,25,-1022
567,6.504396,2,6,9,14,28,-1021
568,6.516113,2,6,9,10,27,-1029
569,6.527771,2,6,9,14,25,-1020
570,6.539425,2,6,9,11,25,-1017
571,6.551093,3,7,9,13,22,-1018
572,6.562743,2,5,9,13,22,-1024
573,6.574392,2,6,9,8,25,-1019
574,6.586048,3,6,9,14,22,-1023
575,6.597708,3,5,8,11,28,-1018
576,6.609383,3,6,10,12,29,-1020
577,6.620972,2,6,9,12,24,-1022
578,6.632576,2,7,8,12,22,-1017
579,6.644153,3,6,9,14,29,-1020
580,6.655704,2,6,9,14,25,-1019
581,6.667242,3,6,9,10,25,-1027
582,6.678777,2,5,9,13,28,-1023
583,6.690321,2,6,9,13,26,-1027
584,6.701877,2,6,9,15,29,-1024
585,6.713515,3,6,8,16,24,-1018
586,6.725171,2,6,9,13,24,-1016
587,6.736865,2,6,9,11,28,-1024
588,6.748528,3,6,9,14,24,-1018
589,6.760205,2,6,10,10,22,-1024
590,6.771875,2,6,9,13,26,-1017
591,6.783541,2,6,9,15,23,-1024
592,6.795219,2,6,8,11,26,-1014
593,6.806895,2,6,8,17,26,-1018
594,6.818557,2,6,9,12,27,-1019
595,6.83012,2,6,8,11,26,-1018
596,6.841688,3,6,9,14,22,-1016
597,6.853266,2,6,9,13,27,-1021
598,6.864846,3,6,9,12,24,-1017
599,6.876455,2,6,9,16,27,-1020
600,6.888004,2,6,8,12,25,-1021
601,6.899555,1,6,9,14,25,-1018
602,6.911118,2,6,9,15,23,-1022
603,6.922762,2,7,9,18,25,-1025
604,6.934469,2,6,8,10,21,-1025
605,6.946133,3,7,9,14,28,-1023
606,6.957785,2,6,8,11,32,-1030
607,6.969466,3,6,9,15,24,-1018
608,6.981131,3,6,10,10,25,-1022
609,6.992786,2,6,9,8,28,-1022
610,7.004478,2,6,10,12,26,-1028
611,7.016195,2,6,9,12,24,-1029
612,7.027877,1,6,9,15,24,-1020
613,7.039446,1,6,9,7,22,-1021
614,7.051013,2,6,10,12,27,-1021
615,7.062577,1,6,9,14,28,-1021
616,7.074125,2,6,9,16,31,-1019
617,7.085696,2,6,8,12,22,-1025
618,7.097261,2,6,9,7,28,-1028
619,7.10881,3,7,10,15,23,-1020
620,7.120337,2,6,8,13,24,-1028
621,7.132001,2,6,10,10,25,-1026
622,7.143654,3,6,9,10,25,-1021
623,7.155322,3,6,9,12,25,-1024
624,7.166985,3,6,9,15,26,-1022
625,7.178642,2,6,9,12,26,-1022
626,7.190296,3,6,9,13,26,-1022
627,7.201994,2,6,8,11,26,-1019
628,7.21365,3,6,8,15,27,-1023
629,7.225338,2,6,8,13,29,-1025
630,7.236994,2,6,9,10,26,-1026
631,7.248575,2,7,9,12,20,-1027
632,7.260126,2,6,9,14,25,-1020
633,7.27168,3,7,10,13,25,-1020
634,7.283227,2,6,10,14,28,-1029
635,7.294811,2,6,9,13,24,-1020
636,7.306351,3,6,9,14,25,-1026
637,7.317908,2,6,9,16,29,-1018
638,7.329479,3,6,9,14,27,-1020
639,7.341128,2,6,9,13,24,-1022
640,7.352789,2,7,9,16,26,-1025
641,7.36448,2,6,9,13,22,-1021
642,7.376155,2,5,8,13,26,-1023
643,7.387828,3,7,9,17,26,-1020
644,7.399501,3,6,9,10,30,-1025
645,7.411154,3,6,9,11,23,-1021
646,7.422796,2,6,9,14,21,-1022
647,7.434458,2,5,9,14,30,-1024
648,7.446117,3,6,9,16,23,-1023
649,7.457693,2,7,8,12,23,-1020
650,7.469284,3,5,9,12,25,-1026
651,7.480823,2,5,9,16,27,-1022
652,7.492369,2,6,9,15,26,-1020
653,7.503924,2,6,9,13,25,-1020
654,7.515486,2,6,9,12,26,-1027
655,7.527028,2,6,9,12,27,-1023
656,7.538583,2,6,8,14,26,-1023
657,7.550212,1,6,9,15,27,-1019
658,7.561869,3,6,8,11,24,-1013
659,7.573527,3,6,9,14,24,-1018
660,7.585201,2,6,8,12,21,-1022
661,7.596865,3,6,7,16,25,-1016
662,7.608521,2,6,9,13,28,-1019
663,7.62017,3,5,9,14,26,-1022
664,7.631833,3,6,9,9,25,-1026
665,7.643501,2,5,9,16,30,-1020
666,7.65515,2,6,9,12,24,-1017
667,7.666801,2,6,9,14,25,-1021
668,7.67844,2,7,9,13,24,-1026
669,7.690085,3,6,9,10,23,-1023
670,7.701787,2,6,9,12,28,-1024
671,7.713653,3,7,9,11,27,-1022
672,7.725313,2,7,9,10,29,-1024
673,7.737042,2,6,9,15,26,-1025
674,7.748753,2,6,9,13,26,-1024
675,7.760388,3,5,10,11,24,-1018
676,7.77203,3,5,9,12,22,-1031
677,7.783588,3,5,9,15,22,-1020
678,7.795157,2,6,10,13,26,-1025
679,7.806713,2,6,10,13,27,-1021
680,7.818256,3,6,9,17,26,-1025
681,7.8298,2,6,9,14,23,-1020
682,7.841351,2,6,9,9,25,-1020
683,7.85294,2,6,9,14,28,-1018
684,7.864613,3,6,9,10,28,-1019
685,7.876274,3,6,8,15,24,-1022
686,7.887915,2,6,10,9,28,-1019
687,7.899557,3,5,9,14,25,-1021
688,7.91123,3,6,9,12,24,-1024
689,7.922874,1,6,9,11,27,-1021
690,7.93452,3,7,9,8,32,-1020
691,7.94617,2,6,9,11,25,-1016
692,7.95782,3,6,8,15,22,-1026
693,7.969375,3,6,9,14,27,-1022
694,7.980951,2,6,9,13,28,-1027
695,7.992498,2,6,8,10,28,-1023
696,8.004085,3,6,9,13,27,-1017
697,8.01565,3,6,8,17,21,-1020
698,8.0272,2,6,9,14,24,-1026
699,8.038773,2,6,9,12,25,-1023
700,8.050333,3,6,9,9,27,-1025
701,8.062007,2,6,9,14,23,-1021
702,8.073667,2,6,9,10,26,-1020
703,8.085347,2,6,8,14,25,-1016
704,8.097009,3,6,9,13,24,-1023
705,8.108668,3,6,9,17,29,-1020
706,8.120333,2,6,9,14,25,-1014
707,8.132021,2,6,9,15,27,-1017
708,8.143671,2,6,9,8,28,-1023
709,8.155332,2,6,10,10,22,-1025
710,8.166994,2,6,9,15,29,-1025
711,8.17856,2,6,9,11,26,-1019
712,8.19011,2,6,9,12,22,-1028
713,8.201683,3,6,9,13,20,-1014
714,8.213217,2,6,9,12,24,-1025
715,8.22478,2,6,9,12,25,-1019
716,8.236325,3,7,9,14,26,-1022
717,8.247884,2,6,9,14,23,-1021
718,8.259446,3,6,8,11,27,-1029
719,8.27115,2,7,9,13,30,-1019
720,8.282847,2,6,9,11,29,-1021
721,8.294493,2,6,10,14,26,-1026
722,8.306149,2,7,9,14,22,-1021
723,8.317798,3,6,9,14,21,-1018
724,8.329472,2,5,9,9,23,-1023
725,8.341132,2,6,9,13,25,-1020
726,8.352782,2,6,9,13,28,-1024
727,8.36442,2,6,8,16,24,-1024
728,8.375968,2,6,9,12,22,-1020
729,8.387518,3,5,10,16,26,-1021
730,8.399066,2,6,9,17,27,-1022
731,8.410626,2,6,9,10,24,-1025
732,8.422176,3,6,9,14,24,-1024
733,8.433731,2,6,9,14,22,-1025
734,8.44532,2,6,9,13,28,-1027
735,8.456882,2,5,9,9,27,-1020
736,8.468462,2,7,9,15,26,-1025
737,8.480095,3,5,9,11,21,-1028
738,8.491761,2,6,8,14,27,-1028
739,8.503427,3,6,10,12,26,-1020
740,8.515103,2,6,9,14,27,-1018
741,8.526747,2,6,9,11,22,-1022
742,8.538393,3,7,9,13,22,-1021
743,8.550066,3,6,9,11,25,-1019
744,8.561741,2,6,9,11,24,-1020
745,8.573399,2,6,10,16,26,-1019
746,8.58506,2,6,9,10,25,-1017
747,8.596628,2,7,10,11,26,-1023
748,8.608198,2,6,9,16,26,-1020
749,8.619802,2,6,10,16,25,-1018
750,8.631354,2,6,9,14,25,-1023
751,8.64292,2,7,9,12,20,-1021
752,8.65446,3,6,8,15,26,-1021
753,8.666008,2,5,9,12,27,-1030
754,8.677574,2,6,9,11,29,-1017
755,8.689214,2,6,9,12,25,-1020
756,8.700866,3,6,9,11,26,-1023
757,8.71252,2,6,9,11,26,-1021
758,8.724208,2,6,9,13,26,-1018
759,8.735862,2,7,9,14,26,-1016
760,8.74751,2,6,8,11,28,-1021
761,8.759166,2,7,8,10,24,-1016
762,8.770814,3,6,8,14,23,-1020
763,8.782475,2,7,9,8,24,-1025
764,8.794141,2,6,9,14,29,-1021
765,8.805695,2,5,9,14,28,-1018
766,8.817319,2,6,10,13,25,-1021
767,8.828879,2,6,9,16,23,-1023
768,8.840452,2,6,9,12,25,-1021
769,8.851999,3,6,9,11,23,-1018
770,8.863549,2,6,9,10,29,-1025
771,8.875114,1,6,10,13,28,-1019
772,8.886693,2,6,9,12,26,-1024
773,8.898342,3,6,10,16,24,-1026
774,8.91,3,6,9,12,26,-1021
775,8.921641,2,7,9,13,23,-1026
776,8.933293,2,6,9,15,24,-1021
777,8.944988,2,6,9,12,24,-1024
778,8.956654,1,6,8,13,27,-1019
779,8.968354,2,6,9,15,24,-1017
780,8.979997,2,6,9,13,29,-1029
781,8.991683,2,6,9,13,27,-1026
782,9.003349,2,7,10,15,28,-1015
783,9.014933,3,6,9,15,25,-1023
784,9.026477,2,6,9,13,25,-1020
785,9.038025,2,6,9,16,24,-1024
786,9.049616,2,6,9,15,25,-1029
787,9.061199,2,6,9,7,27,-1024
788,9.072828,2,7,9,13,25,-1019
789,9.084401,2,7,8,15,23,-1020
790,9.095963,3,7,9,15,21,-1023
791,9.10764,2,7,9,13,24,-1025
792,9.119333,2,6,8,11,27,-1017
793,9.130982,3,6,9,11,26,-1022
794,9.142635,3,6,9,13,24,-1027
795,9.1543,3,6,10,14,27,-1019
796,9.165998,2,6,9,14,25,-1021
797,9.177646,2,6,9,7,26,-1017
798,9.189326,3,6,10,9,28,-1019
799,9.201014,3,6,8,15,26,-1018
800,9.212724,2,6,8,10,24,-1025
801,9.22432,3,6,9,13,27,-1020
802,9.235917,3,6,9,13,31,-1028
803,9.247465,2,7,8,12,24,-1019
804,9.259011,2,6,9,13,25,-1024
805,9.270567,2,6,8,10,27,-1025
806,9.282136,2,6,9,12,25,-1021
807,9.293685,2,6,9,13,23,-1026
808,9.305324,1,6,8,8,29,-1019
809,9.317033,2,5,9,10,29,-1021
810,9.328729,2,7,9,12,24,-1020
811,9.340398,2,6,9,10,25,-1021
812,9.352041,2,7,10,11,23,-1022
813,9.363726,2,7,8,13,26,-1025
814,9.375385,2,6,9,8,26,-1022
815,9.38704,2,6,9,14,24,-1023
816,9.398707,2,5,8,14,22,-1020
817,9.410388,2,7,8,12,28,-1020
818,9.422045,2,6,8,15,30,-1022
819,9.433605,3,6,9,10,27,-1022
820,9.445179,3,7,9,12,24,-1018
821,9.456756,3,7,10,14,23,-1024
822,9.468329,3,6,10,11,25,-1020
823,9.479925,2,6,8,12,27,-1027
824,9.491557,2,6,9,14,27,-1022
825,9.503226,3,5,9,13,26,-1023
826,9.514851,2,6,9,14,22,-1024
827,9.526407,3,6,8,12,27,-1029
828,9.537986,3,6,9,15,22,-1026
829,9.54954,3,7,9,8,23,-1027
830,9.561095,3,7,8,12,20,-1026
831,9.572686,2,6,8,10,26,-1017
832,9.584238,1,6,9,14,29,-1025
833,9.595781,2,6,9,16,24,-1027
834,9.60736,3,7,9,13,26,-1024
835,9.618931,2,6,9,14,26,-1024
836,9.630611,2,6,9,17,23,-1021
837,9.642271,3,6,9,9,27,-1022
838,9.653941,3,7,9,13,25,-1013
839,9.665612,2,5,9,11,26,-1027
840,9.677273,2,6,8,13,28,-1026
841,9.688952,3,7,9,12,23,-1022
842,9.700616,1,6,9,14,25,-1021
843,9.712267,2,6,9,11,23,-1023
844,9.723947,2,7,8,14,21,-1017
845,9.735608,2,6,9,15,25,-1015
846,9.747175,2,6,9,13,23,-1029
847,9.75872,2,6,8,14,23,-1016
848,9.770263,3,6,9,13,26,-1023
849,9.781805,3,5,9,13,26,-1029
850,9.79339,2,6,9,12,23,-1021
851,9.804945,3,6,9,11,21,-1025
852,9.816509,3,7,8,11,26,-1022
853,9.828087,2,6,9,10,27,-1023
854,9.839735,2,7,9,14,27,-1022
855,9.851404,2,6,10,13,27,-1022
856,9.863056,2,6,9,14,27,-1021
857,9.874725,2,7,9,11,25,-1020
858,9.886379,3,6,9,14,23,-1019
859,9.898013,2,6,9,12,24,-1029
860,9.909667,2,6,9,13,26,-1021
861,9.921379,3,7,9,11,26,-1019
862,9.933053,3,6,9,13,27,-1021
863,9.944736,3,6,9,16,25,-1016
864,9.956322,2,5,9,13,25,-1017
865,9.967909,3,5,9,15,28,-1022
866,9.979502,2,7,9,11,25,-1027
867,9.991059,2,6,9,13,28,-1020
868,10.002609,3,6,10,12,24,-1025
869,10.014156,2,7,9,7,25,-1022
870,10.02571,2,6,10,12,26,-1027
871,10.037317,2,5,10,11,21,-1024
872,10.049009,3,6,9,15,26,-1019
873,10.060692,2,6,9,15,26,-1021
874,10.072356,2,6,9,13,27,-1019
875,10.084001,2,6,9,13,27,-1022
876,10.095664,2,6,8,15,21,-1022
877,10.107309,3,6,8,11,25,-1028
878,10.118962,1,6,9,11,28,-1022
879,10.130612,2,5,9,14,26,-1020
880,10.142259,3,6,9,11,23,-1020
881,10.153909,3,6,10,12,26,-1027
882,10.1656,2,6,10,17,25,-1020
883,10.177256,2,6,9,14,21,-1023
884,10.188932,2,6,8,12,26,-1022
885,10.20061,3,6,9,12,26,-1023
886,10.212249,2,6,9,12,26,-1026
887,10.223892,3,6,8,17,26,-1022
888,10.235559,2,6,9,12,29,-1024
889,10.247205,2,6,9,14,25,-1018
890,10.258855,3,7,9,14,27,-1026
891,10.270501,3,6,9,12,23,-1020
892,10.282154,2,7,9,13,25,-1022
893,10.293798,2,6,9,13,23,-1020
894,10.30547,2,6,9,9,23,-1014
895,10.317118,2,5,9,13,25,-1023
896,10.328765,2,6,9,14,23,-1023
897,10.340417,2,6,9,12,25,-1016
898,10.352114,3,6,9,15,26,-1025
899,10.363673,2,7,9,14,29,-1018
900,10.375211,2,6,8,15,28,-1023
901,10.386748,3,6,9,11,25,-1020
902,10.398292,3,6,9,12,25,-1021
903,10.409835,2,7,9,10,25,-1023
904,10.421419,2,6,9,11,30,-1025
905,10.432987,2,5,9,14,28,-1018
906,10.444558,2,6,9,13,26,-1024
907,10.456101,2,5,9,16,28,-1021
908,10.467784,3,6,9,13,25,-1026
909,10.479463,2,7,9,11,26,-1026
910,10.49111,3,6,10,14,23,-1026
911,10.50276,2,7,9,11,26,-1017
912,10.514425,2,6,9,13,22,-1019
913,10.526083,2,6,9,13,29,-1016
914,10.537733,2,6,9,12,25,-1023
915,10.549394,3,6,9,12,26,-1023
916,10.561051,2,6,9,13,25,-1018
917,10.572617,3,6,9,12,24,-1022
918,10.584196,2,5,9,14,22,-1020
919,10.595792,2,6,9,10,25,-1022
920,10.607339,2,6,9,13,25,-1027
921,10.618903,2,5,9,15,28,-1026
922,10.630452,2,6,9,10,26,-1026
923,10.642039,2,6,9,11,22,-1024
924,10.653598,3,6,10,15,26,-1022
925,10.665234,2,6,9,14,25,-1021
926,10.67687,3,6,10,12,22,-1017
927,10.68852,2,6,9,14,26,-1015
928,10.70017,2,6,9,14,27,-1023
929,10.711852,3,5,9,15,26,-1019
930,10.723516,3,6,9,12,25,-1027
931,10.735196,3,6,9,11,29,-1023
932,10.746849,2,5,9,10,24,-1016
933,10.758507,3,6,9,14,22,-1020
934,10.770179,3,6,9,12,25,-1024
935,10.781784,2,5,9,8,28,-1023
936,10.793341,2,5,9,14,24,-1021
937,10.804928,2,5,9,11,23,-1029
938,10.816477,2,6,9,11,24,-1022
939,10.828022,2,6,9,16,32,-1028
940,10.839568,2,6,8,14,25,-1023
941,10.851111,2,6,8,11,26,-1014
942,10.862671,2,6,8,15,26,-1018
943,10.874338,2,6,8,15,23,-1021
944,10.885994,3,6,10,13,25,-1026
945,10.897639,2,6,8,10,28,-1022
946,10.909295,2,6,8,13,25,-1017
947,10.920989,3,6,9,16,26,-1019
948,10.93261,3,7,9,9,27,-1021
949,10.944264,2,6,9,11,27,-1020
950,10.955936,2,7,9,13,28,-1025
951,10.967608,1,6,9,17,29,-1025
952,10.979167,3,6,8,15,25,-1023
953,10.990707,2,6,9,13,28,-1028
954,11.00225,3,7,9,11,27,-1021
955,11.01379,2,6,8,19,25,-1017
956,11.025337,2,5,9,13,28,-1025
957,11.036905,2,5,9,13,28,-1015
958,11.048464,3,6,8,11,23,-1016
959,11.060038,2,6,9,14,28,-1018
960,11.071599,2,6,9,17,25,-1023
961,11.083218,2,5,9,15,29,-1019
962,11.094904,2,5,9,14,25,-1022
963,11.106551,2,7,8,14,25,-1020
964,11.118206,3,5,8,6,30,-1018
965,11.129852,2,6,9,12,28,-1016
966,11.141513,2,6,9,12,30,-1029
967,11.153191,2,6,9,14,22,-1019
968,11.16486,2,6,10,13,22,-1018
969,11.176544,3,7,9,12,28,-1022
970,11.188217,3,6,9,10,28,-1022
971,11.199782,2,6,9,12,25,-1025
972,11.211336,2,7,9,13,27,-1016
973,11.222931,2,6,9,12,28,-1015
974,11.234519,2,6,8,10,24,-1020
975,11.246073,2,6,9,15,28,-1026
976,11.257653,2,7,9,17,26,-1021
977,11.269197,2,6,9,18,26,-1019
978,11.280755,3,6,9,11,25,-1022
979,11.292358,2,6,9,13,28,-1029
980,11.304007,2,6,9,14,23,-1025
981,11.31566,2,7,9,14,25,-1020
982,11.327333,2,6,9,9,26,-1026
983,11.338972,2,7,9,13,23,-1025
984,11.350622,2,6,9,8,23,-1021
985,11.362297,2,6,9,17,26,-1021
986,11.373995,2,6,9,11,25,-1025
987,11.385677,2,6,9,12,27,-1022
988,11.397334,3,6,9,11,25,-1023
989,11.408926,2,6,9,11,28,-1026
990,11.420515,3,6,8,13,28,-1020
991,11.432079,2,6,9,10,24,-1017
992,11.443651,2,6,9,13,25,-1025
993,11.455185,2,6,10,13,28,-1018
994,11.46677,3,5,10,14,28,-1023
995,11.478313,2,6,9,12,26,-1022
996,11.489879,3,6,9,15,24,-1022
997,11.50154,2,6,9,17,24,-1023
998,11.513209,2,6,9,10,25,-1024
999,11.524869,2,7,10,14,25,-1025
1000,11.536523,3,6,9,12,27,-1022
1001,11.54821,3,7,9,11,28,-1023
1002,11.559862,2,7,9,16,26,-1023
1003,11.571504,3,7,9,11,21,-1020
1004,11.583175,2,7,9,14,27,-1023
1005,11.594837,3,6,9,12,26,-1023
1006,11.606387,2,5,10,12,26,-1019
1007,11.61794,3,7,8,12,25,-1024
1008,11.629513,3,7,8,17,30,-1018
1009,11.641051,2,7,10,12,28,-1017
1010,11.652579,3,6,10,13,28,-1022
1011,11.664136,3,6,9,13,23,-1022
1012,11.675692,3,6,8,10,27,-1025
1013,11.687299,3,6,8,15,28,-1024
1014,11.698987,2,6,9,10,26,-1022
1015,11.710647,3,6,9,8,22,-1020
1016,11.722286,3,5,9,14,26,-1019
1017,11.733957,2,6,9,14,26,-1019
1018,11.74564,2,6,9,12,26,-1024
1019,11.757299,2,6,9,13,25,-1027
1020,11.768978,3,6,9,11,22,-1026
1021,11.78061,2,7,9,13,27,-1012
1022,11.792268,3,6,9,10,28,-1019
1023,11.803949,2,6,9,10,24,-1018
1024,11.815535,2,6,9,11,26,-1023
1025,11.827085,2,6,9,17,23,-1022
1026,11.838668,2,7,10,12,30,-1022
1027,11.850216,3,6,9,11,28,-1025
1028,11.861761,2,7,9,11,28,-1017
1029,11.873288,2,7,9,13,26,-1016
1030,11.884855,2,7,8,16,27,-1022
1031,11.896449,2,6,9,13,26,-1023
1032,11.908143,2,6,9,12,28,-1025
1033,11.919811,2,6,9,15,25,-1025
1034,11.931468,3,6,9,13,27,-1016
1035,11.943115,2,6,9,17,24,-1024
1036,11.954805,2,6,9,13,27,-1019
1037,11.96646,3,7,8,15,29,-1022
1038,11.978108,2,6,9,11,23,-1020
1039,11.989762,3,6,9,10,26,-1017
1040,12.001446,3,6,8,12,22,-1018
1041,12.013117,3,6,9,13,28,-1018
1042,12.024793,2,7,9,10,26,-1018
1043,12.036472,2,7,9,13,27,-1021
1044,12.048097,2,6,8,14,23,-1020
1045,12.059751,3,6,9,13,26,-1019
1046,12.071396,2,6,10,14,26,-1027
1047,12.083056,2,6,9,12,26,-1024
1048,12.094713,2,6,9,14,29,-1019
1049,12.106384,2,6,9,10,28,-1018
1050,12.118034,2,5,9,11,24,-1017
1051,12.129701,2,6,9,15,25,-1015
1052,12.141371,2,6,9,13,24,-1019
1053,12.15305,2,5,9,15,25,-1020
1054,12.164733,1,6,10,12,24,-1020
1055,12.176405,2,7,9,13,26,-1019
1056,12.188083,2,7,9,10,30,-1016
1057,12.199754,2,6,9,10,29,-1026
1058,12.211453,2,6,9,11,25,-1023
1059,12.223097,3,6,9,14,27,-1023
1060,12.23475,2,6,8,21,27,-1023
1061,12.246427,3,6,9,12,27,-1021
1062,12.25808,2,7,9,14,23,-1022
1063,12.269733,2,7,9,16,28,-1020
1064,12.281392,2,6,8,12,23,-1022
1065,12.293056,2,6,9,15,25,-1018
1066,12.304731,2,6,9,14,26,-1029
1067,12.316415,2,7,9,15,26,-1021
1068,12.328094,2,6,9,10,30,-1020
1069,12.339739,2,6,8,16,23,-1020
1070,12.351408,2,6,9,14,21,-1027
1071,12.363071,3,7,9,12,24,-1031
1072,12.374722,2,6,8,7,23,-1025
1073,12.386372,2,7,9,10,27,-1011
1074,12.398017,2,6,9,14,27,-1032
1075,12.409689,2,7,9,11,27,-1018
1076,12.421395,2,6,9,12,26,-1031
1077,12.43306,2,6,9,8,21,-1020
1078,12.444758,2,6,8,13,25,-1020
1079,12.456407,2,6,9,10,24,-1022
1080,12.468084,3,6,9,11,27,-1021
1081,12.479733,2,6,9,12,28,-1029
1082,12.491377,2,6,9,9,27,-1022
1083,12.503023,2,6,9,11,29,-1026
1084,12.514697,2,6,9,13,22,-1024
1085,12.526368,2,6,9,14,27,-1023
1086,12.538024,3,5,9,12,29,-1018
1087,12.549693,2,5,10,13,23,-1023
1088,12.561363,1,6,9,11,21,-1022
1089,12.573037,2,6,9,12,25,-1025
1090,12.584732,2,6,9,7,27,-1018
1091,12.59635,2,7,8,13,28,-1022
1092,12.607995,2,6,10,16,27,-1026
1093,12.619664,3,5,9,9,26,-1021
1094,12.631334,2,6,9,11,22,-1023
1095,12.643035,2,6,8,13,27,-1026
1096,12.654595,3,6,9,13,20,-1024
1097,12.666148,2,6,9,8,26,-1023
1098,12.67771,2,6,9,14,24,-1016
1099,12.689294,2,6,9,13,28,-1017
1100,12.700879,2,6,8,10,25,-1025
1101,12.712447,2,7,9,16,26,-1027
1102,12.723996,2,6,9,14,23,-1016
1103,12.73556,2,6,9,13,28,-1016
1104,12.747194,2,6,8,17,23,-1027
1105,12.758849,2,6,9,15,31,-1020
1106,12.770507,2,6,8,15,29,-1024
1107,12.782172,3,6,9,11,25,-1021
1108,12.793828,3,6,8,11,25,-1019
1109,12.80552,2,7,8,14,27,-1023
1110,12.817188,2,6,9,9,23,-1019
1111,12.828858,3,6,9,11,22,-1021
1112,12.840548,2,7,9,15,21,-1020
1113,12.852232,2,7,8,11,26,-1022
1114,12.863789,2,6,9,16,22,-1023
1115,12.875383,2,6,10,10,27,-1020
1116,12.886933,2,6,9,12,27,-1018
1117,12.898529,2,6,9,13,27,-1014
1118,12.910145,3,6,9,13,22,-1020
1119,12.921709,2,6,8,17,26,-1026
1120,12.933292,2,5,9,13,24,-1017
1121,12.944916,2,6,9,14,27,-1024
1122,12.956604,2,6,9,14,24,-1021
1123,12.968284,2,6,9,10,24,-1031
1124,12.979954,2,7,9,14,26,-1018
1125,12.991611,2,6,9,13,25,-1021
1126,13.003281,1,6,8,14,25,-1013
1127,13.014938,2,6,8,15,25,-1021
1128,13.026589,2,6,9,13,26,-1022
1129,13.038241,2,6,9,12,20,-1026
1130,13.049907,3,7,9,19,24,-1026
1131,13.061575,3,7,9,10,25,-1018
1132,13.073146,3,6,9,11,26,-1022
1133,13.084696,2,6,9,10,27,-1015
1134,13.096241,3,5,9,13,25,-1022
1135,13.107785,2,5,10,14,30,-1025
1136,13.119332,2,6,9,15,21,-1026
1137,13.130894,2,6,9,10,29,-1016
1138,13.142457,2,6,8,11,25,-1017
1139,13.154035,2,6,9,10,26,-1022
1140,13.165694,2,6,8,13,29,-1022
1141,13.177371,2,6,10,11,27,-1024
1142,13.18906,2,6,8,11,27,-1020
1143,13.200732,3,6,9,9,26,-1024
1144,13.212355,3,6,9,18,23,-1026
1145,13.224027,3,6,9,12,26,-1019
1146,13.235689,2,6,9,11,26,-1023
1147,13.247335,2,6,9,9,29,-1025
1148,13.259001,3,6,9,13,28,-1023
1149,13.270663,3,5,9,15,23,-1022
1150,13.28226,2,6,9,12,26,-1018
1151,13.293806,2,6,9,9,21,-1022
1152,13.305367,2,6,10,12,24,-1025
1153,13.316956,2,6,10,16,26,-1015
1154,13.328509,2,6,9,11,27,-1030
1155,13.340072,2,6,10,10,26,-1022
1156,13.351636,3,5,8,11,28,-1023
1157,13.363196,3,6,8,12,29,-1020
1158,13.374822,2,6,7,11,26,-1024
1159,13.386481,2,6,9,16,22,-1018
1160,13.398158,2,6,9,14,27,-1019
1161,13.409838,2,6,9,7,26,-1021
1162,13.421507,3,6,9,14,27,-1022
1163,13.433188,2,6,9,13,25,-1024
1164,13.444867,2,6,8,16,24,-1018
1165,13.456527,2,6,9,14,26,-1019
1166,13.468307,2,6,9,11,25,-1018
1167,13.479963,2,5,9,15,26,-1027
1168,13.491537,3,6,9,14,25,-1026
1169,13.503145,2,6,9,12,24,-1018
1170,13.514691,2,6,9,12,25,-1020
1171,13.526234,3,6,9,18,23,-1019
1172,13.537785,2,6,9,14,23,-1027
1173,13.549354,3,6,9,14,31,-1024
1174,13.560924,3,6,10,14,22,-1023
1175,13.572525,2,7,9,11,26,-1020
1176,13.584221,3,6,8,13,25,-1019
1177,13.595877,3,6,10,14,26,-1025
1178,13.607531,2,6,9,14,29,-1020
1179,13.619194,2,6,9,14,24,-1028
1180,13.630839,3,6,10,13,25,-1015
1181,13.642486,2,6,9,14,28,-1026
1182,13.654154,2,6,9,10,22,-1020
1183,13.665811,2,6,9,13,25,-1024
1184,13.677522,2,5,9,14,28,-1024
1185,13.689224,2,6,9,11,27,-1023
1186,13.700881,3,6,9,14,29,-1027
1187,13.712556,3,6,9,12,24,-1032
1188,13.724221,2,6,9,11,28,-1020
1189,13.735882,2,5,9,14,24,-1020
1190,13.747544,2,6,9,9,25,-1025
1191,13.759193,2,7,9,8,26,-1022
1192,13.770837,2,6,9,15,25,-1019
1193,13.782521,2,6,8,13,25,-1023
1194,13.794195,2,5,9,14,25,-1024
1195,13.805844,2,6,9,11,26,-1028
1196,13.817523,2,6,9,11,27,-1019
1197,13.829184,2,7,9,10,25,-1020
1198,13.840862,3,6,9,12,25,-1024
1199,13.852533,2,6,8,12,22,-1033
1200,13.864217,3,6,9,12,26,-1017
1201,13.875862,2,6,9,9,27,-1024
1202,13.887565,2,6,10,10,26,-1029
1203,13.89922,2,6,9,11,23,-1029
1204,13.91088,2,6,9,15,25,-1023
1205,13.922545,2,6,9,7,28,-1018
1206,13.934222,2,6,9,12,22,-1022
1207,13.945903,3,5,9,12,28,-1021
1208,13.957566,2,7,9,9,23,-1025
1209,13.969262,2,6,9,11,25,-1028
1210,13.980933,2,7,9,14,26,-1030
1211,13.992619,2,6,9,13,27,-1023
1212,14.004309,3,6,9,17,24,-1022
1213,14.015866,3,5,10,10,29,-1018
1214,14.027413,2,6,9,10,24,-1020
1215,14.038958,3,6,9,20,25,-1027
1216,14.050502,3,6,9,11,25,-1022
1217,14.062069,2,7,9,9,26,-1028
1218,14.073633,2,6,9,12,25,-1021
1219,14.085186,2,6,9,12,25,-1023
1220,14.096775,2,6,9,10,25,-1024
1221,14.108395,2,6,10,13,25,-1023
1222,14.120084,2,6,9,15,28,-1022
1223,14.131726,2,6,9,13,23,-1022
1224,14.143391,2,6,9,15,26,-1028
1225,14.15505,3,6,9,11,28,-1024
1226,14.166696,2,6,9,16,23,-1025
1227,14.178341,3,6,9,12,23,-1016
1228,14.189987,3,7,9,15,27,-1018
1229,14.201671,2,6,9,10,28,-1017
1230,14.21335,2,6,9,12,27,-1025
1231,14.224922,1,6,9,15,26,-1022
1232,14.236476,2,6,9,11,26,-1012
1233,14.248028,3,6,9,13,24,-1024
1234,14.259598,2,6,9,11,26,-1019
1235,14.271151,1,6,9,17,29,-1022
1236,14.282733,2,6,8,9,31,-1021
1237,14.294289,2,6,8,13,25,-1023
1238,14.305887,2,6,9,12,25,-1022
1239,14.317556,3,6,9,10,25,-1021
1240,14.32925,2,6,9,14,27,-1017
1241,14.340909,2,6,9,14,28,-1026
1242,14.35259,2,6,9,12,26,-1020
1243,14.364252,2,6,8,8,26,-1021
1244,14.375914,2,6,9,11,21,-1021
1245,14.387568,2,6,9,14,25,-1022
1246,14.399214,2,6,9,13,25,-1023
1247,14.41085,2,6,9,15,22,-1023
1248,14.422521,2,6,8,13,22,-1017
1249,14.434216,2,6,9,13,26,-1018
1250,14.445958,3,6,9,12,28,-1016
1251,14.457676,2,5,9,14,26,-1019
1252,14.469359,3,6,9,16,26,-1026
1253,14.481048,3,5,10,13,27,-1021
1254,14.492713,2,7,9,15,27,-1019
1255,14.504351,2,7,9,14,22,-1028
1256,14.516037,2,6,9,13,25,-1021
1257,14.527722,3,6,9,9,26,-1022
1258,14.539277,2,6,9,14,29,-1023
1259,14.550825,3,6,9,13,31,-1022
1260,14.562378,2,7,9,16,28,-1023
1261,14.573924,2,6,9,15,29,-1021
1262,14.585478,2,6,9,14,25,-1020
1263,14.597046,1,6,10,13,25,-1014
1264,14.608624,1,6,9,15,26,-1024
1265,14.62021,2,6,9,11,26,-1017
1266,14.631834,2,6,9,9,23,-1021
1267,14.643499,2,7,8,17,28,-1020
1268,14.655161,2,7,8,15,26,-1020
1269,14.666815,2,6,9,12,25,-1022
1270,14.678466,2,7,9,10,24,-1021
1271,14.690111,2,7,9,9,25,-1020
1272,14.701781,3,7,10,9,26,-1016
1273,14.713436,2,6,9,10,25,-1021
1274,14.725138,2,6,9,10,24,-1019
1275,14.736799,2,6,8,13,24,-1026
1276,14.748324,2,7,9,11,26,-1023
1277,14.759871,3,6,9,16,27,-1029
1278,14.771424,2,6,9,16,22,-1028
1279,14.783007,2,6,9,10,27,-1024
1280,14.794555,2,7,9,14,29,-1020
1281,14.80615,2,7,9,13,28,-1022
1282,14.817688,2,6,8,14,28,-1017
1283,14.829248,3,7,9,11,26,-1018
1284,14.840896,2,7,9,12,27,-1026
1285,14.852582,3,6,9,14,26,-1026
1286,14.864255,2,6,9,15,27,-1021
1287,14.875926,2,5,8,15,29,-1019
1288,14.887579,2,6,9,10,26,-1022
1289,14.899244,2,6,10,12,24,-1025
1290,14.910911,2,6,8,13,24,-1024
1291,14.922582,2,6,9,14,31,-1015
1292,14.934258,2,6,9,17,25,-1022
1293,14.945918,2,7,10,16,25,-1021
1294,14.957482,2,6,9,12,30,-1021
1295,14.969049,2,6,9,14,23,-1025
1296,14.980625,2,6,9,14,25,-1024
1297,14.992201,2,6,9,13,25,-1025
1298,15.00375,2,6,8,14,25,-1020
1299,15.015308,2,6,8,13,25,-1019
1300,15.026871,2,6,10,12,21,-1017
1301,15.038432,2,7,9,16,26,-1023
1302,15.050084,3,6,9,12,27,-1025
1303,15.061764,3,6,9,16,21,-1025
1304,15.073423,3,6,10,15,28,-1022
1305,15.085106,2,6,8,14,25,-1016
1306,15.096789,2,5,8,12,28,-1019
1307,15.108465,3,6,8,9,27,-1025
1308,15.120099,2,7,9,2,28,-1026
1309,15.131778,2,6,9,15,29,-1024
1310,15.143436,2,6,9,10,29,-1020
1311,15.155089,2,6,9,14,26,-1018
1312,15.166674,2,5,10,14,25,-1020
1313,15.178224,2,5,9,15,22,-1019
1314,15.189775,2,7,9,16,27,-1021
1315,15.20136,2,6,9,14,28,-1021
1316,15.212929,2,6,9,14,22,-1023
1317,15.224485,3,7,9,12,32,-1023
1318,15.236036,2,7,9,11,26,-1019
1319,15.247625,2,7,8,13,27,-1021
1320,15.259318,2,6,9,13,26,-1018
1321,15.270976,2,6,9,13,26,-1025
1322,15.282627,1,5,9,10,26,-1017
1323,15.294281,1,6,9,15,24,-1017
1324,15.305934,2,6,9,14,26,-1022
1325,15.31763,2,6,9,11,25,-1022
1326,15.3294,2,6,9,15,25,-1018
1327,15.341061,2,6,9,8,25,-1019
1328,15.352765,3,7,8,8,24,-1023
1329,15.364465,3,6,9,9,25,-1015
1330,15.376014,2,7,9,14,28,-1022
1331,15.387559,3,6,10,13,25,-1027
1332,15.399118,2,6,8,17,28,-1030
1333,15.41066,2,6,9,11,25,-1024
1334,15.422276,2,5,9,11,28,-1028
1335,15.433864,2,5,9,14,31,-1025
1336,15.445424,2,6,9,11,24,-1019
1337,15.457003,3,6,9,11,24,-1019
1338,15.46867,3,6,9,11,25,-1020
1339,15.480365,2,6,9,11,22,-1021
1340,15.492121,2,5,9,14,25,-1023
1341,15.503895,2,6,9,13,28,-1020
1342,15.515556,3,6,9,17,25,-1024
1343,15.527215,2,6,9,13,27,-1018
1344,15.538943,2,6,8,14,29,-1017
1345,15.550598,3,6,9,12,23,-1022
1346,15.562273,3,6,10,13,27,-1022
1347,15.573836,2,7,8,13,29,-1024
1348,15.585423,2,6,9,10,29,-1021
1349,15.597006,2,6,9,15,25,-1019
1350,15.608564,2,6,10,12,26,-1023
1351,15.620081,2,6,9,11,24,-1023
1352,15.631621,2,6,9,14,22,-1023
1353,15.643151,2,6,9,9,22,-1020
1354,15.654695,2,7,9,13,26,-1024
1355,15.666315,2,6,9,10,27,-1017
1356,15.677958,2,5,10,12,27,-1024
1357,15.689661,2,6,9,13,27,-1025
1358,15.701322,2,6,8,14,26,-1028
1359,15.712999,3,6,9,11,25,-1022
1360,15.724675,1,5,8,10,26,-1023
1361,15.736341,2,5,9,12,25,-1025
1362,15.74801,2,6,8,11,24,-1021
1363,15.75968,2,5,9,12,26,-1019
1364,15.771357,2,7,9,6,29,-1018
1365,15.782925,2,7,9,13,23,-1022
1366,15.794476,2,7,8,14,27,-1023
1367,15.806028,2,6,9,14,26,-1027
1368,15.817606,2,6,9,15,22,-1026
1369,15.829172,3,7,8,11,22,-1024
1370,15.840747,3,6,9,11,26,-1022
1371,15.852317,2,7,9,9,28,-1017
1372,15.86388,1,6,8,16,24,-1022
1373,15.875531,3,6,9,11,24,-1025
1374,15.887171,2,6,9,11,28,-1013
1375,15.898818,1,6,9,9,25,-1023
1376,15.910532,2,6,9,11,25,-1023
1377,15.922178,2,6,8,14,24,-1022
1378,15.933823,3,6,9,14,27,-1018
1379,15.945546,2,7,9,12,29,-1021
1380,15.957185,3,6,9,10,23,-1024
1381,15.968895,2,7,8,14,26,-1023
1382,15.980555,2,7,9,12,28,-1021
1383,15.99213,3,6,9,12,29,-1022
1384,16.003715,3,7,9,12,24,-1022
1385,16.015262,2,6,10,12,25,-1021
1386,16.026803,2,5,8,10,25,-1019
1387,16.038349,2,5,9,10,28,-1024
1388,16.049894,2,6,9,10,27,-1022
1389,16.061449,3,6,9,13,29,-1018
1390,16.073026,2,6,9,14,27,-1020
1391,16.084671,2,6,9,12,28,-1021
1392,16.096343,2,6,9,10,26,-1017
1393,16.108006,2,6,9,12,25,-1024
1394,16.119664,2,6,8,16,24,-1017
1395,16.13131,3,6,8,11,25,-1019
1396,16.142963,2,5,10,13,25,-1024
1397,16.154617,2,7,10,14,22,-1021
1398,16.166273,2,6,9,7,27,-1018
1399,16.177941,2,6,10,13,24,-1024
1400,16.189623,2,7,9,13,30,-1025
1401,16.20129,2,6,9,13,25,-1025
1402,16.212965,2,6,8,13,28,-1020
1403,16.224614,2,7,10,10,25,-1024
1404,16.236273,2,5,9,12,29,-1022
1405,16.247969,2,6,9,11,24,-1021
1406,16.259647,3,7,8,17,29,-1023
1407,16.271297,2,6,10,11,24,-1027
1408,16.28304,2,5,9,12,26,-1021
1409,16.294687,2,6,8,13,25,-1019
1410,16.306232,2,6,9,13,25,-1023
1411,16.317788,2,6,10,10,25,-1025
1412,16.329359,2,6,9,12,27,-1017
1413,16.340926,3,6,9,12,22,-1024
1414,16.35249,2,6,9,12,22,-1024
1415,16.36403,2,6,9,11,24,-1026
1416,16.375589,3,6,9,15,24,-1012
1417,16.387146,2,6,10,13,27,-1021
1418,16.398804,2,6,9,10,26,-1027
1419,16.410461,1,6,10,12,24,-1019
1420,16.422136,1,6,10,14,25,-1016
1421,16.433785,2,6,9,15,24,-1019
1422,16.445439,2,6,9,13,23,-1021
1423,16.457136,2,6,9,9,28,-1019
1424,16.468804,3,7,9,14,26,-1020
1425,16.480481,3,6,9,12,31,-1019
1426,16.492161,3,6,9,14,24,-1026
1427,16.503731,2,6,9,9,27,-1026
1428,16.515275,2,5,9,12,24,-1023
1429,16.526819,3,5,9,16,25,-1019
1430,16.538371,2,7,9,14,27,-1023
1431,16.549915,3,7,9,10,24,-1022
1432,16.561467,3,5,9,15,23,-1019
1433,16.573045,2,6,10,12,26,-1027
1434,16.584577,2,6,9,15,24,-1031
1435,16.596143,2,6,9,12,22,-1028
1436,16.607826,2,6,10,11,21,-1020
1437,16.619494,2,7,10,9,28,-1024
1438,16.631146,2,6,9,12,23,-1019
1439,16.642792,2,6,9,16,28,-1020
1440,16.654468,3,6,8,14,24,-1021
1441,16.666113,3,5,9,14,25,-1027
1442,16.67777,2,6,10,10,24,-1015
1443,16.68943,2,6,8,10,27,-1023
1444,16.701127,2,6,9,17,25,-1020
1445,16.712802,2,5,9,11,25,-1019
1446,16.72433,3,6,9,14,27,-1021
1447,16.735873,3,7,9,12,25,-1024
1448,16.747415,2,6,9,11,24,-1028
1449,16.758997,1,6,9,13,21,-1023
1450,16.770555,2,6,9,13,24,-1027
1451,16.782109,2,5,9,15,27,-1016
1452,16.793644,2,5,9,16,28,-1020
1453,16.805209,2,5,9,13,25,-1020
1454,16.816896,2,6,9,15,26,-1025
1455,16.828585,2,7,9,12,23,-1022
1456,16.840262,2,7,9,13,21,-1027
1457,16.851927,2,7,9,12,30,-1022
1458,16.863579,2,6,9,12,24,-1023
1459,16.875249,3,6,9,15,27,-1020
1460,16.886901,2,6,9,15,27,-1026
1461,16.89858,2,6,9,11,22,-1022
1462,16.91024,2,7,8,14,25,-1019
1463,16.921912,2,6,9,13,28,-1024
1464,16.933566,3,6,9,14,26,-1022
1465,16.945263,2,6,9,12,29,-1021
1466,16.956925,2,6,9,11,26,-1025
1467,16.968616,2,6,9,13,27,-1022
1468,16.980276,2,7,9,13,23,-1019
1469,16.991928,2,7,9,13,27,-1025
1470,17.003594,3,6,9,13,30,-1021
1471,17.015283,2,6,9,15,27,-1024
1472,17.026978,2,6,9,15,27,-1020
1473,17.038524,2,5,9,10,27,-1025
1474,17.050076,2,6,9,15,24,-1020
1475,17.061619,2,7,9,12,23,-1021
1476,17.073165,3,6,9,9,26,-1026
1477,17.084726,1,6,9,11,24,-1025
1478,17.096306,2,6,9,14,23,-1025
1479,17.10786,2,6,9,12,18,-1018
1480,17.119417,2,7,9,15,22,-1020
1481,17.131036,2,6,10,11,25,-1020
1482,17.142687,2,5,9,17,23,-1025
1483,17.154329,2,6,9,13,24,-1024
1484,17.165982,2,6,9,13,26,-1022
1485,17.177651,1,6,9,14,23,-1019
1486,17.189302,3,7,9,12,23,-1020
1487,17.20098,2,7,9,12,26,-1020
1488,17.212662,2,6,8,12,28,-1021
1489,17.224339,3,5,7,10,24,-1015
1490,17.235992,3,5,9,9,27,-1022
1491,17.247571,2,6,9,12,24,-1020
1492,17.259127,2,6,9,13,23,-1019
1493,17.270671,2,7,9,10,26,-1021
1494,17.282222,2,7,10,14,27,-1022
1495,17.293772,2,6,10,9,20,-1018
1496,17.305323,3,6,9,8,24,-1017
1497,17.316881,1,6,9,11,29,-1027
1498,17.328523,2,5,9,10,26,-1019
1499,17.340151,2,6,9,13,20,-1021
1500,17.35181,2,6,9,15,25,-1026
1501,17.363473,2,6,9,9,25,-1016
1502,17.375132,2,5,10,14,25,-1018
1503,17.38678,2,6,9,11,22,-1020
1504,17.398473,3,6,9,11,25,-1024
1505,17.410118,2,7,8,12,25,-1019
1506,17.421775,2,7,9,8,25,-1022
1507,17.433446,2,6,9,10,22,-1028
1508,17.445131,2,5,9,12,27,-1026
1509,17.45679,2,6,9,13,26,-1016
1510,17.468475,2,6,9,11,22,-1019
1511,17.480094,2,6,8,11,24,-1017
1512,17.491746,2,7,9,14,22,-1021
1513,17.503436,3,5,8,10,29,-1020
1514,17.51508,3,6,9,14,27,-1022
1515,17.526753,3,7,9,15,24,-1018
1516,17.538415,2,6,9,13,26,-1024
1517,17.550115,2,6,9,16,25,-1017
1518,17.561727,2,5,8,9,25,-1028
1519,17.573296,3,6,9,11,23,-1017
1520,17.584861,3,6,8,15,27,-1020
1521,17.596413,3,6,9,11,28,-1022
1522,17.60797,2,6,9,16,27,-1022
1523,17.619521,2,7,8,9,30,-1020
1524,17.631092,2,6,9,11,23,-1018
1525,17.64266,2,6,9,14,26,-1020
1526,17.654316,2,6,10,10,26,-1022
1527,17.665994,2,6,9,13,27,-1019
1528,17.677654,2,6,8,14,26,-1022
1529,17.689308,3,5,9,13,26,-1026
1530,17.701021,3,6,9,10,24,-1019
1531,17.712675,4,7,9,14,24,-1015
1532,17.724348,2,6,8,11,26,-1018
1533,17.736034,2,6,8,11,27,-1017
1534,17.747692,2,7,9,13,23,-1018
1535,17.759369,2,5,10,14,23,-1023
1536,17.770981,2,6,8,14,27,-1025
1537,17.782557,3,6,9,11,25,-1023
1538,17.794105,2,6,9,12,25,-1029
1539,17.805652,2,6,8,9,26,-1025
1540,17.817226,2,6,9,12,24,-1025
1541,17.828798,2,6,9,10,27,-1020
1542,17.840326,2,7,10,15,27,-1023
1543,17.851882,2,7,8,7,24,-1022
1544,17.863508,2,6,9,12,26,-1023
1545,17.875162,2,6,9,15,23,-1023
1546,17.886844,2,6,9,11,27,-1024
1547,17.898505,2,6,9,9,19,-1023
1548,17.910161,2,6,10,15,28,-1019
1549,17.921806,3,6,10,16,24,-1020
1550,17.933465,2,7,9,12,25,-1014
1551,17.945132,2,7,8,16,28,-1018
1552,17.956785,2,6,10,9,26,-1019
1553,17.968321,2,6,9,13,28,-1024
1554,17.979864,2,7,9,16,29,-1029
1555,17.991404,3,5,9,14,20,-1025
1556,18.002948,2,7,10,11,24,-1023
1557,18.014492,3,6,9,12,27,-1026
1558,18.026111,2,6,9,15,26,-1025
1559,18.03778,1,6,9,14,23,-1025
1560,18.04935,2,6,9,12,24,-1018
1561,18.06093,2,7,9,15,25,-1024
1562,18.072545,2,6,9,14,25,-1023
1563,18.08421,2,7,9,12,24,-1021
1564,18.095889,2,6,10,9,25,-1017
1565,18.107543,2,6,10,11,23,-1018
1566,18.119179,2,6,9,13,22,-1020
1567,18.130851,2,5,9,10,25,-1021
1568,18.142518,2,6,9,13,26,-1016
1569,18.154152,2,6,9,11,27,-1020
1570,18.165809,2,6,9,13,24,-1020
1571,18.177505,2,6,9,11,25,-1021
1572,18.18905,2,6,9,17,24,-1021
1573,18.200563,2,6,10,12,27,-1022
1574,18.212083,2,6,9,15,24,-1020
1575,18.223635,2,6,9,14,28,-1020
1576,18.235223,2,7,9,11,24,-1020
1577,18.246772,2,6,9,9,26,-1018
1578,18.258334,2,6,9,8,25,-1023
1579,18.269883,1,6,9,7,27,-1022
1580,18.281549,2,6,9,13,24,-1017
1581,18.293258,2,6,9,13,25,-1014
1582,18.304922,2,5,9,12,26,-1021
1583,18.316614,2,6,9,14,24,-1015
1584,18.328279,2,6,9,12,29,-1013
1585,18.339936,3,6,9,13,26,-1018
1586,18.351605,3,6,9,13,25,-1021
1587,18.363264,3,6,9,12,25,-1020
1588,18.374941,2,6,8,13,28,-1023
1589,18.386523,2,7,9,13,27,-1020
1590,18.398066,3,6,8,14,26,-1026
1591,18.409613,2,6,8,9,24,-1018
1592,18.421169,2,6,9,11,27,-1022
1593,18.432729,2,6,9,13,23,-1021
1594,18.444327,3,6,9,12,22,-1018
1595,18.455877,2,6,9,12,24,-1020
1596,18.467464,2,6,8,12,26,-1017
1597,18.479019,3,5,9,18,27,-1020
1598,18.49065,2,6,8,12,25,-1015
1599,18.502323,2,6,9,15,26,-1019
1600,18.514006,2,6,9,15,23,-1013
1601,18.525666,2,6,10,9,28,-1017
1602,18.537312,2,6,9,11,30,-1022
1603,18.548998,2,6,9,16,24,-1027
1604,18.560659,2,6,9,13,24,-1025
1605,18.572349,2,7,9,10,26,-1017
1606,18.584025,2,6,8,14,23,-1024
1607,18.595685,3,6,9,16,24,-1024
1608,18.60725,3,6,9,13,26,-1026
1609,18.618841,2,6,8,12,25,-1025
1610,18.630387,3,6,9,14,25,-1026
1611,18.641932,2,6,9,9,31,-1022
1612,18.655875,2,7,9,13,28,-1028
1613,18.667466,2,6,9,14,27,-1019
1614,18.679017,2,7,9,10,25,-1023
1615,18.690568,2,7,9,13,27,-1020
1616,18.702128,2,6,10,9,25,-1024
1617,18.713717,2,7,9,16,23,-1018
1618,18.725293,3,6,9,11,24,-1025
1619,18.736858,2,6,9,11,24,-1022
1620,18.748399,2,6,8,15,25,-1025
1621,18.759947,2,6,9,9,25,-1020
1622,18.771497,2,6,9,10,26,-1023
1623,18.783046,1,6,9,11,24,-1014
1624,18.794611,2,6,8,11,25,-1022
1625,18.806288,2,6,9,12,30,-1022
1626,18.817931,2,6,9,10,25,-1024
1627,18.829648,2,6,9,10,23,-1020
1628,18.841311,2,6,9,11,25,-1018
1629,18.852992,2,6,9,14,23,-1018
1630,18.864662,2,6,9,10,24,-1018
1631,18.876357,2,6,9,11,22,-1026
1632,18.88803,2,6,9,13,24,-1017
1633,18.89976,3,7,9,11,26,-1015
1634,18.91134,2,6,9,12,25,-1020
1635,18.922879,2,6,8,17,28,-1023
1636,18.934419,2,6,8,13,26,-1028
1637,18.945995,2,6,9,11,26,-1024
1638,18.957562,2,6,9,12,22,-1021
1639,18.969126,2,7,9,14,27,-1020
1640,18.980727,3,6,9,12,24,-1019
1641,18.992323,2,6,9,12,30,-1015
1642,19.003938,3,7,9,9,29,-1020
1643,19.015606,2,6,10,14,27,-1028
1644,19.027263,2,6,9,13,23,-1009
1645,19.038913,1,6,9,9,23,-1020
1646,19.050557,2,6,9,14,26,-1022
1647,19.062392,3,5,8,14,25,-1026
1648,19.074051,2,5,8,16,28,-1022
1649,19.085704,3,7,9,14,21,-1021
1650,19.097402,2,6,9,14,24,-1020
1651,19.109054,2,6,9,14,24,-1020
1652,19.120745,2,6,9,13,26,-1020
1653,19.132412,2,7,9,16,24,-1021
1654,19.144083,2,6,8,10,22,-1023
1655,19.155741,2,6,8,16,28,-1023
1656,19.167395,2,6,9,11,27,-1018
1657,19.179038,2,6,8,12,24,-1020
1658,19.190687,3,7,9,10,26,-1018
1659,19.20239,2,6,9,8,31,-1022
1660,19.214042,2,6,9,9,25,-1018
1661,19.22569,2,6,9,12,29,-1026
1662,19.237384,3,6,9,17,25,-1021
1663,19.249037,2,6,9,15,25,-1017
1664,19.260687,2,6,9,11,25,-1020
1665,19.272388,2,5,9,8,23,-1018
1666,19.284064,2,6,9,13,28,-1019
1667,19.29581,2,6,9,15,26,-1020
1668,19.307574,2,5,9,13,23,-1020
1669,19.319249,2,6,9,16,24,-1020
1670,19.330832,2,6,9,8,25,-1027
1671,19.342391,3,6,9,13,26,-1020
1672,19.353958,2,6,8,14,25,-1020
1673,19.365576,3,6,9,11,24,-1017
1674,19.377178,2,5,9,11,26,-1023
1675,19.38873,2,5,9,16,26,-1028
1676,19.400289,2,6,8,10,24,-1016
1677,19.411849,2,5,9,12,27,-1027
1678,19.423556,2,5,9,14,29,-1026
1679,19.435262,2,6,9,14,25,-1017
1680,19.446908,2,6,9,11,27,-1023
1681,19.458562,2,7,8,18,26,-1020
1682,19.470243,2,6,8,10,23,-1025
1683,19.481887,2,5,9,10,27,-1016
1684,19.493548,3,6,9,11,23,-1021
1685,19.505243,2,6,9,13,26,-1021
1686,19.516881,2,6,10,15,23,-1018
1687,19.528538,3,6,9,13,26,-1023
1688,19.540131,3,6,8,10,25,-1025
1689,19.551709,3,6,9,14,20,-1018
1690,19.563262,3,5,9,15,27,-1019
1691,19.574832,3,6,10,11,26,-1015
1692,19.586385,3,6,9,12,28,-1017
1693,19.597954,3,6,10,12,26,-1021
1694,19.609536,2,6,9,11,26,-1023
1695,19.621104,2,6,9,12,27,-1015
1696,19.632744,1,5,9,12,27,-1023
1697,19.644438,2,6,9,11,24,-1020
1698,19.6561,2,6,9,13,24,-1024
1699,19.667753,2,6,8,13,27,-1022
1700,19.679404,3,6,9,12,25,-1027
1701,19.691053,3,5,9,15,22,-1025
1702,19.702732,3,6,9,15,27,-1019
1703,19.714392,3,6,9,9,23,-1026
1704,19.726058,3,6,9,13,24,-1024
1705,19.737719,3,6,8,13,22,-1029
1706,19.749333,2,6,9,14,26,-1020
1707,19.760879,3,6,10,9,29,-1019
1708,19.772449,2,7,9,13,26,-1022
1709,19.783997,3,6,10,9,26,-1022
1710,19.795557,3,6,10,12,28,-1028
1711,19.807112,2,6,9,11,21,-1025
1712,19.81871,2,5,9,12,25,-1023
1713,19.830267,2,6,9,16,23,-1019
1714,19.841889,2,6,9,13,22,-1027
1715,19.853557,2,6,8,12,29,-1023
1716,19.865275,2,6,10,11,24,-1022
1717,19.876937,2,6,9,16,24,-1025
1718,19.888633,2,7,9,15,23,-1023
1719,19.900293,3,7,8,9,28,-1020
1720,19.911938,2,6,9,13,25,-1022
1721,19.923614,2,6,9,14,26,-1023
1722,19.935285,2,6,9,12,26,-1021
1723,19.946933,2,7,9,14,25,-1023
1724,19.958499,2,5,9,14,28,-1017
1725,19.970075,2,6,10,12,27,-1023
1726,19.98163,2,6,9,12,26,-1028
1727,19.993205,2,6,9,13,26,-1029
1728,20.004756,2,6,9,12,28,-1024
1729,20.016343,2,6,8,12,28,-1021
1730,20.027895,2,7,9,13,25,-1017
1731,20.039459,2,6,9,8,25,-1023
1732,20.051162,2,7,9,12,28,-1024
1733,20.062835,2,5,9,15,28,-1024
1734,20.074515,2,6,9,9,27,-1021
1735,20.086262,3,7,10,14,28,-1021
1736,20.097913,3,6,9,13,25,-1019
1737,20.109575,2,6,9,14,24,-1018
1738,20.121264,3,6,9,12,27,-1023
1739,20.13292,3,6,10,13,24,-1024
1740,20.144634,2,6,9,9,26,-1026
1741,20.156293,2,7,8,11,23,-1021
1742,20.167855,1,6,9,12,23,-1024
1743,20.179441,2,5,9,16,29,-1010
1744,20.190987,2,6,9,8,26,-1021
1745,20.202526,2,5,9,14,24,-1018
1746,20.214075,3,6,8,11,26,-1021
1747,20.225619,3,6,9,13,31,-1019
1748,20.237174,3,7,9,11,24,-1020
1749,20.248738,2,7,9,13,27,-1020
1750,20.260362,2,6,8,17,29,-1022
1751,20.27202,2,6,9,14,26,-1026
1752,20.283675,2,6,9,14,24,-1022
1753,20.29532,2,6,9,11,26,-1025
1754,20.306981,2,5,9,11,27,-1016
1755,20.318639,2,6,9,12,28,-1026
1756,20.330278,2,6,9,14,25,-1021
1757,20.341927,2,6,9,17,25,-1022
1758,20.353641,2,6,9,11,26,-1026
1759,20.365313,2,6,8,8,27,-1024
1760,20.376879,3,6,9,12,26,-1020
1761,20.388472,2,6,9,13,29,-1021
1762,20.400063,2,6,8,11,26,-1015
1763,20.411622,2,7,9,14,27,-1021
1764,20.423205,3,5,8,11,26,-1027
1765,20.434761,2,6,9,11,26,-1019
1766,20.446323,2,5,9,11,25,-1027
1767,20.45788,2,7,9,16,29,-1026
1768,20.469533,2,6,10,11,27,-1022
1769,20.481215,3,5,9,15,22,-1020
1770,20.492867,3,5,9,8,25,-1022
1771,20.504521,3,6,9,13,25,-1019
1772,20.516172,2,6,9,11,26,-1015
1773,20.527816,3,6,8,16,26,-1022
1774,20.539463,3,6,10,13,24,-1016
1775,20.551129,2,6,9,10,24,-1016
1776,20.562765,3,7,8,17,25,-1024
1777,20.574414,2,6,9,18,25,-1016
1778,20.58609,2,6,9,15,25,-1020
1779,20.597762,2,6,9,11,27,-1022
1780,20.609421,3,7,9,11,25,-1018
1781,20.621123,3,6,9,12,28,-1023
1782,20.632777,2,6,9,15,24,-1027
1783,20.644431,3,7,9,11,26,-1026
1784,20.656099,2,6,8,14,28,-1020
1785,20.667761,2,6,9,14,23,-1025
1786,20.679413,2,6,10,13,26,-1019
1787,20.691077,2,7,9,13,23,-1022
1788,20.702739,2,7,8,13,25,-1021
1789,20.71439,2,6,9,16,25,-1016
1790,20.72604,2,6,8,13,29,-1020
1791,20.737705,2,6,8,13,21,-1025
1792,20.749378,2,7,9,15,27,-1022
1793,20.761066,2,6,9,11,27,-1019
1794,20.772778,2,6,9,12,25,-1025
1795,20.784434,2,6,9,9,25,-1026
1796,20.796098,2,6,8,10,26,-1020
1797,20.807746,2,6,9,11,27,-1022
1798,20.819396,2,6,9,15,26,-1019
1799,20.831043,3,6,9,18,24,-1023
1800,20.842715,1,7,9,13,26,-1021
1801,20.854394,2,6,9,13,23,-1022
1802,20.866039,2,6,9,16,23,-1019
1803,20.877724,3,6,9,11,27,-1021
1804,20.889387,3,5,9,14,27,-1024
1805,20.901037,2,6,9,12,26,-1024
1806,20.912691,2,6,9,15,23,-1025
1807,20.924349,3,6,8,12,23,-1027
1808,20.936,2,5,9,13,25,-1019
1809,20.947651,2,6,9,13,24,-1021
1810,20.959314,3,7,9,14,30,-1024
1811,20.970981,2,6,9,13,28,-1017
1812,20.982642,2,6,8,14,24,-1020
1813,20.994296,2,6,9,12,25,-1024
1814,21.005989,2,6,9,15,28,-1018
1815,21.017643,2,6,9,12,25,-1031
1816,21.029315,2,6,9,8,23,-1017
1817,21.041001,2,6,9,13,22,-1023
1818,21.052663,2,6,9,16,28,-1016
1819,21.06435,2,6,9,13,29,-1025
1820,21.076009,3,6,9,12,25,-1025
1821,21.08773,2,6,9,13,28,-1020
1822,21.099429,2,6,8,12,24,-1029
1823,21.111012,2,7,8,13,24,-1022
1824,21.122611,2,6,8,16,27,-1018
1825,21.134186,2,6,8,13,27,-1026
1826,21.145745,3,5,9,12,26,-1015
1827,21.157318,2,5,9,12,25,-1022
1828,21.168863,1,5,9,11,24,-1024
1829,21.180444,2,6,9,13,27,-1023
1830,21.192022,2,6,9,14,25,-1017
1831,21.203643,2,5,9,11,23,-1020
1832,21.215295,2,6,9,11,30,-1020
1833,21.226986,3,6,9,11,28,-1019
1834,21.238627,3,6,9,12,25,-1024
1835,21.250275,2,6,10,15,27,-1017
1836,21.26194,2,6,9,13,26,-1022
1837,21.273619,2,6,9,16,27,-1018
1838,21.285277,2,6,9,13,23,-1014
1839,21.296963,2,6,8,14,26,-1018
1840,21.308518,3,6,8,11,25,-1024
1841,21.320083,2,5,8,11,24,-1031
1842,21.331684,2,6,9,14,25,-1021
1843,21.343234,3,6,9,9,24,-1023
1844,21.354821,2,6,9,12,26,-1017
1845,21.366391,2,6,9,14,25,-1018
1846,21.377946,3,5,9,16,20,-1021
1847,21.389553,2,6,8,15,23,-1025
1848,21.40111,2,6,9,9,28,-1029
1849,21.412749,2,7,9,13,26,-1024
1850,21.424406,2,7,8,16,24,-1021
1851,21.436084,2,6,9,17,28,-1022
1852,21.447755,2,6,10,16,25,-1023
1853,21.459398,2,6,9,14,24,-1027
1854,21.471048,3,6,9,12,26,-1022
1855,21.482741,3,6,9,9,24,-1017
1856,21.494519,2,5,9,11,26,-1025
1857,21.506306,2,6,9,16,28,-1020
1858,21.517873,2,6,10,11,24,-1020
1859,21.529442,2,6,9,7,25,-1025
1860,21.540985,2,6,9,15,23,-1027
1861,21.552563,2,7,9,15,24,-1016
1862,21.564126,2,7,9,13,22,-1023
1863,21.575671,1,6,9,12,24,-1022
1864,21.587222,2,6,9,11,25,-1023
1865,21.598801,2,6,8,12,24,-1023
1866,21.610349,2,6,9,13,26,-1023
1867,21.622005,1,6,9,12,24,-1018
1868,21.633654,2,5,8,11,24,-1023
1869,21.64533,2,7,9,11,24,-1021
1870,21.657002,3,7,9,11,26,-1024
1871,21.66866,2,7,9,10,23,-1021
1872,21.680347,3,6,8,12,21,-1021
1873,21.692003,2,6,9,11,29,-1022
1874,21.703672,3,6,8,14,22,-1024
1875,21.715365,2,6,9,14,25,-1022
1876,21.726927,3,6,8,11,27,-1023
1877,21.738485,2,5,8,9,24,-1018
1878,21.750038,3,6,9,13,24,-1023
1879,21.761581,2,6,8,13,25,-1023
1880,21.773193,2,6,9,15,21,-1030
1881,21.784744,2,6,9,12,25,-1030
1882,21.796321,2,5,9,14,25,-1023
1883,21.807887,2,6,8,11,23,-1028
1884,21.819508,2,6,9,14,25,-1026
1885,21.831151,2,6,8,16,26,-1016
1886,21.842856,2,6,8,9,26,-1022
1887,21.854509,2,6,9,10,20,-1014
1888,21.866166,2,6,9,8,27,-1023
1889,21.877833,2,7,8,13,27,-1024
1890,21.88951,2,7,9,13,23,-1012
1891,21.901183,2,7,9,12,23,-1021
1892,21.912877,3,6,9,14,24,-1029
1893,21.924535,2,6,9,17,25,-1026
1894,21.93609,2,5,9,12,23,-1023
1895,21.947687,2,5,9,17,25,-1018
1896,21.959235,2,7,8,9,23,-1018
1897,21.970811,2,6,8,15,27,-1023
1898,21.982353,2,6,8,15,29,-1024
1899,21.993898,2,6,9,11,23,-1026
1900,22.005449,2,6,9,13,28,-1021
1901,22.017052,2,6,9,13,24,-1021
1902,22.02876,3,7,9,11,24,-1020
1903,22.040429,2,6,9,9,26,-1020
1904,22.052094,3,7,10,14,26,-1018
1905,22.063745,2,7,8,13,28,-1022
1906,22.075392,2,5,10,10,24,-1021
1907,22.087043,3,6,9,11,25,-1025
1908,22.098687,3,6,9,13,26,-1019
1909,22.110336,2,5,9,13,27,-1024
1910,22.122015,2,6,9,13,24,-1024
1911,22.133737,3,7,10,10,24,-1027
1912,22.145298,2,6,9,14,26,-1024
1913,22.15685,2,6,10,9,26,-1022
1914,22.168443,2,5,10,14,25,-1017
1915,22.179991,2,6,9,14,29,-1022
1916,22.191559,2,6,9,13,25,-1018
1917,22.203098,2,6,9,14,30,-1017
1918,22.214636,2,5,8,14,23,-1018
1919,22.226195,3,6,9,12,26,-1023
1920,22.237878,3,6,9,16,29,-1025
1921,22.249552,3,6,9,14,24,-1023
1922,22.261248,3,6,9,17,25,-1021
1923,22.272862,2,6,9,13,26,-1031
1924,22.284517,2,6,9,13,30,-1020
1925,22.296223,2,6,9,10,27,-1025
1926,22.307864,2,5,8,16,25,-1025
1927,22.319518,2,7,9,12,22,-1023
1928,22.331217,2,7,10,12,22,-1021
1929,22.342868,2,6,8,15,23,-1025
1930,22.35443,2,6,9,14,27,-1023
1931,22.366001,2,6,9,12,25,-1021
1932,22.377554,2,5,9,15,24,-1023
1933,22.389103,2,6,9,13,27,-1023
1934,22.400682,3,6,9,9,25,-1016
1935,22.412233,3,6,9,11,26,-1023
1936,22.423786,2,6,10,12,23,-1025
1937,22.435346,2,7,10,11,24,-1020
1938,22.446977,3,6,9,13,23,-1024
1939,22.458631,2,6,9,14,23,-1023
1940,22.470283,2,6,9,11,27,-1022
1941,22.481925,2,5,9,13,24,-1020
1942,22.493598,3,5,9,14,22,-1027
1943,22.505252,2,6,8,12,28,-1023
1944,22.5169,2,7,9,9,26,-1017
1945,22.528598,2,6,8,12,26,-1020
1946,22.540271,2,6,9,11,24,-1030
1947,22.551924,2,6,9,15,24,-1021
1948,22.56348,2,6,9,12,24,-1024
1949,22.575051,3,6,9,14,26,-1020
1950,22.586615,3,6,8,11,26,-1019
1951,22.598177,2,6,9,13,23,-1024
1952,22.609747,3,7,8,12,26,-1017
1953,22.621308,2,6,9,16,33,-1024
1954,22.632857,3,6,9,15,29,-1019
1955,22.644463,2,6,9,14,22,-1019
1956,22.656108,2,6,8,15,26,-1018
1957,22.667771,3,6,8,13,27,-1015
1958,22.67942,2,6,9,17,28,-1022
1959,22.691092,2,7,9,14,25,-1018
1960,22.702748,3,6,9,11,25,-1020
1961,22.714393,2,6,8,12,24,-1019
1962,22.726041,2,6,9,11,28,-1019
1963,22.737725,2,6,9,14,24,-1020
1964,22.749384,2,6,8,10,24,-1012
1965,22.761083,2,5,10,11,25,-1025
1966,22.7727,2,6,9,12,25,-1021
1967,22.784306,3,6,9,9,20,-1020
1968,22.795856,3,5,9,14,24,-1020
1969,22.807405,3,6,9,13,20,-1026
1970,22.818954,2,6,9,13,23,-1025
1971,22.830527,2,6,9,12,26,-1024
1972,22.842082,2,6,9,11,25,-1017
1973,22.853687,2,6,9,15,23,-1025
1974,22.865391,2,7,9,14,29,-1017
1975,22.877072,2,6,9,13,24,-1025
1976,22.888737,3,6,9,12,29,-1023
1977,22.900351,2,7,8,13,26,-1020
1978,22.912002,2,6,9,12,27,-1022
1979,22.923669,2,7,9,15,24,-1027
1980,22.935344,2,7,9,15,26,-1027
1981,22.946993,3,6,9,11,29,-1012
1982,22.958658,3,7,9,10,27,-1023
1983,22.970316,3,6,9,12,23,-1018
1984,22.981894,2,6,10,9,27,-1019
1985,22.993455,2,6,9,12,25,-1018
1986,23.005045,2,6,9,12,25,-1019
1987,23.016569,3,6,9,16,27,-1023
1988,23.028163,2,6,10,14,29,-1021
1989,23.039714,2,6,9,10,25,-1021
1990,23.051292,2,6,9,10,23,-1018
1991,23.062848,2,6,9,12,25,-1022
1992,23.074473,3,6,9,10,24,-1023
1993,23.08613,3,6,9,21,29,-1019
1994,23.097794,2,6,8,12,27,-1021
1995,23.109461,2,6,8,11,30,-1017
1996,23.121122,2,6,9,11,24,-1023
1997,23.132793,2,6,9,9,25,-1022
1998,23.144478,2,6,9,16,27,-1027
1999,23.156137,2,5,9,10,27,-1022
