sample,t_s,gyro_x,gyro_y,gyro_z,accel_x,accel_y,accel_z
0,2.3e-05,0,-1,1,-1,-2,-1023
1,0.011756,0,0,-1,-1,2,-1025
2,0.023421,0,0,-1,-2,1,-1021
3,0.035118,0,0,0,0,-4,-1026
4,0.046777,0,1,0,-1,-2,-1022
5,0.058478,0,0,1,1,0,-1037
6,0.070136,-1,0,0,-1,-1,-1020
7,0.081786,0,0,0,-2,3,-1023
8,0.093443,-1,0,0,-4,2,-1018
9,0.1051,-1,-1,0,0,0,-1020
10,0.11676,-1,0,1,1,1,-1023
11,0.128429,-1,-1,0,-4,5,-1023
12,0.140109,0,-1,-1,-2,-3,-1026
13,0.151762,0,-1,0,-2,4,-1025
14,0.16342,0,-1,0,-4,-3,-1024
15,0.17512,0,1,1,1,-5,-1021
16,0.186772,0,0,0,0,0,-1017
17,0.198487,-1,0,0,2,-3,-1020
18,0.210144,-1,-1,0,1,3,-1022
19,0.2218,-1,0,0,0,-1,-1028
20,0.233557,0,0,0,-3,-4,-1026
21,0.245234,-1,0,0,-2,1,-1026
22,0.256824,0,0,-1,-2,0,-1019
23,0.268391,-1,-1,-1,-4,0,-1020
24,0.279988,0,1,1,-1,-2,-1029
25,0.291586,0,0,0,-1,-1,-1022
26,0.303162,0,0,0,-3,3,-1022
27,0.314728,0,1,0,2,-3,-1024
28,0.326303,-1,1,-1,0,3,-1020
29,0.33787,0,0,0,-1,0,-1025
30,0.349571,0,1,0,-1,5,-1026
31,0.36127,0,0,0,-3,1,-1024
32,0.372927,0,0,0,2,-1,-1025
33,0.384602,-1,-2,0,1,-1,-1018
34,0.396264,-1,-1,0,-1,3,-1019
35,0.407911,-1,0,0,-1,-1,-1029
36,0.419575,0,0,0,0,1,-1022
37,0.431266,-1,0,0,-3,-3,-1024
38,0.442948,-1,0,0,-1,1,-1016
39,0.454623,0,-1,1,-2,4,-1024
40,0.466194,0,0,0,2,0,-1028
41,0.477753,-1,-1,0,0,2,-1025
42,0.489318,-1,0,0,0,2,-1033
43,0.500872,-1,0,0,-3,0,-1017
44,0.512477,0,0,0,2,2,-1024
45,0.524055,-1,0,0,1,-4,-1020
46,0.535598,-1,-1,0,2,0,-1022
47,0.547182,0,-1,0,3,2,-1024
48,0.558881,-1,-1,0,2,3,-1022
49,0.570582,0,0,0,-3,1,-1029
50,0.582261,0,0,0,-2,0,-1023
51,0.59392,0,0,0,-1,4,-1030
52,0.605584,0,0,-1,1,1,-1029
53,0.61725,0,-1,0,-2,-1,-1026
54,0.628894,-1,0,0,-1,-4,-1026
55,0.640545,0,0,0,-2,0,-1021
56,0.65222,0,0,0,-2,-1,-1027
57,0.66391,-1,0,0,1,0,-1023
58,0.675467,-1,0,-1,-4,1,-1022
59,0.687063,0,1,0,-2,6,-1027
60,0.69862,0,1,-1,2,-2,-1026
61,0.710202,0,-1,0,0,1,-1030
62,0.721744,-1,0,1,0,2,-1016
63,0.733296,0,-1,0,-3,2,-1022
64,0.744843,-1,-1,0,2,-1,-1026
65,0.756403,-1,0,1,-5,0,-1020
66,0.768019,-1,-1,0,-1,0,-1023
67,0.779676,-1,-1,0,-3,1,-1023
68,0.79138,-1,0,0,2,-4,-1024
69,0.803036,-1,0,1,0,1,-1024
70,0.814715,-1,0,0,-3,4,-1019
71,0.826399,-1,-1,0,-4,2,-1026
72,0.838067,-1,0,0,0,-3,-1020
73,0.849733,0,0,-1,1,2,-1020
74,0.861404,-1,-1,0,3,-4,-1020
75,0.873067,-1,0,0,2,1,-1029
76,0.884634,0,-1,0,-3,-4,-1019
77,0.896223,0,0,0,9,0,-1026
78,0.907779,-1,-1,0,-2,0,-1034
79,0.919339,-1,0,0,-3,7,-1026
80,0.930909,0,0,0,1,-4,-1023
81,0.942471,-1,0,0,-4,2,-1021
82,0.954014,0,-1,0,0,1,-1024
83,0.965586,-1,0,0,-6,-1,-1021
84,0.977215,0,-1,0,-1,3,-1030
85,0.988879,-1,0,0,0,3,-1025
86,1.000529,-1,0,-1,-2,-2,-1028
87,1.012185,0,-1,0,2,0,-1019
88,1.023828,0,-1,0,-4,0,-1021
89,1.035509,0,0,0,1,-3,-1023
90,1.047166,-1,0,0,-3,3,-1027
91,1.058858,-1,0,0,1,-1,-1024
92,1.070533,0,-1,1,3,-1,-1021
93,1.082209,0,0,-1,-5,2,-1025
94,1.09377,0,0,0,0,-2,-1022
95,1.10534,0,-1,0,-2,1,-1018
96,1.116882,-1,0,0,-2,1,-1024
97,1.12843,0,-1,0,-1,4,-1030
98,1.139992,0,0,0,0,0,-1028
99,1.151583,0,0,-1,-3,0,-1012
100,1.163162,0,0,0,-4,-1,-1024
101,1.174744,0,0,1,-1,2,-1024
102,1.186406,0,0,0,1,3,-1025
103,1.198087,0,0,0,-1,3,-1023
104,1.209747,-1,0,0,-4,1,-1021
105,1.221411,-1,0,0,0,-1,-1026
106,1.233061,-1,0,0,-1,0,-1025
107,1.244714,0,0,-1,-2,2,-1024
108,1.256394,0,-1,-1,-5,3,-1025
109,1.268067,0,0,0,-2,3,-1024
110,1.279738,0,0,0,0,-2,-1025
111,1.291311,0,-1,0,-2,0,-1020
112,1.302876,-1,-1,0,-3,-1,-1024
113,1.31449,0,-1,0,-2,-2,-1023
114,1.326074,-1,0,0,-3,3,-1026
115,1.33762,0,0,-1,0,3,-1012
116,1.349168,0,0,0,0,1,-1022
117,1.36072,0,-1,0,3,0,-1021
118,1.372277,0,0,0,0,1,-1025
119,1.383841,0,-1,0,1,2,-1024
120,1.395499,-1,-1,-1,-1,2,-1022
121,1.407162,-1,0,0,-3,-6,-1020
122,1.418878,0,-1,0,0,3,-1031
123,1.430542,-1,-1,0,0,-2,-1024
124,1.442216,-1,1,0,2,-1,-1024
125,1.453895,-1,0,0,2,1,-1024
126,1.465553,0,0,0,-3,-3,-1028
127,1.477204,0,0,0,2,1,-1022
128,1.488898,-1,0,0,-1,6,-1030
129,1.500579,-1,0,0,0,-3,-1020
130,1.512143,-1,-1,0,1,0,-1028
131,1.523694,0,0,0,2,1,-1018
132,1.535278,0,0,0,-1,1,-1018
133,1.546848,0,-1,0,0,2,-1024
134,1.558422,-1,0,-1,2,1,-1028
135,1.569971,-1,0,-1,-5,4,-1025
136,1.581514,-1,0,-1,-2,3,-1020
137,1.593086,0,0,1,-5,4,-1023
138,1.6047,-1,0,0,-3,-2,-1022
139,1.616351,0,-1,0,-2,-1,-1023
140,1.628008,0,0,-1,0,-3,-1019
141,1.639662,0,-1,0,5,0,-1020
142,1.65137,0,-1,0,2,-2,-1023
143,1.66303,0,-1,0,-1,1,-1024
144,1.674707,1,0,0,-1,3,-1026
145,1.686392,-1,-1,0,3,5,-1025
146,1.698044,-1,0,0,0,1,-1023
147,1.709726,0,0,0,-3,0,-1027
148,1.721285,0,0,0,1,0,-1022
149,1.732856,-1,0,0,2,-2,-1017
150,1.744445,-1,0,0,-2,-4,-1022
151,1.756002,0,-1,0,-1,1,-1024
152,1.767589,-1,0,0,-1,-2,-1028
153,1.779155,0,0,0,0,2,-1024
154,1.790712,0,0,1,0,3,-1022
155,1.802288,-1,-1,0,-1,-4,-1026
156,1.813912,0,-1,0,-1,1,-1020
157,1.825567,0,0,0,-3,2,-1024
158,1.837236,0,-1,0,0,-1,-1022
159,1.84889,-1,-1,0,2,1,-1024
160,1.860541,-1,0,0,-3,1,-1021
161,1.872187,-1,-1,0,2,-1,-1021
162,1.883837,0,-1,0,-2,3,-1014
163,1.895538,0,0,1,0,5,-1022
164,1.907208,-1,0,0,0,-2,-1022
165,1.918856,-1,0,0,-2,2,-1021
166,1.930436,-1,1,0,-1,1,-1024
167,1.941984,0,0,1,-1,4,-1021
168,1.953556,0,-1,0,2,2,-1024
169,1.965142,-1,-1,0,-2,2,-1022
170,1.976713,0,0,0,-2,0,-1027
171,1.98826,0,0,0,-1,5,-1026
172,1.999842,0,0,0,1,0,-1024
173,2.011424,0,0,0,-3,1,-1025
174,2.023041,-1,-1,1,-2,0,-1023
175,2.034724,-1,0,0,3,-1,-1022
176,2.046401,0,-1,0,-2,-1,-1027
177,2.058084,0,-1,0,0,3,-1025
178,2.069737,-1,0,-1,1,-2,-1023
179,2.081407,0,0,0,-1,-1,-1022
180,2.093065,0,0,0,-2,-2,-1027
181,2.104717,-1,-1,0,2,-2,-1014
182,2.116403,0,0,0,1,0,-1025
183,2.128061,0,-1,-1,2,2,-1017
184,2.139622,-1,-1,0,-3,1,-1025
185,2.151221,-1,-1,1,-2,2,-1026
186,2.162798,-1,-1,0,1,4,-1028
187,2.174356,0,0,0,1,1,-1019
188,2.185924,0,0,0,1,1,-1026
189,2.197475,-1,0,0,-1,-2,-1027
190,2.209016,0,-1,1,-4,1,-1022
191,2.220596,-1,0,0,-1,4,-1024
192,2.232245,0,0,0,-1,3,-1026
193,2.243924,0,-1,0,2,1,-1020
194,2.255629,-1,0,0,1,0,-1025
195,2.26729,-1,0,0,1,-1,-1030
196,2.278994,-1,0,0,1,0,-1021
197,2.290656,0,0,-1,0,-2,-1019
198,2.302348,0,0,0,-2,1,-1023
199,2.314022,-1,-1,-1,-2,1,-1024
200,2.325735,-1,-1,-1,-1,-4,-1021
201,2.33741,0,-1,0,3,1,-1024
202,2.348975,0,0,-1,3,-1,-1025
203,2.360519,0,0,0,-1,2,-1016
204,2.372062,0,-1,0,2,1,-1023
205,2.383609,-1,-1,0,0,4,-1019
206,2.395162,-1,0,0,-4,5,-1019
207,2.406718,0,0,0,-2,-3,-1023
208,2.418259,-1,0,0,2,-2,-1023
209,2.429825,0,0,0,-3,-4,-1028
210,2.441443,0,-1,0,-2,0,-1015
211,2.453091,0,0,0,0,-1,-1027
212,2.464755,-1,0,0,2,-2,-1026
213,2.476414,0,-1,0,0,-2,-1022
214,2.488056,0,0,1,-1,0,-1023
215,2.499708,-1,0,1,-1,-1,-1023
216,2.51139,-1,0,0,0,-1,-1029
217,2.52304,-1,0,1,1,0,-1024
218,2.534731,-1,0,0,1,0,-1028
219,2.546402,-1,1,0,1,1,-1024
220,2.55795,0,0,0,-1,1,-1020
221,2.569503,0,0,-1,-1,0,-1022
222,2.581084,-1,0,-1,-2,-2,-1022
223,2.592634,0,0,0,-6,0,-1024
224,2.604215,0,0,0,-6,-1,-1021
225,2.615759,1,-1,0,-1,2,-1024
226,2.627276,0,1,0,-1,-1,-1021
227,2.638807,-1,0,0,4,0,-1026
228,2.650464,-2,-1,-1,-1,-1,-1021
229,2.662122,0,0,0,-1,1,-1021
230,2.673782,-1,0,0,2,3,-1023
231,2.685433,-1,0,0,1,-2,-1028
232,2.697121,0,0,0,-1,-2,-1023
233,2.708779,0,-1,0,1,1,-1024
234,2.72043,0,0,1,2,3,-1023
235,2.73209,0,0,1,-2,3,-1029
236,2.743774,0,0,0,-7,-1,-1022
237,2.755427,0,0,0,-4,0,-1020
238,2.766995,-1,0,0,0,1,-1023
239,2.778558,0,-1,0,4,0,-1020
240,2.790073,0,-1,0,-3,-3,-1022
241,2.801624,0,0,0,-2,-2,-1025
242,2.81323,0,0,0,1,1,-1019
243,2.824778,0,0,0,2,3,-1018
244,2.836346,0,0,0,0,1,-1025
245,2.847898,-1,-1,0,0,0,-1026
246,2.859543,-1,0,-1,0,1,-1028
247,2.871251,0,0,-1,0,-1,-1022
248,2.882918,0,0,0,-1,-5,-1026
249,2.894591,-1,-1,1,1,-2,-1022
250,2.906257,-1,-1,0,-1,-2,-1023
251,2.917911,-1,0,0,-1,5,-1027
252,2.929563,-1,0,0,2,-1,-1025
253,2.941224,0,-1,1,2,-2,-1026
254,2.952897,-1,0,0,-2,-1,-1021
255,2.964561,0,0,0,0,0,-1022
256,2.976113,0,0,0,-1,1,-1021
257,2.987723,0,-1,0,3,0,-1025
258,2.99928,0,-1,0,2,4,-1030
259,3.010857,0,1,0,-1,2,-1026
260,3.022487,-1,0,0,0,0,-1025
261,3.034074,-1,0,0,0,1,-1023
262,3.045618,-1,0,0,-1,-2,-1024
263,3.057175,0,-1,0,0,3,-1029
264,3.068814,-1,0,0,3,2,-1019
265,3.080473,0,0,0,0,-3,-1026
266,3.092125,0,0,0,1,0,-1023
267,3.103805,-1,0,0,-1,3,-1025
268,3.115495,0,-1,0,-2,-4,-1025
269,3.127164,0,0,-1,1,0,-1018
270,3.138856,0,0,0,-2,1,-1026
271,3.150511,0,0,1,-3,-1,-1022
272,3.162157,-1,0,0,0,2,-1018
273,3.173702,-1,-1,1,1,1,-1025
274,3.185256,-1,0,0,2,-2,-1024
275,3.196826,0,0,0,1,1,-1028
276,3.208362,0,-1,0,-3,2,-1022
277,3.219907,-1,0,0,0,-2,-1024
278,3.231451,-1,0,0,-2,-1,-1032
279,3.243027,-1,-1,0,3,2,-1029
280,3.254559,-1,-1,0,3,-2,-1030
281,3.266084,0,0,0,-4,2,-1015
282,3.277709,0,0,0,3,3,-1027
283,3.289398,0,-1,0,-1,-3,-1025
284,3.301061,-1,-1,0,2,-1,-1028
285,3.312737,-1,0,0,2,1,-1018
286,3.324432,-1,0,0,0,-1,-1021
287,3.336087,0,-1,1,3,-4,-1020
288,3.347768,0,-1,1,4,-1,-1022
289,3.359436,0,-1,-1,0,-4,-1022
290,3.371128,0,1,0,0,3,-1023
291,3.382858,0,-1,1,-1,-3,-1021
292,3.39443,-1,-1,0,-1,2,-1026
293,3.405977,0,0,1,-3,2,-1022
294,3.417525,0,-1,0,0,1,-1019
295,3.429095,-1,0,1,-3,-1,-1026
296,3.44067,-1,-1,0,1,5,-1019
297,3.452224,0,-1,0,1,-2,-1027
298,3.463771,0,0,0,0,-1,-1017
299,3.475358,0,0,0,0,-2,-1013
300,3.487035,0,0,0,0,1,-1021
301,3.498767,0,0,0,-6,0,-1017
302,3.510419,0,0,0,-3,0,-1014
303,3.522084,0,0,0,3,3,-1024
304,3.533761,0,-1,0,-1,-3,-1014
305,3.545403,-1,-1,1,1,2,-1030
306,3.557052,-1,0,1,-1,0,-1029
307,3.568703,-1,-1,0,1,-2,-1021
308,3.580355,-1,0,0,2,2,-1027
309,3.592009,-1,-2,0,-1,0,-1023
310,3.60357,-1,-1,0,0,-1,-1025
311,3.61515,-1,-1,0,0,2,-1025
312,3.626704,0,-1,0,0,1,-1023
313,3.638253,0,0,0,3,0,-1027
314,3.649831,-1,0,0,-1,-2,-1029
315,3.661381,-1,0,0,-3,-1,-1025
316,3.672961,0,0,0,-1,1,-1028
317,3.684527,0,-1,0,-3,2,-1031
318,3.696156,0,-1,-1,-2,-1,-1028
319,3.70781,-1,0,0,0,4,-1019
320,3.719533,-1,0,0,-2,2,-1022
321,3.731274,0,0,1,1,0,-1026
322,3.742937,0,-1,0,3,2,-1022
323,3.754618,-1,0,0,-3,-2,-1023
324,3.766324,0,0,0,0,3,-1020
325,3.777974,0,0,0,0,-1,-1023
326,3.789671,-1,-1,0,0,2,-1024
327,3.801353,0,-1,0,-3,-4,-1026
328,3.812943,-1,0,0,0,-1,-1028
329,3.824497,-1,0,0,-1,5,-1029
330,3.836039,0,-1,0,-1,5,-1013
331,3.847582,0,0,0,-4,-1,-1023
332,3.859157,-1,0,0,-2,4,-1024
333,3.870712,0,0,0,-1,4,-1022
334,3.882262,-1,0,0,1,3,-1026
335,3.893859,-1,-1,0,1,3,-1022
336,3.905493,0,0,0,-1,4,-1018
337,3.917157,0,-1,1,3,-1,-1022
338,3.928802,-1,-1,0,5,0,-1030
339,3.940458,0,0,-1,-3,0,-1028
340,3.952126,0,0,0,0,-1,-1020
341,3.963782,-1,0,0,0,2,-1025
342,3.975437,0,0,0,-2,-1,-1022
343,3.987126,-1,1,0,2,-3,-1016
344,3.998798,-1,-1,1,6,1,-1030
345,4.010488,0,0,-1,1,0,-1028
346,4.022073,-1,0,0,-2,4,-1020
347,4.03363,0,0,0,-1,2,-1025
348,4.045191,0,-1,-1,-1,0,-1019
349,4.056747,0,-1,0,-4,-2,-1026
350,4.068301,0,-1,-1,1,3,-1018
351,4.079855,0,-1,0,-1,2,-1023
352,4.091418,-1,0,0,0,2,-1023
353,4.103015,-1,0,0,-2,0,-1023
354,4.114662,-1,0,0,1,2,-1025
355,4.126341,0,0,1,3,-1,-1023
356,4.137984,0,0,0,1,-1,-1021
357,4.149661,0,0,0,1,-3,-1024
358,4.161318,0,0,0,-2,1,-1017
359,4.172963,0,0,0,-3,2,-1026
360,4.184664,0,0,0,0,3,-1021
361,4.196321,0,0,-1,2,0,-1023
362,4.208015,0,-1,0,1,2,-1027
363,4.219676,0,-1,0,-2,3,-1024
364,4.231274,0,-1,0,2,1,-1018
365,4.24286,0,0,0,-3,1,-1020
366,4.25443,0,-1,0,-3,-2,-1020
367,4.265984,0,0,0,-4,2,-1025
368,4.277526,-1,0,0,5,-1,-1028
369,4.28908,0,0,0,1,1,-1024
370,4.300628,-1,0,0,3,0,-1016
371,4.312185,-1,-1,0,1,1,-1023
372,4.323805,0,-1,0,0,0,-1026
373,4.33549,0,0,0,3,-2,-1024
374,4.347169,0,-1,0,-2,-4,-1025
375,4.358842,-1,-1,1,-1,0,-1025
376,4.370506,-1,1,1,-2,2,-1023
377,4.382194,0,-1,0,-4,-1,-1018
378,4.393838,0,0,0,0,4,-1024
379,4.405486,-1,-1,0,0,1,-1020
380,4.417173,0,0,1,-2,2,-1021
381,4.428818,-1,-1,0,-4,1,-1018
382,4.440383,-1,-1,0,1,1,-1027
383,4.451936,0,0,0,-5,-1,-1024
384,4.463511,-1,0,-1,-3,-2,-1023
385,4.47504,-1,-1,1,-5,-1,-1027
386,4.486557,0,0,0,-4,1,-1029
387,4.498071,0,0,-1,-5,1,-1020
388,4.509643,0,0,1,4,0,-1023
389,4.521201,0,0,1,2,2,-1025
390,4.532826,0,-1,1,-2,4,-1022
391,4.544481,-1,0,1,2,-1,-1024
392,4.556178,0,0,0,-2,-7,-1029
393,4.567829,0,-1,0,0,2,-1021
394,4.579498,0,0,0,-1,-2,-1024
395,4.591171,0,0,0,2,2,-1024
396,4.602855,0,-1,0,-4,3,-1025
397,4.614529,0,-1,0,-3,3,-1028
398,4.62622,0,-1,0,-2,3,-1018
399,4.63786,-1,0,0,2,1,-1025
400,4.649415,0,-1,0,1,-3,-1023
401,4.660994,0,0,0,0,6,-1021
402,4.67254,0,0,0,-3,-2,-1021
403,4.684085,0,0,0,3,0,-1025
404,4.695633,-1,0,0,-2,-2,-1020
405,4.707184,0,0,0,-4,1,-1023
406,4.718744,-1,0,0,0,1,-1024
407,4.730318,0,-1,0,1,-3,-1026
408,4.741936,1,-1,0,4,-3,-1019
409,4.753586,-1,-1,0,-2,2,-1023
410,4.765232,0,0,0,3,4,-1028
411,4.776909,0,0,0,0,0,-1018
412,4.788558,0,0,0,-4,4,-1026
413,4.800207,0,0,0,0,0,-1024
414,4.811875,-1,0,0,0,-4,-1026
415,4.823539,-1,-1,0,4,2,-1029
416,4.835205,0,-1,1,1,-4,-1021
417,4.846875,0,-1,1,-1,0,-1024
418,4.858457,0,-1,0,-4,-1,-1020
419,4.870003,0,0,0,-2,2,-1017
420,4.881548,-1,0,0,2,2,-1024
421,4.893105,-1,-1,0,2,-1,-1023
422,4.904652,-1,0,0,-1,5,-1025
423,4.916195,0,0,-1,-4,0,-1023
424,4.927757,0,0,0,3,2,-1020
425,4.939344,0,-1,0,-3,-2,-1028
426,4.950971,0,-1,0,-1,-5,-1023
427,4.962665,-1,0,-1,0,0,-1020
428,4.974364,0,-1,0,-3,-1,-1024
429,4.986031,0,-1,0,-4,-6,-1027
430,4.997717,0,-1,0,-2,0,-1025
431,5.009392,0,0,0,1,-1,-1025
432,5.021048,0,0,1,1,-1,-1023
433,5.032697,0,-1,0,2,0,-1024
434,5.044376,0,0,0,-2,0,-1020
435,5.056049,0,0,0,1,1,-1029
436,5.067714,0,-1,0,0,3,-1026
437,5.079372,0,-1,0,-3,1,-1026
438,5.091038,0,0,0,-1,-2,-1021
439,5.102722,0,-1,0,0,2,-1027
440,5.114351,0,-1,0,-1,0,-1027
441,5.126008,-1,0,0,-2,2,-1029
442,5.137778,-1,-1,0,1,0,-1027
443,5.149434,-1,0,1,1,-1,-1014
444,5.160997,0,0,-1,0,2,-1029
445,5.172558,0,0,-1,-2,0,-1022
446,5.184121,0,-1,1,-1,1,-1019
447,5.195661,-1,0,0,-4,-1,-1025
448,5.207218,0,0,0,0,3,-1024
449,5.218803,-1,0,0,4,-2,-1023
450,5.230372,-2,0,0,2,-2,-1018
451,5.241916,-1,-1,0,2,2,-1017
452,5.253528,-1,0,1,-2,2,-1025
453,5.26519,0,0,0,-3,3,-1028
454,5.276874,0,0,0,-5,0,-1022
455,5.288566,0,0,0,-2,0,-1030
456,5.300234,0,0,0,-3,-2,-1020
457,5.311909,-1,0,-1,2,-1,-1021
458,5.323563,0,0,0,-1,2,-1023
459,5.335259,-1,-1,0,-1,0,-1024
460,5.346916,0,0,0,1,2,-1025
461,5.358605,0,-1,0,0,-3,-1022
462,5.370315,-1,1,0,-1,-1,-1021
463,5.381958,0,0,0,4,0,-1026
464,5.393611,-1,0,1,2,4,-1027
465,5.405303,0,0,1,-3,-3,-1025
466,5.416941,-1,0,0,-1,4,-1024
467,5.428589,-1,-1,1,1,3,-1026
468,5.440257,0,0,0,2,0,-1021
469,5.451913,0,0,0,1,-2,-1024
470,5.463591,0,-1,0,1,1,-1028
471,5.475298,0,0,0,2,2,-1024
472,5.487001,0,0,0,1,-1,-1023
473,5.498671,-1,0,0,-2,3,-1029
474,5.510338,-1,0,0,1,-1,-1025
475,5.522013,-1,-1,0,0,5,-1020
476,5.533679,-1,0,1,2,-2,-1016
477,5.545331,0,0,0,3,-4,-1027
478,5.556995,0,1,0,2,1,-1023
479,5.568653,0,1,0,0,1,-1023
480,5.580237,0,0,0,1,-3,-1024
481,5.591787,0,0,0,-4,1,-1025
482,5.603365,-1,1,0,3,0,-1017
483,5.614926,-1,0,0,2,-2,-1019
484,5.626479,0,-1,0,-1,4,-1025
485,5.638026,-1,-1,0,-2,3,-1028
486,5.649592,-1,-1,0,-2,4,-1024
487,5.661158,0,0,0,0,1,-1028
488,5.672769,0,0,0,-5,1,-1019
489,5.68442,0,-1,0,1,1,-1023
490,5.696082,-1,-1,0,0,2,-1025
491,5.70773,-1,0,0,-3,-1,-1023
492,5.719372,0,-1,0,1,2,-1018
493,5.731048,-1,0,0,-2,1,-1027
494,5.742724,0,0,0,-1,-1,-1029
495,5.754401,0,-1,0,-2,0,-1026
496,5.766071,0,-1,0,0,0,-1030
497,5.777736,0,-1,0,-4,2,-1026
498,5.789396,0,-1,0,0,1,-1025
499,5.800946,-1,-1,0,1,-1,-1030
500,5.812504,0,0,0,-3,5,-1018
501,5.82405,0,-1,0,2,5,-1022
502,5.835607,-1,0,0,2,3,-1023
503,5.84717,-1,0,0,-1,-2,-1031
504,5.858762,-1,0,0,-5,-2,-1018
505,5.870315,0,0,0,0,5,-1025
506,5.881881,0,0,0,1,-2,-1027
507,5.893493,0,-1,0,1,-1,-1018
508,5.905172,-1,-1,1,-2,-1,-1019
509,5.91683,-1,0,0,-4,-4,-1028
510,5.928524,-1,1,-1,-1,1,-1027
511,5.940174,0,0,0,-4,2,-1023
512,5.951827,0,-1,0,-3,0,-1029
513,5.963501,0,0,0,2,1,-1021
514,5.975178,-1,0,0,-2,2,-1025
515,5.98687,0,0,-1,-2,0,-1023
516,5.998538,0,0,0,-2,-1,-1019
517,6.010121,-1,0,0,2,-4,-1027
518,6.021674,0,-1,0,0,-1,-1029
519,6.033249,0,-1,0,2,1,-1022
520,6.044806,0,1,-1,-1,0,-1024
521,6.056376,-1,0,-2,4,-1,-1014
522,6.067934,0,-1,1,-5,2,-1024
523,6.07951,0,-1,0,1,0,-1027
524,6.091052,0,-1,0,2,0,-1023
525,6.10268,0,0,0,-4,-1,-1024
526,6.114342,-1,-1,0,-2,1,-1019
527,6.125992,0,-2,0,-1,3,-1029
528,6.137663,-1,-1,0,-3,-1,-1017
529,6.149313,-1,-1,0,-1,2,-1019
530,6.160958,-1,-1,0,-1,0,-1023
531,6.172614,0,0,0,0,4,-1022
532,6.184282,-1,0,0,2,-1,-1024
533,6.195983,-1,0,0,2,4,-1023
534,6.207668,0,-1,0,0,-1,-1022
535,6.21925,0,0,0,-1,-1,-1025
536,6.230798,0,0,-1,0,2,-1026
537,6.242315,0,0,0,-4,1,-1026
538,6.253882,0,0,0,-3,2,-1024
539,6.265419,0,-1,0,2,-1,-1030
540,6.276965,0,-1,0,-6,-1,-1027
541,6.288513,-1,-1,0,2,2,-1032
542,6.300064,-1,0,1,-2,-1,-1017
543,6.311691,0,0,0,-4,3,-1018
544,6.323376,-1,0,0,1,0,-1023
545,6.335062,-1,0,0,-1,3,-1025
546,6.346744,0,0,0,0,-2,-1024
547,6.358408,0,1,-1,-4,0,-1025
548,6.370085,-1,0,0,0,-1,-1024
549,6.381732,0,0,0,-1,-1,-1027
550,6.393411,0,0,0,4,1,-1021
551,6.405112,0,0,0,2,3,-1021
552,6.416773,0,-1,1,5,1,-1029
553,6.428331,-1,0,0,-2,2,-1023
554,6.439884,0,0,0,-1,-1,-1026
555,6.4515,-1,1,0,1,-2,-1026
556,6.463041,0,0,0,-3,4,-1032
557,6.474638,0,0,1,-5,1,-1025
558,6.486202,0,0,-1,-3,1,-1028
559,6.497755,0,-1,0,-1,-1,-1023
560,6.509318,0,-1,-1,1,1,-1019
561,6.520939,0,0,0,0,3,-1027
562,6.532603,-1,-1,0,-1,-1,-1018
563,6.544249,-1,0,0,-2,4,-1024
564,6.555913,0,-1,0,0,3,-1024
565,6.567577,0,0,-1,-1,0,-1025
566,6.579253,-1,-1,-1,-3,-1,-1021
567,6.590927,0,-1,0,-3,3,-1022
568,6.602594,0,-1,-1,-1,-4,-1015
569,6.614261,-1,0,0,-1,0,-1031
570,6.625935,-1,0,0,-2,1,-1024
571,6.63751,0,0,0,2,0,-1026
572,6.64907,0,-1,0,-4,1,-1024
573,6.660638,0,0,0,0,-5,-1020
574,6.672185,0,1,0,-3,1,-1027
575,6.683737,-1,0,-1,-1,1,-1029
576,6.69529,-1,-1,0,-2,3,-1025
577,6.706865,-1,-1,0,-3,2,-1018
578,6.71846,0,0,0,-2,2,-1023
579,6.730085,-1,0,0,-1,-1,-1020
580,6.741763,-1,0,1,-5,3,-1024
581,6.753432,0,0,0,1,-2,-1021
582,6.765091,0,0,0,3,2,-1023
583,6.776772,-1,0,0,-3,3,-1021
584,6.788439,0,-1,0,-2,2,-1024
585,6.800136,-1,0,1,-1,1,-1024
586,6.81183,-1,-1,0,-1,1,-1024
587,6.82351,0,-1,0,-1,0,-1022
588,6.835231,0,-1,-1,0,1,-1024
589,6.846807,-1,-1,0,1,0,-1021
590,6.858385,-1,-1,0,-6,-1,-1025
591,6.869937,-1,0,1,1,-1,-1020
592,6.881489,0,0,0,-3,-1,-1024
593,6.893043,0,0,0,-1,-3,-1022
594,6.904592,-1,-1,0,1,2,-1022
595,6.916141,0,0,-1,0,-1,-1027
596,6.927764,0,0,0,-3,2,-1023
597,6.939414,-1,0,0,1,1,-1023
598,6.951148,-1,-1,0,2,3,-1023
599,6.962875,0,0,0,-3,3,-1022
600,6.974586,0,0,0,-3,2,-1017
601,6.986272,0,0,0,0,0,-1024
602,6.997933,-1,0,-1,-3,-4,-1022
603,7.009587,0,0,1,-3,0,-1024
604,7.021265,-1,-1,0,-1,-2,-1027
605,7.033002,0,-1,0,6,-3,-1023
606,7.044675,-1,0,0,-1,-1,-1025
607,7.056237,0,-1,0,0,0,-1019
608,7.06779,-1,-1,0,2,1,-1021
609,7.079379,0,0,0,-3,-2,-1021
610,7.090937,0,0,0,-1,1,-1016
611,7.102507,-1,0,0,3,0,-1021
612,7.114063,-1,-1,0,1,-4,-1021
613,7.125632,-1,-1,0,0,0,-1030
614,7.13719,-1,-1,1,-4,1,-1021
615,7.148846,-1,0,0,-3,-2,-1023
616,7.1605,0,1,0,1,0,-1027
617,7.172161,0,1,0,1,1,-1021
618,7.183833,-1,0,0,-1,0,-1021
619,7.195503,0,-1,0,1,-1,-1021
620,7.207178,0,0,0,-2,-5,-1022
621,7.21885,-1,0,0,-1,4,-1020
622,7.230503,0,0,0,0,-3,-1025
623,7.242173,-1,0,0,2,0,-1021
624,7.253828,-1,-1,1,1,0,-1021
625,7.265395,-1,0,0,2,-2,-1022
626,7.276956,0,0,0,2,1,-1022
627,7.288514,-1,0,0,0,3,-1018
628,7.300087,-1,0,1,-4,3,-1021
629,7.311642,0,0,1,-1,-4,-1020
630,7.323201,-1,-1,0,-1,1,-1016
631,7.334778,-1,-1,0,-1,4,-1022
632,7.34633,-1,0,0,1,1,-1023
633,7.357956,0,0,0,-1,1,-1023
634,7.369609,-1,0,0,2,1,-1028
635,7.381261,-1,0,0,3,1,-1025
636,7.392935,0,0,0,-2,-2,-1024
637,7.404585,0,0,0,-3,-1,-1019
638,7.416236,0,0,0,-1,0,-1014
639,7.427909,0,0,0,-1,0,-1024
640,7.43957,-1,0,0,0,0,-1021
641,7.451287,0,-1,0,1,1,-1027
642,7.462944,-1,0,0,0,-2,-1028
643,7.474505,-1,0,0,-1,-3,-1026
644,7.486061,-1,0,0,3,2,-1027
645,7.497612,0,0,0,0,1,-1024
646,7.509165,0,0,0,-2,-2,-1020
647,7.520781,0,0,0,-1,1,-1022
648,7.53236,0,-1,1,-3,0,-1028
649,7.543914,-1,1,-1,1,0,-1022
650,7.55552,0,-1,1,-2,4,-1028
651,7.567104,0,0,-1,-2,2,-1016
652,7.578805,-1,-1,-1,1,1,-1037
653,7.590475,0,-1,0,-4,0,-1020
654,7.602127,0,-1,0,-2,-4,-1025
655,7.613799,0,0,0,0,3,-1030
656,7.625443,0,-1,0,1,-1,-1024
657,7.63709,-1,-1,0,3,0,-1022
658,7.648749,0,0,0,0,-3,-1027
659,7.66043,-1,-1,0,0,-3,-1028
660,7.67208,-1,0,0,-4,-1,-1022
661,7.683642,-1,0,0,-4,1,-1026
662,7.695204,-1,0,0,0,-2,-1028
663,7.706782,0,-1,-1,-3,0,-1025
664,7.718377,0,0,0,-3,-2,-1020
665,7.72993,0,0,0,-2,-3,-1019
666,7.741505,-1,0,0,-2,2,-1028
667,7.75305,0,-1,0,-2,3,-1024
668,7.764605,-1,0,1,1,1,-1026
669,7.776225,0,-1,0,-5,3,-1022
670,7.787877,1,-1,-1,-1,-3,-1023
671,7.79955,1,0,0,-3,-2,-1019
672,7.811236,-1,0,0,-4,-2,-1027
673,7.822928,-1,0,-1,1,5,-1021
674,7.834597,-1,0,0,-3,0,-1024
675,7.846254,-1,0,0,-1,2,-1030
676,7.857928,0,0,0,-1,6,-1019
677,7.869574,0,0,0,-3,0,-1021
678,7.881142,0,0,1,-3,-1,-1016
679,7.892754,0,-1,0,1,0,-1016
680,7.904308,0,0,0,3,3,-1023
681,7.915861,-1,0,-1,-1,3,-1023
682,7.927423,0,0,0,-3,-3,-1024
683,7.938976,0,-1,0,-5,-4,-1023
684,7.950551,0,0,1,-4,1,-1026
685,7.962135,-1,0,0,1,2,-1025
686,7.973704,0,0,0,0,2,-1014
687,7.985333,0,-1,0,1,0,-1026
688,7.996999,-1,0,1,-1,-1,-1027
689,8.008676,-1,-1,0,0,0,-1028
690,8.020329,-1,0,0,4,-1,-1021
691,8.031987,0,0,0,-2,0,-1026
692,8.043658,-1,0,0,2,1,-1024
693,8.055322,0,0,-1,-2,1,-1024
694,8.06699,0,0,0,0,-2,-1020
695,8.078675,0,0,0,1,3,-1021
696,8.090323,0,0,0,0,4,-1028
697,8.101885,-1,0,0,0,4,-1025
698,8.113427,0,0,0,3,0,-1020
699,8.124978,0,0,0,2,-3,-1023
700,8.13665,-1,-1,0,0,0,-1025
701,8.148203,0,0,0,0,2,-1020
702,8.159762,-1,0,0,2,-1,-1018
703,8.171291,0,-1,0,-2,0,-1022
704,8.182878,-1,-1,0,-1,-3,-1023
705,8.194554,0,0,0,-1,-3,-1028
706,8.206229,-1,0,0,-4,3,-1022
707,8.217905,0,0,-1,3,1,-1025
708,8.229568,0,-1,0,0,1,-1023
709,8.241221,0,1,-1,0,0,-1026
710,8.252918,0,0,-1,0,-2,-1018
711,8.264573,-1,-1,0,-1,3,-1023
712,8.276228,0,0,0,-3,6,-1024
713,8.28789,-1,-1,0,-4,3,-1023
714,8.299558,-1,-1,0,-1,3,-1019
715,8.311131,0,-1,0,-1,-1,-1024
716,8.322699,0,0,0,2,0,-1028
717,8.33427,0,-1,1,0,-2,-1022
718,8.345821,-1,0,-1,-5,3,-1021
719,8.357389,-1,0,-1,-5,-1,-1026
720,8.368927,-1,-1,0,0,1,-1015
721,8.380471,0,0,1,2,1,-1025
722,8.39203,0,0,0,-3,5,-1029
723,8.403686,-1,-1,0,3,4,-1024
724,8.415365,-1,-1,-1,-2,1,-1020
725,8.427069,-1,-1,0,0,-1,-1013
726,8.438738,-1,0,0,2,1,-1027
727,8.450475,0,1,0,-1,1,-1027
728,8.462142,-1,0,0,-1,-1,-1028
729,8.473802,0,0,0,0,1,-1027
730,8.485458,-1,-1,0,1,1,-1032
731,8.49713,-1,-1,0,-2,0,-1025
732,8.508807,0,-1,0,0,-1,-1025
733,8.520395,-1,-1,0,0,3,-1024
734,8.531981,0,-1,0,-3,-3,-1022
735,8.543534,0,0,0,1,1,-1023
736,8.555087,0,0,1,3,1,-1027
737,8.566668,1,-1,0,-2,0,-1026
738,8.578258,0,0,0,-1,0,-1024
739,8.589802,-1,0,1,-3,1,-1026
740,8.601364,0,0,1,1,2,-1018
741,8.613042,-1,0,-1,-1,2,-1025
742,8.624726,0,0,0,1,-1,-1023
743,8.636433,0,0,1,-1,3,-1022
744,8.648246,-1,-1,0,-4,1,-1021
745,8.659907,-1,1,0,3,2,-1018
746,8.671576,-1,0,-1,2,-1,-1024
747,8.683266,-1,0,0,-2,-1,-1024
748,8.694975,0,0,1,-1,-1,-1026
749,8.706603,-1,-1,0,3,-2,-1025
750,8.71818,0,0,1,0,-6,-1025
751,8.729732,0,0,0,-5,3,-1028
752,8.741285,-1,0,0,-1,-1,-1027
753,8.752839,-1,0,0,-2,0,-1021
754,8.7644,-1,1,0,0,0,-1021
755,8.775997,0,0,0,0,2,-1022
756,8.787552,0,-1,0,1,1,-1025
757,8.799143,0,0,0,-2,2,-1026
758,8.810716,0,-1,0,-2,1,-1023
759,8.822348,-1,0,0,3,-2,-1026
760,8.83402,-1,-1,0,-1,-4,-1021
761,8.845702,-1,0,0,0,1,-1014
762,8.857358,0,0,0,-3,-5,-1021
763,8.869046,-1,0,0,-1,-3,-1021
764,8.880696,-1,0,0,-1,3,-1020
765,8.892352,0,-1,-1,1,0,-1024
766,8.904021,0,0,-1,-4,0,-1025
767,8.915703,0,0,0,-1,0,-1028
768,8.927381,-1,0,0,4,3,-1016
769,8.939013,0,-1,0,-1,2,-1019
770,8.950558,-1,0,0,-1,2,-1018
771,8.962113,-1,0,0,-1,3,-1028
772,8.973675,-1,0,-1,-1,4,-1022
773,8.985275,0,-1,0,-1,-2,-1023
774,8.996849,0,0,-1,-3,0,-1027
775,9.008398,0,0,1,-2,0,-1023
776,9.019981,0,0,0,1,2,-1022
777,9.031608,0,-1,0,-1,-1,-1022
778,9.043298,0,0,1,2,5,-1026
779,9.054978,-1,0,-1,6,-1,-1018
780,9.066602,0,-1,0,-3,4,-1020
781,9.078255,0,-1,1,1,-3,-1020
782,9.089909,0,-1,-1,0,2,-1027
783,9.101592,0,0,0,1,5,-1026
784,9.113262,-1,0,0,2,3,-1026
785,9.124932,-1,-1,0,0,-1,-1026
786,9.136526,-1,0,0,-3,3,-1023
787,9.148077,0,-1,0,-4,2,-1026
788,9.15975,0,-1,0,3,1,-1024
789,9.171286,-1,0,-1,1,2,-1023
790,9.182839,0,1,0,1,0,-1022
791,9.194399,0,0,0,0,-1,-1026
792,9.205947,0,0,0,-3,4,-1026
793,9.217498,0,0,0,-2,3,-1031
794,9.229051,0,0,0,-3,-1,-1020
795,9.240635,0,0,0,-1,-1,-1022
796,9.252188,-1,0,0,0,-2,-1025
797,9.263765,-1,0,0,0,-3,-1027
798,9.27528,-1,0,-1,-2,1,-1026
799,9.2868,-1,0,-1,1,1,-1030
800,9.298318,0,0,-1,-4,-1,-1021
801,9.309864,-1,0,0,2,1,-1018
802,9.321423,0,0,0,-2,-2,-1026
803,9.333066,-1,-1,0,-1,-1,-1024
804,9.344728,-1,-1,0,-1,1,-1024
805,9.356372,-1,-1,0,0,-1,-1022
806,9.36806,0,-1,1,-8,1,-1028
807,9.379722,-1,0,0,1,5,-1025
808,9.391371,0,0,0,-4,-1,-1024
809,9.403026,0,-1,1,1,2,-1019
810,9.414785,-1,0,1,-2,1,-1023
811,9.42666,0,0,1,-2,2,-1018
812,9.438382,-1,0,0,-2,3,-1022
813,9.449935,0,0,0,3,2,-1020
814,9.461484,0,0,0,-4,0,-1023
815,9.473035,-1,0,0,-5,1,-1021
816,9.484585,-1,0,-1,1,-1,-1026
817,9.496131,-1,-1,0,4,2,-1027
818,9.507683,0,0,0,4,1,-1025
819,9.519281,-1,0,0,2,0,-1028
820,9.530815,0,-1,0,0,3,-1019
821,9.542477,0,-1,0,2,-3,-1023
822,9.554151,0,-1,0,1,1,-1026
823,9.565817,-1,-1,0,0,3,-1026
824,9.577474,0,0,-1,0,-2,-1023
825,9.589125,0,0,0,3,-4,-1023
826,9.600816,0,0,0,1,-1,-1022
827,9.612461,0,-1,-1,-2,-1,-1024
828,9.624106,0,-1,-1,2,-1,-1026
829,9.635793,-1,0,-1,-4,2,-1024
830,9.647442,-1,-1,0,0,4,-1021
831,9.659037,-1,0,0,0,0,-1023
832,9.670612,-1,0,0,-5,1,-1023
833,9.682181,-1,-1,0,2,-2,-1027
834,9.693732,0,-1,-1,0,2,-1021
835,9.705288,0,-1,0,2,-1,-1026
836,9.716839,0,0,0,2,-1,-1019
837,9.728407,0,0,0,0,-4,-1032
838,9.740047,0,0,0,4,-1,-1022
839,9.751744,0,-1,1,3,-1,-1024
840,9.763381,-1,-1,-1,-2,0,-1026
841,9.77504,0,1,0,2,-3,-1018
842,9.786726,0,-1,1,1,-2,-1016
843,9.798394,-1,-1,1,-1,-1,-1018
844,9.810062,0,1,0,-2,2,-1024
845,9.821723,0,-1,0,-2,-1,-1017
846,9.833382,0,0,-1,2,-2,-1024
847,9.845095,0,0,1,-2,-1,-1016
848,9.856765,0,0,1,-1,-3,-1016
849,9.868332,0,0,1,0,0,-1025
850,9.879889,-1,-1,0,2,-1,-1022
851,9.891445,0,0,1,1,0,-1025
852,9.903028,-1,0,1,-1,-4,-1017
853,9.914627,0,0,1,-1,1,-1028
854,9.926211,-1,0,0,1,2,-1020
855,9.937775,0,0,0,-2,-1,-1023
856,9.94933,0,-1,-1,-3,0,-1022
857,9.960959,-1,0,0,-3,1,-1029
858,9.97261,-1,0,1,2,5,-1025
859,9.984261,0,0,0,0,-1,-1025
860,9.995931,0,-1,0,0,-1,-1020
861,10.007619,0,-1,0,-4,-3,-1023
862,10.019279,0,0,0,3,-1,-1025
863,10.030979,-1,0,0,-3,-1,-1030
864,10.042602,0,-1,0,1,0,-1024
865,10.05427,0,0,0,-1,2,-1023
866,10.065924,-1,-1,0,-1,5,-1030
867,10.077537,0,-1,0,2,-4,-1020
868,10.089109,0,0,0,1,0,-1024
869,10.100671,0,0,0,1,1,-1017
870,10.112285,0,-1,0,1,1,-1029
871,10.123845,0,0,-1,3,4,-1026
872,10.135409,-1,0,0,1,1,-1023
873,10.146957,-1,-1,0,0,-1,-1028
874,10.158522,0,-1,-1,1,3,-1027
875,10.170211,0,-1,0,3,0,-1019
876,10.181868,0,-1,-1,-1,2,-1021
877,10.193528,0,0,0,0,2,-1022
878,10.205207,0,0,0,1,-2,-1026
879,10.216851,0,0,0,-2,0,-1022
880,10.2285,0,0,0,-2,-1,-1023
881,10.240172,0,0,0,-1,1,-1022
882,10.251836,0,-1,1,-1,5,-1019
883,10.263513,0,0,0,-4,-3,-1022
884,10.275176,0,0,0,0,-1,-1022
885,10.286739,-1,0,0,3,1,-1019
886,10.298313,0,-1,0,-3,1,-1032
887,10.309894,0,-1,0,-8,-1,-1026
888,10.321449,0,0,-1,-3,-2,-1023
889,10.333025,0,0,0,0,2,-1020
890,10.344575,0,0,0,0,0,-1022
891,10.356149,0,-1,-1,1,4,-1022
892,10.367714,0,0,0,1,0,-1025
893,10.379406,0,-1,0,3,-3,-1026
894,10.39111,-1,0,0,1,0,-1017
895,10.402768,-1,-1,0,1,2,-1024
896,10.414475,0,0,0,1,-3,-1023
897,10.426126,0,0,0,-2,-1,-1031
898,10.437776,-1,0,0,-3,0,-1026
899,10.449448,-1,0,0,-3,0,-1018
900,10.461097,0,0,0,2,-1,-1022
901,10.472762,0,1,0,-1,-1,-1022
902,10.484464,0,0,0,-1,3,-1019
903,10.49604,-1,0,0,1,-1,-1018
904,10.507602,-1,-1,0,2,2,-1027
905,10.519172,0,0,0,1,-1,-1029
906,10.530726,0,-1,0,3,-2,-1021
907,10.542319,0,0,0,0,2,-1024
908,10.553873,0,0,0,0,-1,-1022
909,10.565427,0,-1,0,0,2,-1026
910,10.577051,-1,-1,0,2,-1,-1028
911,10.588697,0,0,0,-4,0,-1028
912,10.600357,0,0,0,-4,3,-1023
913,10.612031,0,-1,0,-3,-4,-1027
914,10.623699,-1,0,0,-2,-2,-1026
915,10.635374,0,-1,0,0,0,-1025
916,10.647072,1,0,1,-4,-2,-1022
917,10.658741,0,0,0,-2,0,-1025
918,10.670417,-1,0,0,-2,0,-1020
919,10.682099,0,-2,-1,-2,2,-1022
920,10.693749,0,-2,1,1,1,-1019
921,10.705314,0,-1,-1,0,1,-1021
922,10.716895,-1,0,0,-2,1,-1018
923,10.728454,-1,-1,0,-5,1,-1024
924,10.740026,-1,0,1,2,2,-1024
925,10.751569,0,0,0,-2,-2,-1024
926,10.763125,0,1,1,-1,2,-1019
927,10.774682,-1,-1,0,-1,-1,-1020
928,10.786239,0,0,0,-5,0,-1030
929,10.797858,0,0,0,-1,1,-1024
930,10.809516,-1,0,0,-2,-4,-1028
931,10.821194,0,0,1,-3,4,-1025
932,10.832845,0,0,0,0,2,-1023
933,10.844494,0,0,-1,-1,-1,-1024
934,10.856192,-1,0,0,-1,1,-1020
935,10.867851,-1,-1,0,1,0,-1020
936,10.879518,-1,0,0,-4,1,-1023
937,10.891206,0,0,0,-1,-1,-1023
938,10.902872,0,-1,-1,3,0,-1024
939,10.914455,-1,0,-1,-2,1,-1028
940,10.926056,0,-1,-1,-1,-2,-1029
941,10.937651,0,0,0,1,0,-1023
942,10.949196,0,0,1,-5,0,-1024
943,10.960743,0,1,0,-3,1,-1024
944,10.972298,0,0,0,2,-3,-1024
945,10.983872,0,-1,-1,-1,-3,-1021
946,10.995447,-1,0,0,0,0,-1022
947,11.007114,-1,0,0,4,0,-1024
948,11.018817,-1,-1,0,4,2,-1027
949,11.03048,-1,-1,0,1,1,-1025
950,11.042134,-1,0,1,-1,0,-1018
951,11.05381,0,0,0,0,3,-1021
952,11.065463,-1,0,0,-3,3,-1023
953,11.077117,0,1,0,-2,3,-1021
954,11.088772,0,-1,0,2,0,-1026
955,11.10044,0,0,-1,2,0,-1020
956,11.111997,0,0,0,0,3,-1031
957,11.123566,-1,0,0,2,2,-1018
958,11.135222,0,-1,0,-4,2,-1026
959,11.14681,0,-1,0,-2,4,-1025
960,11.158394,0,0,0,1,1,-1022
961,11.169947,-1,0,0,1,-1,-1024
962,11.181526,0,0,0,1,5,-1026
963,11.193072,0,0,-1,0,-1,-1024
964,11.204624,-1,0,0,1,1,-1022
965,11.216355,-1,1,0,2,3,-1020
966,11.228013,-1,0,0,-1,-1,-1021
967,11.23969,0,0,-1,2,0,-1014
968,11.251367,-1,-1,-1,3,4,-1028
969,11.263025,-1,-1,-1,-1,3,-1025
970,11.274729,0,0,0,-6,1,-1030
971,11.286382,0,-1,-1,-1,-3,-1025
972,11.298081,-1,0,0,0,3,-1027
973,11.309755,0,0,0,-2,0,-1019
974,11.321325,0,0,1,-6,0,-1022
975,11.332904,-1,0,0,1,-2,-1027
976,11.344469,0,-1,0,-1,-1,-1021
977,11.356042,-1,0,0,-1,-1,-1025
978,11.367596,-1,0,0,-2,1,-1025
979,11.379162,-1,0,-1,-2,1,-1021
980,11.390802,-1,0,0,1,-4,-1026
981,11.402383,-1,0,1,-2,1,-1023
982,11.414002,-1,0,0,-2,0,-1026
983,11.425679,-1,0,0,1,1,-1023
984,11.437337,0,0,0,-1,3,-1025
985,11.448996,-1,0,0,-1,3,-1023
986,11.460654,0,0,1,4,3,-1022
987,11.472302,-1,0,1,4,0,-1022
988,11.483975,-1,0,0,-2,0,-1024
989,11.495635,-1,0,0,0,5,-1025
990,11.507308,0,0,0,0,1,-1023
991,11.518977,-1,-1,-1,1,-1,-1026
992,11.530556,0,-1,0,2,1,-1037
993,11.542152,0,-1,0,-1,2,-1024
994,11.553706,-1,0,0,1,3,-1022
995,11.565286,-1,0,0,-1,0,-1024
996,11.57683,0,-1,0,-4,1,-1021
997,11.58839,0,0,0,0,1,-1020
998,11.599937,0,0,0,-2,1,-1022
999,11.611532,0,0,0,-1,-4,-1022
1000,11.623182,-1,1,0,3,1,-1031
1001,11.634858,0,-1,0,-1,-2,-1017
1002,11.646521,0,-1,1,0,1,-1026
1003,11.658212,0,0,0,-3,-4,-1026
1004,11.669862,-1,0,0,-5,-2,-1025
1005,11.681512,0,0,0,-1,-2,-1023
1006,11.69318,-1,0,0,-5,2,-1023
1007,11.704839,0,1,0,-1,-2,-1026
1008,11.716503,0,1,0,0,-3,-1023
1009,11.728185,-1,1,1,1,-3,-1019
1010,11.739746,0,0,0,-1,0,-1030
1011,11.751288,0,0,0,-6,2,-1016
1012,11.762851,0,-1,0,0,2,-1024
1013,11.774435,-1,1,0,-5,-1,-1022
1014,11.786052,0,-1,0,-4,-1,-1027
1015,11.797615,0,0,0,2,-1,-1023
1016,11.80917,0,-1,0,-1,1,-1018
1017,11.820728,0,-2,0,-1,-4,-1031
1018,11.832353,-1,0,0,-3,0,-1020
1019,11.844001,-1,0,0,0,3,-1026
1020,11.855656,0,-1,0,-2,5,-1027
1021,11.867356,0,0,0,-3,2,-1019
1022,11.879047,-1,0,0,0,0,-1023
1023,11.890732,0,-1,-1,0,1,-1025
1024,11.902395,0,0,1,0,-5,-1029
1025,11.914086,0,0,0,-1,0,-1024
1026,11.925746,0,0,0,-2,-1,-1028
1027,11.937301,-1,-1,1,-2,0,-1024
1028,11.94885,0,-1,1,-1,-4,-1020
1029,11.960428,0,0,0,0,3,-1019
1030,11.971974,0,0,0,-2,2,-1024
1031,11.983523,0,-1,0,1,2,-1027
1032,11.99504,0,-1,0,0,-1,-1023
1033,12.006596,1,0,0,-3,-2,-1023
1034,12.018185,0,0,1,3,1,-1023
1035,12.029778,-1,-1,0,-1,-4,-1022
1036,12.041395,-1,-1,0,-1,1,-1023
1037,12.053068,-1,0,1,0,-1,-1026
1038,12.06472,0,0,0,-3,0,-1022
1039,12.076366,0,0,1,0,0,-1028
1040,12.088,0,0,0,0,-1,-1015
1041,12.099647,-1,-1,0,-2,1,-1024
1042,12.111318,-1,-2,-1,-3,3,-1026
1043,12.122981,-1,-1,0,-1,-1,-1025
1044,12.13465,0,-1,0,-5,1,-1019
1045,12.14633,0,0,0,-1,2,-1024
1046,12.157919,0,0,0,-2,-3,-1020
1047,12.169466,0,-1,0,-1,4,-1024
1048,12.181022,0,0,1,0,2,-1026
1049,12.19257,0,0,0,-1,-3,-1020
1050,12.204118,0,-1,0,2,-2,-1017
1051,12.215668,0,0,0,3,-2,-1020
1052,12.227247,-1,-1,0,-2,1,-1030
1053,12.238821,0,0,0,-3,3,-1023
1054,12.250477,0,0,-1,-3,0,-1025
1055,12.262142,0,-1,0,3,0,-1020
1056,12.273812,0,0,-1,-4,1,-1022
1057,12.285484,-1,0,-1,-2,1,-1025
1058,12.297151,0,0,1,-1,3,-1020
1059,12.30881,-1,-1,0,-3,-3,-1025
1060,12.320481,0,0,1,0,1,-1026
1061,12.332178,-1,0,0,-2,1,-1028
1062,12.34386,-1,-1,0,1,1,-1028
1063,12.355546,-1,-1,0,-1,4,-1021
1064,12.367117,0,0,0,-2,1,-1019
1065,12.378691,0,0,0,-4,-1,-1022
1066,12.390244,0,0,-1,-1,4,-1021
1067,12.401801,-1,-1,0,-3,-4,-1022
1068,12.413352,-1,-1,-1,-3,2,-1024
1069,12.424922,0,0,-1,1,-3,-1024
1070,12.436465,0,-1,0,2,0,-1024
1071,12.448024,0,0,0,2,-5,-1025
1072,12.459641,-1,0,0,-1,-2,-1022
1073,12.471299,0,-1,1,-3,1,-1025
1074,12.482986,-1,0,0,3,-3,-1018
1075,12.494649,0,0,0,0,0,-1024
1076,12.506335,0,-1,-1,0,2,-1024
1077,12.518,-1,-1,1,-4,4,-1026
1078,12.529714,0,-1,0,0,0,-1018
1079,12.54151,-1,0,0,0,4,-1022
1080,12.553232,0,0,0,-3,3,-1024
1081,12.564953,-1,0,0,-1,1,-1022
1082,12.576563,0,-1,0,1,-1,-1025
1083,12.588146,-1,0,0,-2,-1,-1024
1084,12.599693,0,-1,0,-4,-4,-1024
1085,12.611279,0,0,0,-4,-2,-1029
1086,12.622801,-1,0,-1,0,-2,-1018
1087,12.634314,0,-1,0,0,0,-1029
1088,12.64588,-1,-1,0,-2,-3,-1021
1089,12.65744,-1,0,0,-1,-2,-1027
1090,12.66906,0,0,1,0,0,-1024
1091,12.680721,0,0,0,-3,1,-1026
1092,12.692378,0,0,0,2,2,-1022
1093,12.704093,0,-1,0,3,1,-1027
1094,12.715743,0,-1,1,0,1,-1029
1095,12.727378,-1,0,0,-1,-2,-1025
1096,12.739055,0,0,0,1,0,-1019
1097,12.750728,0,0,0,-2,0,-1029
1098,12.762401,0,0,0,-2,0,-1028
1099,12.774073,0,0,0,-1,3,-1016
1100,12.785638,0,0,1,-3,-2,-1023
1101,12.797195,-1,-1,0,0,-3,-1021
1102,12.808743,-1,-1,0,-1,0,-1025
1103,12.82029,-1,0,0,-1,2,-1028
1104,12.831838,0,0,0,-3,-4,-1027
1105,12.843426,-1,-1,1,-1,-4,-1023
1106,12.854978,0,0,0,1,-2,-1022
1107,12.866623,0,-1,-1,3,-3,-1024
1108,12.878255,0,-1,0,-1,-1,-1025
1109,12.889907,-1,-1,-1,-2,-2,-1017
1110,12.901557,-1,0,1,0,0,-1023
1111,12.913219,0,0,1,-2,2,-1028
1112,12.92487,-1,-1,0,1,-3,-1016
1113,12.936527,0,-1,1,-2,1,-1023
1114,12.948168,0,-1,0,-1,0,-1019
1115,12.959814,0,-1,0,2,-4,-1023
1116,12.971508,1,0,0,2,-4,-1018
1117,12.98317,0,0,0,0,-1,-1020
1118,12.994735,0,0,-1,0,-1,-1024
1119,13.006347,-1,-1,0,1,2,-1025
1120,13.017927,0,-1,1,-3,-4,-1020
1121,13.029475,0,0,0,0,0,-1025
1122,13.041036,0,-1,0,3,-1,-1019
1123,13.052584,-1,-1,0,-1,-3,-1028
1124,13.064132,0,-1,0,1,-4,-1022
1125,13.075726,-1,0,-1,4,-1,-1024
1126,13.087363,0,-1,0,0,3,-1023
1127,13.099048,0,0,-1,1,1,-1016
1128,13.110735,0,0,0,-3,-4,-1026
1129,13.122432,0,0,0,-2,0,-1025
1130,13.134085,-1,0,0,1,4,-1016
1131,13.145748,0,-1,0,1,3,-1020
1132,13.15742,-1,0,0,1,0,-1026
1133,13.169103,0,0,0,2,3,-1022
1134,13.180768,0,0,0,-2,0,-1027
1135,13.192471,0,0,1,-2,-2,-1020
1136,13.204055,-1,-1,-1,-3,-1,-1021
1137,13.215606,0,-1,-1,0,-1,-1023
1138,13.227174,0,-1,0,0,-3,-1025
1139,13.238733,0,-1,0,-3,-4,-1023
1140,13.250318,-1,-1,0,4,-1,-1023
1141,13.261886,0,0,0,-1,3,-1022
1142,13.27344,0,0,0,2,-4,-1025
1143,13.285004,0,0,0,-1,0,-1017
1144,13.296626,-1,-1,0,3,1,-1028
1145,13.308283,-1,-1,1,1,3,-1022
1146,13.319985,-1,0,0,1,-3,-1019
1147,13.331637,-1,0,1,-1,0,-1024
1148,13.343305,-1,0,2,3,5,-1018
1149,13.355066,0,0,0,3,-3,-1024
1150,13.366807,0,0,0,3,-5,-1026
1151,13.378496,0,0,-1,-1,0,-1025
1152,13.390166,0,-1,0,0,-2,-1021
1153,13.401729,0,0,0,-2,0,-1030
1154,13.413309,0,-1,0,2,0,-1029
1155,13.424863,-1,0,0,-5,4,-1024
1156,13.436429,-1,-1,-1,3,2,-1022
1157,13.448037,-1,0,0,-1,-4,-1024
1158,13.459599,0,-1,0,-2,0,-1018
1159,13.471181,0,-1,-1,-2,2,-1024
1160,13.482738,0,0,0,-2,0,-1022
1161,13.494323,0,-1,0,-1,2,-1022
1162,13.50597,0,-1,0,-3,2,-1028
1163,13.517628,0,0,0,0,1,-1016
1164,13.529304,0,0,0,-2,-2,-1021
1165,13.540966,-1,0,0,-2,-4,-1024
1166,13.552621,0,0,0,-1,4,-1012
1167,13.564277,0,-1,0,-1,3,-1020
1168,13.575949,0,0,0,-2,-2,-1020
1169,13.587646,0,-1,0,-1,1,-1024
1170,13.599344,0,-1,1,0,-1,-1019
1171,13.61101,0,0,0,1,-2,-1023
1172,13.62256,0,0,0,-1,-1,-1022
1173,13.63414,-1,-1,0,1,0,-1023
1174,13.645691,-1,0,-1,1,-1,-1025
1175,13.657268,-1,0,-1,3,0,-1020
1176,13.668812,0,-1,0,-2,-1,-1024
1177,13.680396,0,-1,0,-1,-4,-1024
1178,13.691947,0,-1,0,0,4,-1022
1179,13.703558,0,0,1,-4,2,-1023
1180,13.715182,-1,0,0,-1,0,-1018
1181,13.726854,-1,-1,0,-1,0,-1024
1182,13.738512,0,-1,0,1,-1,-1023
1183,13.750195,-1,0,0,-2,-1,-1021
1184,13.761854,0,0,0,-2,0,-1017
1185,13.773507,0,0,0,0,1,-1027
1186,13.785156,-1,0,0,2,0,-1028
1187,13.796833,-1,0,0,0,-5,-1024
1188,13.808498,0,-1,1,-1,4,-1028
1189,13.820184,-1,0,1,-2,-4,-1025
1190,13.831852,-1,-1,0,0,0,-1020
1191,13.843511,0,-1,0,-3,2,-1021
1192,13.855233,0,-1,0,-3,1,-1026
1193,13.866852,0,0,-1,2,-5,-1019
1194,13.878509,0,0,0,-1,3,-1025
1195,13.890198,0,0,0,1,-1,-1030
1196,13.901858,0,0,0,-3,-2,-1021
1197,13.913525,-1,-1,1,2,0,-1024
1198,13.9252,0,0,0,0,2,-1023
1199,13.936753,0,0,0,0,-1,-1027
1200,13.948302,0,0,0,0,1,-1026
1201,13.959857,0,-1,0,0,2,-1024
1202,13.971429,0,0,0,-3,0,-1017
1203,13.98298,-1,0,0,0,-2,-1019
1204,13.99456,-1,1,0,-1,5,-1030
1205,14.006071,0,1,0,1,0,-1022
1206,14.017624,-1,0,1,-2,2,-1027
1207,14.029249,-1,-1,-1,4,2,-1019
1208,14.040907,0,0,-1,-1,2,-1019
1209,14.052563,0,-1,0,-3,0,-1028
1210,14.064234,0,0,0,-1,-1,-1022
1211,14.075885,0,0,1,-2,-3,-1018
1212,14.087542,0,0,0,-1,1,-1024
1213,14.099234,-1,0,0,1,1,-1025
1214,14.110858,0,0,0,1,2,-1027
1215,14.122531,0,1,-1,3,0,-1016
1216,14.134204,0,-1,0,-3,1,-1027
1217,14.14577,0,-1,0,-3,2,-1021
1218,14.157334,0,0,0,-1,0,-1022
1219,14.168929,0,0,0,3,-1,-1025
1220,14.180504,-1,0,0,1,0,-1023
1221,14.192064,0,0,0,-1,4,-1022
1222,14.20362,-1,0,0,2,2,-1022
1223,14.215185,-1,0,1,1,-2,-1022
1224,14.226749,0,0,0,-2,-2,-1024
1225,14.238347,0,0,0,2,-4,-1027
1226,14.250001,0,0,0,2,-1,-1025
1227,14.261655,0,0,-1,-2,3,-1026
1228,14.273335,-1,-1,0,-4,0,-1022
1229,14.284992,0,0,0,0,1,-1017
1230,14.29665,0,0,0,-2,3,-1022
1231,14.30833,-1,0,1,-4,-3,-1024
1232,14.32,0,0,0,-1,1,-1021
1233,14.331668,-1,0,-1,2,-1,-1024
1234,14.343331,0,-1,0,1,-2,-1032
1235,14.354945,0,0,1,1,-4,-1023
1236,14.366497,-1,-1,-1,3,4,-1021
1237,14.37806,-1,0,-1,0,1,-1021
1238,14.389608,0,0,0,0,-2,-1020
1239,14.401172,0,-1,1,-4,2,-1022
1240,14.412724,-1,1,0,2,-1,-1026
1241,14.424297,0,-1,0,1,0,-1018
1242,14.43586,-1,-1,1,-3,3,-1024
1243,14.447508,0,-1,-1,-5,2,-1021
1244,14.459184,0,-1,-1,-2,0,-1025
1245,14.470863,-1,0,0,-2,2,-1023
1246,14.482528,-1,0,0,0,-3,-1018
1247,14.494222,-1,0,0,0,3,-1024
1248,14.505879,0,0,0,2,-1,-1029
1249,14.517552,0,0,1,-1,0,-1021
1250,14.529233,0,-1,0,-1,-1,-1030
1251,14.540904,0,0,0,-2,-1,-1025
1252,14.552605,0,0,0,0,-3,-1020
1253,14.564185,0,-1,0,2,-3,-1027
1254,14.575745,0,0,-1,2,-1,-1020
1255,14.587308,-1,0,0,1,-2,-1023
1256,14.598862,0,0,0,2,-1,-1028
1257,14.610439,0,0,-1,1,2,-1025
1258,14.621987,0,0,0,-1,3,-1026
1259,14.633543,-1,0,0,-5,-2,-1018
1260,14.645107,0,-1,0,-3,-2,-1025
1261,14.656733,0,0,1,-3,2,-1024
1262,14.668388,0,0,0,-2,1,-1019
1263,14.680042,0,1,0,0,-1,-1024
1264,14.691691,0,0,-1,-3,1,-1025
1265,14.703371,-1,1,0,-2,-1,-1025
1266,14.715033,-1,0,0,-2,-4,-1024
1267,14.726725,0,0,-1,-5,-2,-1025
1268,14.738382,0,0,0,-3,0,-1023
1269,14.750077,-1,0,0,2,3,-1025
1270,14.761731,-1,0,0,-3,-3,-1017
1271,14.773294,0,0,0,4,-2,-1030
1272,14.784846,0,0,-1,3,0,-1022
1273,14.796397,-1,0,0,-1,2,-1023
1274,14.807944,0,-1,0,-2,-3,-1019
1275,14.819564,-1,1,0,3,-1,-1019
1276,14.831122,-1,-1,0,-1,0,-1019
1277,14.842724,0,0,0,-3,3,-1026
1278,14.854344,0,0,0,-2,1,-1021
1279,14.866063,-1,0,-1,-1,-4,-1025
1280,14.877743,-1,0,0,-1,0,-1025
1281,14.889397,-1,0,0,1,2,-1023
1282,14.90105,-1,0,0,-2,1,-1029
1283,14.912724,-1,-1,0,0,2,-1015
1284,14.92439,-1,-1,0,-1,0,-1025
1285,14.93604,0,-1,1,0,2,-1028
1286,14.947715,0,-1,1,0,5,-1018
1287,14.959388,0,0,0,0,1,-1028
1288,14.971055,-1,0,0,-1,1,-1027
1289,14.982615,0,0,-1,1,-1,-1022
1290,14.994185,-1,-1,0,0,0,-1019
1291,15.005745,0,-1,0,0,-2,-1022
1292,15.017317,0,0,0,2,0,-1021
1293,15.02887,-1,0,0,-3,-2,-1021
1294,15.040434,0,-1,-1,1,-3,-1023
1295,15.051983,-1,0,-1,0,4,-1025
1296,15.063542,0,0,0,1,1,-1023
1297,15.075177,0,0,0,2,-1,-1022
1298,15.086859,-1,0,0,-4,4,-1020
1299,15.098519,0,-1,0,-4,2,-1021
1300,15.110214,0,-1,1,1,-2,-1022
1301,15.121871,0,0,1,1,1,-1017
1302,15.133525,-1,1,0,2,0,-1022
1303,15.145186,0,-1,0,0,0,-1025
1304,15.156842,0,0,0,-2,5,-1027
1305,15.168512,0,0,0,-1,0,-1030
1306,15.180198,-1,0,-1,-1,-2,-1020
1307,15.191798,-1,0,0,-2,-3,-1030
1308,15.203353,-1,0,0,-1,-3,-1024
1309,15.214944,-1,-1,0,2,-1,-1020
1310,15.226497,-1,0,0,0,2,-1019
1311,15.238074,1,0,0,-3,0,-1027
1312,15.24962,-1,-1,-1,-2,1,-1025
1313,15.261177,0,-1,0,-2,1,-1024
1314,15.272742,-1,-1,1,2,-2,-1024
1315,15.284367,-1,0,0,-1,-1,-1024
1316,15.296051,-1,0,0,-4,-1,-1016
1317,15.307746,-1,0,0,0,-2,-1022
1318,15.319386,-1,-1,1,-3,1,-1025
1319,15.331057,-1,-1,0,-1,0,-1029
1320,15.342736,-1,0,-1,4,6,-1030
1321,15.354399,0,-1,-1,-3,2,-1025
1322,15.366071,-2,0,0,-2,-1,-1019
1323,15.377758,-1,0,-1,-3,2,-1018
1324,15.389424,0,0,0,-2,2,-1020
1325,15.40098,0,0,0,0,-2,-1021
1326,15.412523,0,0,0,-6,-1,-1030
1327,15.424076,0,0,0,1,0,-1023
1328,15.435644,0,0,0,0,-2,-1019
1329,15.447203,0,0,0,2,0,-1024
1330,15.45883,0,0,0,0,-2,-1022
1331,15.470391,0,0,0,0,0,-1026
1332,15.481954,-1,-1,0,-2,2,-1018
1333,15.493647,-1,0,0,0,-2,-1028
1334,15.505305,-1,0,0,-3,1,-1029
1335,15.516991,0,0,0,-2,0,-1029
1336,15.528656,0,-1,1,-1,2,-1022
1337,15.540306,0,0,-1,-1,-2,-1022
1338,15.551999,0,-1,0,2,0,-1022
1339,15.563662,0,-1,0,2,-1,-1027
1340,15.575351,-1,0,-1,-3,-3,-1021
1341,15.587037,-1,-1,0,4,0,-1023
1342,15.598708,-1,-1,-1,-4,-1,-1022
1343,15.610271,0,-1,-1,-2,0,-1022
1344,15.621828,0,0,0,0,-3,-1028
1345,15.633404,-1,0,1,2,0,-1022
1346,15.644962,0,0,0,-4,-2,-1024
1347,15.656572,0,0,0,-1,2,-1024
1348,15.668152,0,0,0,3,-3,-1024
1349,15.679703,-1,-1,0,0,-3,-1022
1350,15.691285,0,0,0,3,-3,-1018
1351,15.70292,0,0,0,-4,3,-1021
1352,15.714604,0,-1,0,0,-1,-1025
1353,15.726263,-1,0,0,-1,-3,-1021
1354,15.737917,0,0,0,-3,0,-1020
1355,15.749593,0,0,0,-2,-1,-1028
1356,15.761248,-1,0,0,3,2,-1019
1357,15.77291,0,0,0,1,4,-1016
1358,15.784602,0,0,0,1,1,-1021
1359,15.796267,0,0,-1,2,-2,-1030
1360,15.807982,0,-1,0,0,0,-1019
1361,15.819545,0,0,-1,1,-2,-1023
1362,15.831182,-1,0,0,-1,-2,-1017
1363,15.842735,-1,0,-1,0,1,-1021
1364,15.854321,0,-1,0,-3,0,-1018
1365,15.865864,-1,0,0,1,2,-1022
1366,15.877425,-1,0,1,0,0,-1029
1367,15.888978,0,-1,1,0,-2,-1029
1368,15.900528,-1,1,0,0,-3,-1022
1369,15.912184,-1,0,0,2,0,-1021
1370,15.923835,0,0,0,0,-1,-1025
1371,15.935506,-1,1,-1,4,2,-1020
1372,15.947155,-1,1,-1,-1,0,-1024
1373,15.958848,0,0,1,1,2,-1021
1374,15.970514,0,-1,0,-4,3,-1029
1375,15.982201,-1,-1,0,1,-2,-1029
1376,15.993866,0,-1,-1,-4,-1,-1021
1377,16.005519,0,0,0,0,-1,-1028
1378,16.017173,0,0,0,0,2,-1019
1379,16.028848,-1,0,0,-1,0,-1021
1380,16.040456,0,0,0,0,1,-1029
1381,16.052018,-1,0,0,2,-2,-1026
1382,16.063567,0,1,0,3,4,-1026
1383,16.075185,0,0,-1,-1,2,-1028
1384,16.086738,-1,-1,0,-2,-1,-1020
1385,16.098321,-1,0,0,0,-3,-1019
1386,16.109882,-1,0,0,0,-2,-1026
1387,16.121436,-1,-1,0,1,1,-1021
1388,16.132983,0,0,0,-3,1,-1028
1389,16.144526,0,-1,0,2,-6,-1019
1390,16.156074,-1,0,0,-3,-2,-1022
1391,16.167636,-1,0,0,-2,1,-1019
1392,16.179202,0,0,0,2,2,-1025
1393,16.19078,0,0,0,-1,-2,-1026
1394,16.202315,-1,0,-1,-1,1,-1026
1395,16.213946,-1,0,0,-3,0,-1029
1396,16.225599,0,-1,0,0,2,-1025
1397,16.237276,0,0,0,-1,2,-1029
1398,16.248929,0,0,0,0,-2,-1021
1399,16.260584,0,0,0,0,1,-1024
1400,16.272253,-1,0,-1,3,0,-1030
1401,16.2839,0,-1,-1,0,-2,-1028
1402,16.295554,0,0,0,-2,2,-1023
1403,16.307249,0,0,-1,-1,0,-1028
1404,16.318936,0,1,1,-4,3,-1023
1405,16.330593,-1,0,0,-3,-2,-1021
1406,16.342257,-1,-1,0,-3,4,-1021
1407,16.353915,-1,0,0,-1,2,-1023
1408,16.365565,-1,0,0,0,3,-1020
1409,16.37724,0,0,0,-3,-1,-1031
1410,16.388898,-1,0,0,-4,2,-1027
1411,16.400546,-1,0,0,-1,1,-1027
1412,16.412226,0,0,-1,0,3,-1029
1413,16.423922,0,0,0,0,0,-1018
1414,16.435626,-1,0,1,0,1,-1023
1415,16.447192,0,0,-1,0,-4,-1022
1416,16.458751,0,0,1,1,2,-1022
1417,16.470323,-1,0,0,-1,-1,-1022
1418,16.481872,0,1,0,-4,-6,-1022
1419,16.493443,0,0,0,-2,1,-1029
1420,16.505001,-1,0,0,1,2,-1028
1421,16.51659,-1,0,0,0,-3,-1023
1422,16.52817,0,-1,0,-1,5,-1024
1423,16.539783,-1,0,-1,-4,1,-1018
1424,16.551466,-1,0,0,0,2,-1021
1425,16.563122,-1,0,0,-2,1,-1021
1426,16.574784,0,0,1,0,2,-1025
1427,16.586469,-1,-1,-1,-3,0,-1025
1428,16.598132,-1,-1,0,-1,-1,-1026
1429,16.609784,0,0,0,-3,0,-1028
1430,16.621441,-1,0,0,-1,2,-1029
1431,16.633107,0,-1,0,-5,0,-1028
1432,16.644764,0,0,1,3,1,-1020
1433,16.65642,0,0,0,-5,-1,-1026
1434,16.668061,0,0,-1,0,0,-1023
1435,16.679742,0,0,0,0,-2,-1024
1436,16.691381,0,-1,0,1,0,-1021
1437,16.703028,0,-1,0,-2,-2,-1031
1438,16.714677,0,0,0,1,-1,-1025
1439,16.726347,0,-1,0,1,-3,-1028
1440,16.738028,0,0,0,0,-1,-1027
1441,16.749685,0,-1,0,-1,0,-1027
1442,16.761339,0,-1,0,-1,0,-1022
1443,16.773003,0,-1,0,-1,3,-1027
1444,16.784686,0,-1,1,-4,1,-1023
1445,16.796333,0,-1,0,0,0,-1024
1446,16.808023,-1,0,0,0,1,-1022
1447,16.819684,0,0,0,3,0,-1018
1448,16.831373,0,0,-1,0,-2,-1026
1449,16.843037,0,0,0,-2,-2,-1025
1450,16.85461,0,0,0,-4,0,-1022
1451,16.866213,0,0,0,-1,-2,-1025
1452,16.877791,-1,0,0,5,-3,-1031
1453,16.889339,0,-1,0,4,-2,-1023
1454,16.900885,0,0,0,1,0,-1022
1455,16.912448,0,-1,0,0,-2,-1023
1456,16.924005,-1,-1,0,3,-2,-1022
1457,16.935557,-1,0,0,-2,-1,-1024
1458,16.947126,0,0,-1,-1,0,-1022
1459,16.95875,0,-1,0,1,-3,-1024
1460,16.97041,0,0,0,-3,7,-1028
1461,16.982083,0,0,0,4,-1,-1023
1462,16.993746,-1,-1,0,-2,-1,-1024
1463,17.005388,-1,-1,-1,1,1,-1024
1464,17.017037,-1,-1,0,3,2,-1016
1465,17.028706,0,-1,0,-3,-2,-1023
1466,17.040372,0,0,-1,1,-2,-1022
1467,17.051989,0,0,-1,1,0,-1022
1468,17.063567,0,-1,0,3,-2,-1024
1469,17.075112,-1,-1,0,-2,0,-1025
1470,17.086681,-1,0,0,-2,-2,-1024
1471,17.098234,0,0,1,3,4,-1024
1472,17.109786,0,0,0,-1,5,-1021
1473,17.121355,0,0,0,3,1,-1027
1474,17.133012,1,0,0,2,2,-1023
1475,17.144626,0,-1,0,0,-2,-1028
1476,17.1562,0,1,0,-2,1,-1024
1477,17.167759,0,0,0,-1,-1,-1022
1478,17.179315,-1,0,0,2,-1,-1022
1479,17.19087,-1,0,0,-2,-1,-1018
1480,17.202447,-1,-1,0,-4,-1,-1022
1481,17.21399,0,0,0,0,0,-1016
1482,17.225567,0,0,0,-1,-2,-1021
1483,17.237109,0,0,0,-3,3,-1020
1484,17.248664,-1,0,0,-2,1,-1024
1485,17.260345,0,-1,0,1,3,-1020
1486,17.272039,1,0,0,3,0,-1024
1487,17.283721,0,0,0,-4,1,-1025
1488,17.295416,0,0,-1,-3,2,-1021
1489,17.307135,-1,0,0,-3,2,-1025
1490,17.318783,0,0,0,1,2,-1028
1491,17.330478,0,-1,0,1,0,-1030
1492,17.342154,0,0,0,-4,0,-1019
1493,17.353844,-1,0,0,-1,-1,-1021
1494,17.365527,0,-1,0,-2,-1,-1030
1495,17.377106,-1,-1,0,-5,0,-1026
1496,17.388689,-1,0,1,-1,-3,-1025
1497,17.400238,-1,0,0,-2,-2,-1018
1498,17.411786,-1,-1,0,-1,4,-1020
1499,17.423344,-1,0,0,-1,-2,-1022
1500,17.434935,-1,-1,1,-1,1,-1026
1501,17.446506,0,-1,1,1,-1,-1029
1502,17.458105,-1,0,1,-5,-1,-1025
1503,17.469759,0,-1,-1,-1,0,-1019
1504,17.481419,0,0,0,0,4,-1023
1505,17.493065,0,0,0,-3,5,-1025
1506,17.504742,0,0,0,-1,0,-1019
1507,17.516429,0,0,0,3,-3,-1024
1508,17.528109,-1,0,-1,0,2,-1018
1509,17.539762,0,0,0,-1,0,-1022
1510,17.551412,0,-1,1,-3,-2,-1027
1511,17.563143,0,0,0,1,3,-1024
1512,17.574815,-1,-1,0,2,2,-1019
1513,17.586374,-1,-1,0,3,0,-1020
1514,17.597929,-1,0,0,0,-3,-1024
1515,17.609484,0,0,0,0,0,-1027
1516,17.621034,0,0,0,1,-5,-1022
1517,17.632586,0,-1,0,-2,-1,-1028
1518,17.644163,0,-1,0,-5,3,-1025
1519,17.655714,-1,0,0,0,-1,-1024
1520,17.667325,0,-1,0,1,4,-1020
1521,17.679016,0,-1,0,-3,0,-1027
1522,17.690733,-1,1,0,-1,-1,-1027
1523,17.702403,-1,-1,0,0,0,-1023
1524,17.714091,-1,-1,1,0,-1,-1024
1525,17.725762,0,-1,0,-2,0,-1023
1526,17.737414,0,-1,0,1,1,-1026
1527,17.749087,-1,0,0,-2,-2,-1023
1528,17.760746,0,0,-1,3,-1,-1024
1529,17.772417,0,-1,0,0,2,-1026
1530,17.784065,-1,-1,0,-2,2,-1026
1531,17.795765,-1,0,0,0,2,-1026
1532,17.80743,0,0,0,2,-2,-1026
1533,17.819108,-1,-1,0,0,-1,-1022
1534,17.830776,0,1,0,0,-1,-1027
1535,17.842472,0,0,0,3,2,-1026
1536,17.854136,0,-1,-1,1,2,-1030
1537,17.86579,-1,0,0,-4,-2,-1020
1538,17.877462,-1,0,-1,2,-1,-1025
1539,17.889133,0,-1,1,-2,3,-1024
1540,17.900704,-1,0,0,2,1,-1024
1541,17.912253,0,0,0,-4,-1,-1022
1542,17.92381,0,0,1,-3,1,-1025
1543,17.935368,-1,-1,-1,-2,0,-1021
1544,17.946956,0,0,0,-5,0,-1024
1545,17.958577,0,-1,0,-2,-1,-1026
1546,17.970139,-1,0,0,-1,-2,-1023
1547,17.981706,0,0,0,-2,2,-1020
1548,17.993419,0,0,0,1,1,-1029
1549,18.005084,0,0,0,-3,0,-1030
1550,18.016754,0,0,0,0,4,-1024
1551,18.028415,0,1,1,0,6,-1021
1552,18.040079,0,1,1,0,-2,-1023
1553,18.051753,0,1,1,-1,1,-1027
1554,18.063413,-2,0,0,-2,-1,-1022
1555,18.075136,-1,0,0,-1,-1,-1023
1556,18.086805,0,0,0,-2,0,-1025
1557,18.098503,0,0,0,-2,0,-1032
1558,18.110162,0,-2,-1,-2,0,-1027
1559,18.121811,-1,-1,0,1,0,-1017
1560,18.133479,-1,1,0,-1,3,-1023
1561,18.145144,0,0,0,0,-1,-1023
1562,18.156795,0,0,0,0,0,-1020
1563,18.168469,-1,0,0,3,4,-1021
1564,18.180146,0,-1,0,0,1,-1029
1565,18.191857,-1,0,0,-1,-4,-1024
1566,18.203514,0,0,0,0,0,-1028
1567,18.215045,0,0,-1,-3,-3,-1029
1568,18.226604,0,-1,0,-1,1,-1020
1569,18.238202,0,-1,0,1,-3,-1025
1570,18.249747,0,-1,0,-2,1,-1019
1571,18.261317,-1,0,-1,-2,-2,-1021
1572,18.27287,0,-1,-1,5,0,-1024
1573,18.28445,1,-1,0,0,1,-1019
1574,18.296024,-1,-1,0,1,2,-1024
1575,18.307644,0,0,0,-2,1,-1024
1576,18.321554,0,-1,0,-2,-3,-1031
1577,18.333259,-1,0,0,1,3,-1019
1578,18.344922,0,-1,0,-7,0,-1025
1579,18.356579,0,-1,0,0,-3,-1027
1580,18.368237,0,-1,0,3,4,-1024
1581,18.379899,-1,0,0,0,0,-1028
1582,18.391561,-1,-1,0,-5,1,-1021
1583,18.403273,0,0,0,-3,0,-1027
1584,18.414986,0,-1,0,-1,-3,-1022
1585,18.426559,0,0,0,2,1,-1020
1586,18.438117,0,-1,-1,0,1,-1021
1587,18.449681,-1,0,0,-1,0,-1024
1588,18.46123,0,0,0,5,-1,-1026
1589,18.472823,0,0,0,0,1,-1024
1590,18.484374,0,0,0,-2,0,-1023
1591,18.495982,0,0,0,-1,3,-1021
1592,18.507544,-1,-1,0,-2,2,-1023
1593,18.519175,0,0,0,2,-1,-1023
1594,18.530853,0,0,0,-1,-5,-1026
1595,18.54252,0,1,0,0,-1,-1018
1596,18.5542,0,0,0,4,-2,-1024
1597,18.565884,-1,0,0,0,0,-1023
1598,18.577529,-1,0,-1,4,0,-1023
1599,18.589181,0,0,1,-1,0,-1023
1600,18.600863,0,0,0,-4,2,-1023
1601,18.612527,-1,0,0,1,3,-1022
1602,18.624177,0,-1,0,-3,1,-1021
1603,18.635777,0,-1,0,5,1,-1024
1604,18.647341,0,0,0,1,3,-1026
1605,18.65892,-1,-1,-1,-1,2,-1024
1606,18.670484,0,0,0,-2,-2,-1021
1607,18.682061,-1,-1,0,-3,1,-1028
1608,18.693615,-1,0,0,-1,-3,-1025
1609,18.705198,0,0,0,-3,0,-1025
1610,18.716773,0,1,0,2,-1,-1025
1611,18.728409,0,-1,0,-4,4,-1028
1612,18.740087,0,0,0,3,3,-1026
1613,18.751764,-1,0,0,2,-1,-1028
1614,18.763429,-1,0,0,2,3,-1028
1615,18.775139,0,-1,0,-2,1,-1024
1616,18.786821,0,-1,1,0,1,-1020
1617,18.798519,-1,0,0,2,0,-1020
1618,18.810205,0,-1,0,-3,1,-1018
1619,18.821904,-1,0,0,0,-1,-1023
1620,18.833563,0,-1,0,-3,1,-1019
1621,18.845121,-1,-1,1,-3,1,-1016
1622,18.856668,-1,-1,0,1,-2,-1030
1623,18.868221,-1,0,0,-4,6,-1023
1624,18.879766,-1,-1,0,0,1,-1019
1625,18.891276,-1,0,0,-3,-2,-1019
1626,18.902795,0,-1,0,-1,4,-1026
1627,18.914314,-1,1,0,3,2,-1029
1628,18.925859,-1,0,0,1,3,-1025
1629,18.937516,-1,-1,0,-3,4,-1024
1630,18.949167,-1,-1,0,-1,1,-1025
1631,18.960835,0,0,1,-1,-3,-1025
1632,18.972482,0,1,0,-4,-4,-1021
1633,18.984139,-1,0,1,0,-1,-1027
1634,18.995793,0,0,0,-1,0,-1030
1635,19.007473,1,1,0,1,-2,-1022
1636,19.019124,-1,1,0,-2,0,-1028
1637,19.030801,-1,0,0,0,-3,-1024
1638,19.042476,0,0,-1,3,-1,-1028
1639,19.054133,0,-1,0,1,0,-1022
1640,19.065783,-1,0,0,0,0,-1020
1641,19.077436,-1,0,0,0,-1,-1024
1642,19.089108,-1,0,1,1,2,-1025
1643,19.100825,0,-1,0,-2,-2,-1013
1644,19.112531,0,0,1,-1,1,-1018
1645,19.124205,-1,0,0,-3,-2,-1020
1646,19.135974,0,0,0,-3,1,-1030
1647,19.147537,0,-1,0,1,-3,-1032
1648,19.159107,-1,0,0,1,1,-1023
1649,19.170678,-1,0,0,0,0,-1026
1650,19.182231,0,0,0,-2,-1,-1024
1651,19.193835,-1,0,0,0,2,-1025
1652,19.205384,-1,0,0,1,-1,-1017
1653,19.216964,0,0,1,-2,1,-1027
1654,19.228512,0,-1,0,-1,-3,-1026
1655,19.240123,0,0,0,1,-1,-1021
1656,19.251792,-1,0,-1,0,-1,-1028
1657,19.263516,0,-1,-1,-2,1,-1015
1658,19.275217,0,0,0,1,-1,-1021
1659,19.286872,-1,0,0,-2,-3,-1021
1660,19.298532,0,-1,1,0,1,-1023
1661,19.310212,0,0,1,1,5,-1022
1662,19.321882,0,0,0,-2,-2,-1021
1663,19.33354,-1,0,0,-3,2,-1021
1664,19.345211,-1,0,0,-3,-1,-1023
1665,19.356889,0,-1,0,-5,-3,-1023
1666,19.368543,0,0,0,-2,1,-1024
1667,19.380232,0,0,0,-3,3,-1022
1668,19.391892,0,0,0,-2,-2,-1023
1669,19.403565,0,0,0,-4,-5,-1026
1670,19.415263,0,1,0,0,2,-1017
1671,19.426934,-1,-1,0,3,-1,-1023
1672,19.438626,-1,-1,0,-3,3,-1026
1673,19.45029,0,0,0,-1,-2,-1021
1674,19.461976,0,-1,0,-1,-3,-1022
1675,19.473526,-1,0,-1,-3,-1,-1023
1676,19.485076,-1,0,0,-1,1,-1025
1677,19.496626,0,-1,0,-1,3,-1020
1678,19.508197,-1,-1,-1,-6,-1,-1025
1679,19.519746,0,0,0,3,-2,-1027
1680,19.531308,0,0,-1,1,-3,-1025
1681,19.542859,0,-1,0,-4,0,-1018
1682,19.554443,0,0,0,2,0,-1032
1683,19.566089,-1,0,0,-1,-3,-1021
1684,19.577758,-1,1,0,1,-2,-1024
1685,19.589408,0,0,0,4,-1,-1024
1686,19.601059,0,0,1,1,-5,-1018
1687,19.61273,1,0,0,-2,-2,-1025
1688,19.624379,-1,0,0,-1,3,-1026
1689,19.63603,0,0,1,0,0,-1021
1690,19.647677,0,0,0,-2,0,-1025
1691,19.659408,0,0,0,1,-2,-1023
1692,19.671039,0,0,0,-1,-2,-1028
1693,19.682553,0,0,1,5,-4,-1023
1694,19.694071,0,-1,1,-2,0,-1024
1695,19.705633,0,0,0,-3,-4,-1026
1696,19.717196,-1,0,-1,-1,-4,-1017
1697,19.728746,0,0,0,3,0,-1026
1698,19.740312,0,0,0,1,2,-1027
1699,19.751893,-1,0,0,-3,2,-1023
1700,19.763468,0,-1,0,-1,-3,-1027
1701,19.775182,0,-1,0,-1,1,-1023
1702,19.786876,-1,-1,0,2,3,-1023
1703,19.798547,-1,0,0,-2,-3,-1020
1704,19.810227,-1,0,0,0,4,-1022
1705,19.821885,0,0,1,-2,3,-1026
1706,19.833528,0,-1,1,-4,-3,-1022
1707,19.845179,-1,0,1,-2,-1,-1017
1708,19.856855,-1,0,1,-1,2,-1020
1709,19.868519,-1,-1,0,1,1,-1028
1710,19.880189,0,0,0,0,0,-1026
1711,19.891757,0,0,0,0,1,-1024
1712,19.903304,0,0,1,-1,-3,-1027
1713,19.914853,0,-1,0,4,-4,-1026
1714,19.926429,-1,0,-1,2,-3,-1028
1715,19.937973,0,0,0,1,0,-1025
1716,19.949522,-1,0,-1,1,-4,-1026
1717,19.961066,0,0,0,1,4,-1027
1718,19.972647,0,0,0,-2,-2,-1023
1719,19.984247,0,0,0,4,2,-1025
1720,19.9959,-1,0,1,1,-2,-1018
1721,20.007577,0,1,0,0,0,-1020
1722,20.019248,0,-1,0,-1,1,-1025
1723,20.030905,-1,0,0,0,2,-1028
1724,20.042593,0,-1,0,-1,4,-1020
1725,20.054248,0,0,0,1,-5,-1019
1726,20.065897,1,0,0,-1,-2,-1024
1727,20.077582,0,-1,1,-3,-1,-1021
1728,20.089243,0,0,1,1,-1,-1024
1729,20.100895,0,-1,0,2,-1,-1025
1730,20.112553,0,0,0,1,0,-1024
1731,20.124288,-1,-1,0,0,-2,-1023
1732,20.135933,0,-1,0,-3,0,-1030
1733,20.147609,0,0,0,-2,-2,-1025
1734,20.159272,0,-1,-1,0,3,-1028
1735,20.170941,0,0,0,-2,-1,-1025
1736,20.182672,-1,0,-1,1,-2,-1023
1737,20.194358,0,0,-1,0,1,-1023
1738,20.205925,-1,0,0,-3,-2,-1020
1739,20.217538,-1,0,1,-3,2,-1021
1740,20.2291,0,0,1,-4,-2,-1025
1741,20.240669,0,0,0,-4,0,-1024
1742,20.252213,-1,1,0,-1,2,-1022
1743,20.263789,-1,0,0,-3,-3,-1022
1744,20.275366,-1,0,-1,0,2,-1028
1745,20.286944,-1,0,0,-4,-2,-1021
1746,20.298603,-1,-1,1,-4,-1,-1018
1747,20.310265,0,-1,-1,3,-1,-1023
1748,20.321926,0,-1,0,-3,1,-1028
1749,20.333598,0,0,0,-4,-2,-1027
1750,20.345256,0,0,1,-2,0,-1025
1751,20.356927,-1,1,0,2,-1,-1024
1752,20.368585,-1,-1,0,-2,2,-1025
1753,20.380244,0,0,-1,0,-1,-1018
1754,20.391904,-1,0,0,0,0,-1025
1755,20.403576,0,0,0,2,0,-1020
1756,20.415161,-1,-1,-1,1,3,-1025
1757,20.426729,-1,0,0,1,-3,-1025
1758,20.438305,0,-1,0,-1,-1,-1019
1759,20.449883,0,0,0,-2,0,-1024
1760,20.461433,0,1,0,0,-1,-1026
1761,20.473015,-1,0,0,0,-2,-1026
1762,20.484562,-1,0,0,0,-2,-1025
1763,20.496156,0,0,1,-2,0,-1021
1764,20.507831,-1,-1,0,-3,0,-1024
1765,20.519537,0,-1,0,-2,4,-1024
1766,20.53124,0,0,0,0,3,-1025
1767,20.542915,0,0,0,-2,1,-1029
1768,20.554583,-1,0,0,1,3,-1027
1769,20.566242,0,0,1,-3,-2,-1026
1770,20.577891,0,-1,0,0,1,-1014
1771,20.58955,0,-1,0,-3,-6,-1026
1772,20.601219,0,0,-1,-4,-1,-1019
1773,20.61292,0,0,0,6,2,-1026
1774,20.624483,0,1,0,-2,-1,-1024
1775,20.636041,0,0,0,1,0,-1026
1776,20.647612,0,-1,-1,1,0,-1024
1777,20.659174,0,0,0,-3,1,-1021
1778,20.670735,0,0,0,0,3,-1024
1779,20.682313,0,-1,0,2,4,-1020
1780,20.693885,0,-1,1,1,0,-1020
1781,20.705491,0,0,0,0,1,-1020
1782,20.717126,0,0,0,2,1,-1024
1783,20.728797,0,-1,0,4,-2,-1025
1784,20.740451,0,0,-1,1,-3,-1028
1785,20.752097,0,0,0,-3,-2,-1032
1786,20.763793,0,0,0,1,-3,-1021
1787,20.775453,-1,0,0,2,-1,-1027
1788,20.787127,-1,-1,0,-1,-2,-1024
1789,20.798798,0,-1,1,-4,1,-1023
1790,20.810491,0,-1,0,-1,-1,-1026
1791,20.822227,0,0,-1,3,0,-1013
1792,20.833917,0,0,0,-2,0,-1025
1793,20.845495,0,0,0,-2,0,-1026
1794,20.857049,0,0,0,1,3,-1023
1795,20.868663,0,0,0,-1,0,-1017
1796,20.880239,0,0,1,3,8,-1020
1797,20.891796,0,0,0,2,2,-1020
1798,20.903386,-1,0,0,-2,2,-1020
1799,20.915477,-1,0,-1,3,1,-1027
1800,20.927119,0,0,-1,0,-1,-1025
1801,20.938688,0,0,1,1,-2,-1024
1802,20.950249,0,0,1,0,-1,-1019
1803,20.961805,0,0,1,-2,-3,-1024
1804,20.973348,0,0,0,-1,-2,-1023
1805,20.984904,-1,-1,1,1,-3,-1029
1806,20.996454,0,0,0,-2,-3,-1020
1807,21.008043,0,-1,0,-3,2,-1023
1808,21.01971,0,0,-1,-4,-2,-1025
1809,21.031331,0,-1,1,2,0,-1025
1810,21.042933,0,0,-1,-4,-5,-1023
1811,21.054552,0,0,0,1,3,-1020
1812,21.066248,0,-1,0,2,1,-1024
1813,21.077852,0,0,1,0,5,-1020
1814,21.089412,0,0,1,-2,1,-1023
1815,21.10099,-1,0,0,1,1,-1024
1816,21.112537,0,0,0,-1,1,-1027
1817,21.124089,0,0,0,3,2,-1022
1818,21.135663,0,-1,0,0,0,-1024
1819,21.147232,0,-1,0,0,1,-1027
1820,21.158802,0,-1,0,-4,-2,-1024
1821,21.170317,-1,0,0,0,-2,-1030
1822,21.181856,-1,1,0,-2,1,-1024
1823,21.193398,-1,0,0,-3,0,-1024
1824,21.204951,0,0,0,0,-2,-1027
1825,21.216512,-1,-1,-1,1,3,-1019
1826,21.228195,-1,0,0,3,1,-1022
1827,21.23989,-1,1,0,-2,1,-1026
1828,21.251559,0,-1,1,0,-3,-1022
1829,21.263255,0,0,0,1,0,-1027
1830,21.274911,-1,0,-1,2,0,-1024
1831,21.286608,0,0,0,3,1,-1030
1832,21.298277,0,-1,0,0,0,-1027
1833,21.309926,0,-1,1,2,6,-1023
1834,21.321587,0,-1,0,0,0,-1026
1835,21.33332,0,0,0,-2,2,-1025
1836,21.345073,-1,1,1,1,0,-1023
1837,21.356662,0,1,0,0,2,-1019
1838,21.368222,-1,0,1,-2,0,-1023
1839,21.379817,0,-1,-1,2,-1,-1027
1840,21.391437,-1,0,0,-2,-2,-1023
1841,21.402987,-1,-1,0,0,2,-1028
1842,21.414554,-1,0,0,0,-6,-1019
1843,21.426096,0,0,0,0,1,-1022
1844,21.437654,-1,0,0,2,-3,-1029
1845,21.449214,-1,1,0,-4,0,-1028
1846,21.460768,-1,0,0,-4,-1,-1027
1847,21.472329,-1,0,0,0,-1,-1028
1848,21.483891,-1,0,0,-1,2,-1022
1849,21.495458,-1,1,-1,-1,-1,-1024
1850,21.507042,0,-1,-1,3,1,-1021
1851,21.518598,0,0,1,-2,0,-1022
1852,21.530245,-1,0,0,1,-1,-1023
1853,21.541892,-1,0,0,-4,3,-1022
1854,21.553564,-1,0,0,-3,-1,-1022
1855,21.565214,0,0,0,-1,-2,-1029
1856,21.576881,0,-1,0,0,0,-1020
1857,21.588529,0,0,0,-4,-1,-1026
1858,21.600217,0,0,0,1,5,-1024
1859,21.611881,-1,-1,1,-2,0,-1019
1860,21.623544,0,-1,0,2,-2,-1027
1861,21.635256,1,0,-1,0,1,-1022
1862,21.646914,0,0,-1,-3,-1,-1023
1863,21.658603,0,0,0,-1,0,-1030
1864,21.670256,0,0,0,2,2,-1025
1865,21.681901,0,-1,-1,0,-2,-1022
1866,21.693565,0,0,0,-1,1,-1020
1867,21.705232,0,-1,0,3,4,-1019
1868,21.71688,0,0,0,-1,-2,-1027
1869,21.728525,-1,-1,0,-1,-1,-1025
1870,21.740245,0,0,-1,-4,-1,-1025
1871,21.751897,0,-1,0,1,-1,-1019
1872,21.763568,1,0,-1,-3,-2,-1022
1873,21.77524,-1,0,1,-2,1,-1021
1874,21.786895,-1,0,0,-1,2,-1025
1875,21.798585,-1,1,0,0,2,-1022
1876,21.810245,0,-1,0,-1,-2,-1024
1877,21.821888,0,-1,0,-3,1,-1020
1878,21.833549,-1,0,0,1,0,-1026
1879,21.845282,-1,0,0,0,2,-1031
1880,21.856907,-1,1,0,-1,-2,-1021
1881,21.868451,0,1,0,-3,1,-1027
1882,21.880032,0,0,0,1,4,-1019
1883,21.891579,-1,0,0,2,2,-1024
1884,21.903174,0,-1,1,-3,1,-1026
1885,21.914723,-1,0,0,2,-3,-1018
1886,21.926297,-1,0,0,-1,1,-1027
1887,21.937843,-1,0,0,-5,-1,-1021
1888,21.949401,0,0,0,0,-2,-1031
1889,21.961095,0,-1,0,-3,2,-1023
1890,21.972772,-1,0,0,-4,-3,-1023
1891,21.984425,-1,-1,1,5,-3,-1023
1892,21.996084,0,-1,0,-3,1,-1035
1893,22.007742,0,0,0,0,4,-1019
1894,22.019368,0,0,0,1,-4,-1025
1895,22.031025,-1,-1,0,1,-2,-1026
1896,22.042726,-1,-1,0,-2,0,-1025
1897,22.054359,0,0,1,-2,2,-1023
1898,22.065922,0,0,0,-2,-2,-1026
1899,22.077478,0,0,0,1,-2,-1024
1900,22.089042,-1,0,0,2,5,-1020
1901,22.100585,-1,0,0,0,0,-1023
1902,22.112136,0,0,0,2,3,-1016
1903,22.123686,0,0,1,0,-2,-1025
1904,22.135287,0,0,0,0,-1,-1026
1905,22.146833,-1,1,0,-4,1,-1023
1906,22.158449,-1,-1,0,-2,2,-1027
1907,22.170146,-1,0,0,-3,1,-1013
1908,22.181792,0,0,0,-2,-4,-1031
1909,22.193448,0,-1,0,2,2,-1023
1910,22.2051,0,0,0,0,1,-1020
1911,22.21676,-1,0,0,3,2,-1023
1912,22.228409,0,0,0,2,4,-1022
1913,22.240092,-1,0,0,3,-3,-1023
1914,22.251763,0,-1,0,0,0,-1018
1915,22.263419,0,0,0,2,0,-1024
1916,22.275104,-1,0,1,-2,-4,-1018
1917,22.286771,0,0,0,0,-4,-1027
1918,22.298417,0,-1,0,-4,0,-1024
1919,22.310085,0,0,0,0,2,-1023
1920,22.321739,0,0,0,-1,0,-1019
1921,22.333382,-1,-1,0,-4,0,-1029
1922,22.345074,0,-1,0,0,2,-1023
1923,22.356723,0,0,0,-2,-2,-1025
1924,22.368301,-1,0,0,1,1,-1025
1925,22.379852,0,-1,0,-4,-2,-1029
1926,22.391411,0,-1,-1,-2,-2,-1023
1927,22.402993,0,-1,0,3,0,-1026
1928,22.414552,0,0,0,2,-1,-1022
1929,22.426133,0,0,1,0,-1,-1027
1930,22.437673,0,0,0,2,-2,-1025
1931,22.449225,0,0,0,-2,3,-1023
1932,22.460783,-1,0,0,-4,-3,-1024
1933,22.472551,0,0,0,-3,0,-1031
1934,22.484209,0,0,0,1,2,-1024
1935,22.495866,-1,0,0,-1,1,-1029
1936,22.507538,0,0,0,-2,-1,-1014
1937,22.519198,1,0,0,2,2,-1021
1938,22.530859,0,0,0,-2,-1,-1015
1939,22.542542,-1,0,0,-3,2,-1023
1940,22.554224,0,0,0,-2,-3,-1024
1941,22.565902,-1,0,0,-3,0,-1017
1942,22.577496,-1,0,0,1,0,-1025
1943,22.589047,-1,0,0,2,-2,-1027
1944,22.600624,-1,0,0,2,-5,-1025
1945,22.612161,-1,0,0,-1,-1,-1024
1946,22.623716,-1,0,0,-1,1,-1024
1947,22.635281,0,-1,0,-3,1,-1022
1948,22.646873,0,0,0,0,4,-1025
1949,22.658451,0,0,0,-1,-1,-1028
1950,22.670084,0,-1,-1,-2,-3,-1025
1951,22.681737,0,-1,0,2,1,-1027
1952,22.693392,-1,-1,-1,-2,-6,-1025
1953,22.705062,-1,-1,-1,0,0,-1027
1954,22.71674,-1,-1,0,1,-1,-1024
1955,22.728413,0,0,-1,0,0,-1025
1956,22.740069,-1,0,0,-4,-1,-1021
1957,22.751714,0,0,-1,-2,-1,-1023
1958,22.763389,-1,-1,0,-1,2,-1026
1959,22.775046,-1,-1,0,-1,-4,-1022
1960,22.786616,0,0,0,-5,-2,-1023
1961,22.79819,0,0,-1,4,-2,-1022
1962,22.80974,0,0,0,-1,1,-1024
1963,22.821307,0,0,0,1,-4,-1027
1964,22.832873,-1,0,0,3,1,-1027
1965,22.844425,-1,0,0,0,2,-1020
1966,22.855988,0,0,0,1,-3,-1034
1967,22.867547,0,1,0,0,1,-1021
1968,22.879255,0,0,0,2,0,-1020
1969,22.890922,0,-1,0,0,-3,-1021
1970,22.902592,0,0,0,1,1,-1021
1971,22.91428,0,0,0,-1,4,-1020
1972,22.925941,0,0,0,-4,1,-1021
1973,22.937585,0,0,1,-2,5,-1021
1974,22.949254,-1,0,0,0,3,-1024
1975,22.96092,0,1,0,2,-1,-1024
1976,22.972562,0,-1,0,-2,4,-1028
1977,22.984121,0,0,-1,-2,1,-1030
1978,22.995671,0,0,-1,-2,-2,-1025
1979,23.00723,-1,-1,0,1,0,-1018
1980,23.018792,0,-1,0,2,3,-1025
1981,23.030315,0,0,-1,-2,2,-1026
1982,23.041865,0,0,0,0,-2,-1022
1983,23.053437,0,0,0,-1,-1,-1025
1984,23.065004,0,0,0,-3,1,-1026
1985,23.076649,0,-1,0,0,-2,-1025
1986,23.088337,0,0,0,2,0,-1022
1987,23.100009,0,0,0,4,0,-1024
1988,23.111663,0,0,0,0,-2,-1021
1989,23.123442,0,-1,0,-3,-1,-1025
1990,23.135306,-1,0,1,-4,-2,-1023
1991,23.147007,0,0,0,0,-3,-1022
1992,23.15867,0,0,0,0,2,-1023
1993,23.170496,0,-1,0,0,-1,-1020
1994,23.182214,0,-1,0,2,0,-1024
1995,23.19381,-1,0,0,3,-1,-1022
1996,23.205355,0,0,0,0,3,-1025
1997,23.216958,0,0,0,-2,1,-1025
1998,23.228509,-1,0,0,-2,1,-1025
1999,23.240061,-1,-1,0,3,-1,-1021
