sample,t_s,gyro_x,gyro_y,gyro_z,accel_x,accel_y,accel_z
0,1.1e-05,1,7,7,25,13,-1028
1,0.011324,0,8,7,21,14,-1022
2,0.022526,2,4,9,24,14,-1027
3,0.033718,2,4,9,22,10,-1027
4,0.044904,2,6,9,25,13,-1024
5,0.05609,2,6,10,24,8,-1023
6,0.067274,2,5,9,22,10,-1021
7,0.078457,2,4,8,23,9,-1024
8,0.089648,2,5,9,25,10,-1025
9,0.100832,2,5,9,21,11,-1020
10,0.112016,2,6,8,22,12,-1027
11,0.123202,1,4,8,22,9,-1022
12,0.134385,2,5,8,22,8,-1023
13,0.145577,2,5,9,23,6,-1024
14,0.156762,1,5,9,21,16,-1027
15,0.167947,1,6,9,27,12,-1025
16,0.179132,1,5,9,27,15,-1024
17,0.190325,1,5,8,23,9,-1016
18,0.201515,2,5,9,23,8,-1023
19,0.212703,2,5,10,19,15,-1019
20,0.223889,2,6,9,23,10,-1024
21,0.235071,2,5,8,25,14,-1028
22,0.24626,1,5,9,26,12,-1021
23,0.257463,2,6,9,24,11,-1021
24,0.268648,2,7,10,21,10,-1027
25,0.279838,2,6,10,21,10,-1018
26,0.29102,2,6,9,23,12,-1027
27,0.3022,2,5,9,24,14,-1026
28,0.31339,2,6,9,22,13,-1030
29,0.324572,3,8,9,23,13,-1027
30,0.335759,2,8,9,22,14,-1021
31,0.346942,2,7,9,21,10,-1022
32,0.358131,2,6,10,23,11,-1019
33,0.369278,2,7,9,23,13,-1025
34,0.38046,2,6,9,26,8,-1028
35,0.391642,2,4,8,20,14,-1023
36,0.402825,1,4,9,22,12,-1026
37,0.41403,1,5,9,18,14,-1025
38,0.425214,2,7,9,21,15,-1024
39,0.436393,2,6,9,23,10,-1026
40,0.447579,2,6,9,18,11,-1026
41,0.458761,2,6,9,21,11,-1027
42,0.469948,1,4,10,22,12,-1025
43,0.481132,2,4,8,21,7,-1018
44,0.492321,1,4,9,28,14,-1022
45,0.503506,2,4,9,21,8,-1021
46,0.514694,2,5,9,22,15,-1022
47,0.52588,1,5,8,22,11,-1017
48,0.537063,2,5,9,18,12,-1021
49,0.54825,1,4,10,23,13,-1026
50,0.559439,2,5,9,22,10,-1024
51,0.570625,1,4,9,23,14,-1025
52,0.581824,1,5,10,22,12,-1022
53,0.593005,2,7,8,25,9,-1030
54,0.604192,2,6,8,23,12,-1019
55,0.615377,1,6,9,26,6,-1020
56,0.626562,1,5,9,22,8,-1021
57,0.637767,2,6,9,19,13,-1029
58,0.648951,2,6,8,20,9,-1024
59,0.660133,2,6,9,20,10,-1023
60,0.671326,2,6,9,22,7,-1021
61,0.682512,1,6,9,26,13,-1024
62,0.693699,2,5,9,20,14,-1026
63,0.704884,2,6,9,22,6,-1018
64,0.716071,1,6,8,17,8,-1025
65,0.727265,1,5,9,28,7,-1031
66,0.738451,2,5,9,27,12,-1028
67,0.749647,2,5,8,21,13,-1022
68,0.760829,2,5,9,20,9,-1019
69,0.772025,2,4,9,19,11,-1020
70,0.783208,3,5,9,27,13,-1026
71,0.79439,3,5,9,22,11,-1026
72,0.805576,2,5,9,22,13,-1024
73,0.816759,1,5,9,22,9,-1021
74,0.827941,2,4,9,24,14,-1023
75,0.839126,1,5,9,21,12,-1026
76,0.850312,2,6,9,25,10,-1028
77,0.861465,2,6,9,23,9,-1026
78,0.872647,1,5,9,22,12,-1025
79,0.883828,1,6,10,22,15,-1026
80,0.895011,2,8,9,19,13,-1024
81,0.906201,2,6,9,23,12,-1026
82,0.917389,1,6,9,22,12,-1025
83,0.928572,2,7,9,26,9,-1022
84,0.939757,2,7,10,24,11,-1025
85,0.950941,2,8,9,19,10,-1026
86,0.962135,1,7,9,25,11,-1025
87,0.973332,1,4,10,21,10,-1022
88,0.984515,0,3,9,22,13,-1029
89,0.995705,1,5,9,24,6,-1027
90,1.006887,1,5,9,21,13,-1027
91,1.018078,2,5,10,23,10,-1026
92,1.029272,1,4,9,21,12,-1024
93,1.04046,1,5,9,21,16,-1023
94,1.051642,2,5,9,23,10,-1023
95,1.062825,1,5,9,24,11,-1026
96,1.074015,2,4,9,23,15,-1031
97,1.085196,1,4,8,24,10,-1027
98,1.096381,1,4,10,24,14,-1022
99,1.107567,1,5,9,19,8,-1019
100,1.118753,1,6,10,23,8,-1028
101,1.129951,1,4,9,22,12,-1025
102,1.141136,1,5,9,25,15,-1025
103,1.15232,2,5,9,24,9,-1030
104,1.163509,1,5,9,24,12,-1029
105,1.174696,2,5,9,22,12,-1022
106,1.185884,2,6,8,19,5,-1026
107,1.197069,2,6,8,24,11,-1015
108,1.208256,2,6,9,24,8,-1027
109,1.219445,2,6,9,22,13,-1030
110,1.230632,2,6,9,22,12,-1024
111,1.241826,2,6,9,25,11,-1025
112,1.253009,2,6,9,20,12,-1025
113,1.264191,1,6,9,23,13,-1023
114,1.275376,2,6,8,25,15,-1026
115,1.28656,2,5,9,23,12,-1022
116,1.297757,2,6,9,23,9,-1020
117,1.308942,1,6,9,20,13,-1028
118,1.320131,2,6,8,25,11,-1028
119,1.331318,2,7,10,19,12,-1027
120,1.342507,2,7,9,25,13,-1019
121,1.353698,1,7,9,27,11,-1024
122,1.36488,2,6,9,22,12,-1025
123,1.37607,2,6,10,24,12,-1025
124,1.387256,2,7,10,24,9,-1019
125,1.398444,1,6,10,23,14,-1027
126,1.409644,1,5,9,20,9,-1024
127,1.420824,2,6,9,25,9,-1024
128,1.432008,1,5,10,23,12,-1032
129,1.443205,2,5,10,22,14,-1019
130,1.45446,1,5,9,22,13,-1020
131,1.465643,2,5,9,24,14,-1019
132,1.476831,2,5,9,24,12,-1023
133,1.488033,1,5,10,18,11,-1022
134,1.499218,3,7,8,21,12,-1021
135,1.5104,2,6,8,19,13,-1018
136,1.521588,2,6,9,21,7,-1025
137,1.532771,2,5,9,21,7,-1018
138,1.543954,1,3,9,22,17,-1023
139,1.555139,0,3,9,22,12,-1023
140,1.566324,1,4,9,24,14,-1028
141,1.577514,1,5,9,24,12,-1025
142,1.588701,1,3,10,21,10,-1022
143,1.599885,2,4,10,25,12,-1023
144,1.61107,2,4,8,19,13,-1020
145,1.622264,1,5,9,25,15,-1025
146,1.63346,2,5,9,25,8,-1033
147,1.644643,1,7,9,21,11,-1027
148,1.655827,2,5,9,24,17,-1027
149,1.667017,1,5,9,19,15,-1027
150,1.678218,2,5,9,23,9,-1023
151,1.689405,1,6,9,18,11,-1019
152,1.700588,1,6,10,24,12,-1030
153,1.711774,3,7,9,20,9,-1017
154,1.722959,2,6,8,19,10,-1024
155,1.734147,2,5,9,20,14,-1033
156,1.745339,1,5,10,23,12,-1027
157,1.756525,2,5,10,20,12,-1021
158,1.76771,2,6,10,24,14,-1027
159,1.778894,1,5,9,25,12,-1019
160,1.790079,1,6,10,18,13,-1026
161,1.801273,2,7,9,22,15,-1019
162,1.812458,2,6,9,23,9,-1027
163,1.823641,1,5,9,23,10,-1023
164,1.834825,3,6,9,21,9,-1032
165,1.846029,1,6,9,24,12,-1019
166,1.857215,2,6,9,24,12,-1026
167,1.868399,1,5,9,21,13,-1027
168,1.879582,1,5,9,27,14,-1037
169,1.890768,1,5,9,21,9,-1023
170,1.901959,1,4,9,23,13,-1023
171,1.913144,2,5,9,22,10,-1027
172,1.924326,2,5,9,24,12,-1024
173,1.93552,1,5,9,22,15,-1034
174,1.946701,1,4,9,21,11,-1024
175,1.957888,1,3,10,27,11,-1023
176,1.969075,2,5,10,26,14,-1019
177,1.980258,1,5,9,22,12,-1020
178,1.991442,1,4,9,21,12,-1027
179,2.002628,1,5,9,22,8,-1023
180,2.013828,1,5,9,18,12,-1025
181,2.025014,2,5,9,24,13,-1026
182,2.0362,2,5,8,24,11,-1031
183,2.047391,1,5,9,26,11,-1029
184,2.058574,2,5,9,21,10,-1030
185,2.069773,2,6,8,20,13,-1030
186,2.08096,2,6,9,28,11,-1027
187,2.092143,2,8,9,24,12,-1024
188,2.103333,2,7,9,23,15,-1030
189,2.114518,2,8,9,26,11,-1021
190,2.125708,2,8,9,25,16,-1021
191,2.136892,2,7,9,23,5,-1025
192,2.148076,3,7,8,26,8,-1024
193,2.159264,3,8,9,24,15,-1027
194,2.170452,3,7,9,19,15,-1023
195,2.181645,2,7,9,26,8,-1028
196,2.192828,2,6,10,24,11,-1028
197,2.204026,2,6,9,21,11,-1019
198,2.215208,2,4,9,23,15,-1028
199,2.226392,2,5,9,24,9,-1033
200,2.23758,2,5,9,23,12,-1030
201,2.248764,1,6,10,23,11,-1026
202,2.259951,2,6,9,24,8,-1019
203,2.271136,2,6,9,23,9,-1021
204,2.282325,2,6,9,25,13,-1025
205,2.293524,1,5,10,20,8,-1025
206,2.304707,1,4,9,18,11,-1026
207,2.315901,1,5,9,21,17,-1020
208,2.327088,1,6,9,24,10,-1026
209,2.338286,1,6,9,23,11,-1016
210,2.349828,1,5,9,21,11,-1021
211,2.361392,1,5,9,22,10,-1018
212,2.372953,1,6,9,22,12,-1025
213,2.38455,2,6,10,24,6,-1028
214,2.396174,1,6,9,21,11,-1022
215,2.407719,1,6,9,23,13,-1028
216,2.419263,1,5,9,25,12,-1026
217,2.430814,2,6,9,22,13,-1033
218,2.442427,1,5,8,24,10,-1025
219,2.454108,1,6,9,20,11,-1027
220,2.465763,2,5,10,20,13,-1027
221,2.477471,2,5,9,25,12,-1026
222,2.489133,2,5,10,21,10,-1022
223,2.500781,2,5,9,25,13,-1021
224,2.512462,2,5,8,26,14,-1025
225,2.524118,2,5,9,22,10,-1027
226,2.535763,2,5,9,21,11,-1022
227,2.547506,2,7,9,24,12,-1029
228,2.559168,2,6,9,24,12,-1025
229,2.570767,2,6,9,23,14,-1022
230,2.582321,2,6,9,20,10,-1025
231,2.593921,2,6,9,24,10,-1026
232,2.60548,1,7,9,25,12,-1024
233,2.617044,2,6,10,23,14,-1025
234,2.628589,2,5,9,21,11,-1026
235,2.640162,2,6,9,21,16,-1028
236,2.651721,2,5,9,23,14,-1021
237,2.663346,2,5,10,16,12,-1025
238,2.675004,0,6,9,24,10,-1030
239,2.686672,2,5,9,23,10,-1028
240,2.698342,1,6,8,18,14,-1028
241,2.710001,1,6,9,19,12,-1022
242,2.721651,1,7,9,20,9,-1022
243,2.733314,1,6,9,20,12,-1021
244,2.744976,1,6,9,25,12,-1023
245,2.756641,1,6,9,25,13,-1025
246,2.768377,2,5,9,21,12,-1029
247,2.780034,2,6,9,23,11,-1018
248,2.791709,2,5,9,22,11,-1025
249,2.803357,1,5,9,25,8,-1024
250,2.815007,2,6,9,21,8,-1033
251,2.826673,1,5,9,20,14,-1026
252,2.838344,2,5,9,22,13,-1025
253,2.850005,2,5,9,23,12,-1026
254,2.861685,2,6,9,26,14,-1023
255,2.873325,1,6,9,25,9,-1024
256,2.884899,1,6,9,23,17,-1020
257,2.896455,2,6,9,19,12,-1027
258,2.908053,1,5,9,23,11,-1028
259,2.919608,2,5,9,21,11,-1026
260,2.931174,2,6,8,18,10,-1025
261,2.942827,1,6,9,23,12,-1024
262,2.954424,2,6,10,24,13,-1024
263,2.965981,1,5,9,24,16,-1024
264,2.977582,2,6,8,25,8,-1031
265,2.989234,1,6,9,24,14,-1025
266,3.000885,1,5,9,24,12,-1022
267,3.012551,2,6,9,24,6,-1027
268,3.024284,1,5,9,25,11,-1030
269,3.036044,1,7,8,18,13,-1026
270,3.047733,1,6,9,23,12,-1021
271,3.059446,2,6,9,21,12,-1024
272,3.071128,2,6,9,22,10,-1023
273,3.082835,2,5,9,26,13,-1020
274,3.094425,2,6,9,21,11,-1021
275,3.105976,2,6,8,22,14,-1024
276,3.117561,2,6,9,27,10,-1020
277,3.129102,1,6,8,20,8,-1025
278,3.140652,1,6,9,23,10,-1023
279,3.1522,1,6,9,24,9,-1027
280,3.163745,2,6,9,25,15,-1023
281,3.175302,2,6,9,20,9,-1024
282,3.186954,2,6,9,18,13,-1019
283,3.198612,2,6,9,23,12,-1021
284,3.210268,2,6,9,23,10,-1025
285,3.221965,2,7,9,22,14,-1025
286,3.233587,2,5,10,21,12,-1020
287,3.245234,1,6,8,22,8,-1033
288,3.256884,2,6,9,22,12,-1022
289,3.268529,2,5,9,21,12,-1022
290,3.28019,2,6,9,24,10,-1024
291,3.291854,2,5,9,23,10,-1023
292,3.303461,1,6,8,20,11,-1021
293,3.315006,1,5,9,23,9,-1027
294,3.326515,2,6,9,23,11,-1030
295,3.338044,2,6,9,24,10,-1016
296,3.349598,2,6,9,24,14,-1024
297,3.361147,2,6,9,25,12,-1024
298,3.37269,2,5,9,25,12,-1024
299,3.384302,1,7,9,20,10,-1024
300,3.395934,2,6,9,18,10,-1027
301,3.407609,2,6,9,22,9,-1027
302,3.419239,1,6,9,21,14,-1024
303,3.430908,1,6,9,23,10,-1023
304,3.442625,2,6,10,23,8,-1029
305,3.454299,2,6,9,21,12,-1024
306,3.465975,2,5,9,23,9,-1026
307,3.477634,1,5,9,21,13,-1028
308,3.48931,1,6,9,22,13,-1018
309,3.500889,2,5,8,23,10,-1023
310,3.512441,2,5,9,20,12,-1027
311,3.524017,2,6,9,21,12,-1023
312,3.535579,1,6,8,23,8,-1022
313,3.547149,1,5,9,22,12,-1032
314,3.558752,2,6,9,21,12,-1025
315,3.570285,1,5,9,22,12,-1020
316,3.581842,2,5,9,24,9,-1023
317,3.593405,2,5,9,24,13,-1026
318,3.605028,2,6,8,16,12,-1029
319,3.616688,2,6,9,26,12,-1020
320,3.628364,1,6,9,20,10,-1022
321,3.640003,2,6,9,19,11,-1024
322,3.651651,2,6,8,22,11,-1025
323,3.6633,2,5,9,20,12,-1026
324,3.674976,2,6,8,23,12,-1026
325,3.686622,2,6,9,22,13,-1027
326,3.698292,2,6,9,23,13,-1023
327,3.70995,2,6,9,22,10,-1022
328,3.721561,2,6,9,21,10,-1022
329,3.733103,2,5,9,22,12,-1017
330,3.744652,2,6,9,24,10,-1026
331,3.756197,2,6,9,24,14,-1024
332,3.767739,2,5,9,21,10,-1027
333,3.779285,2,5,10,26,13,-1023
334,3.790969,2,5,9,23,13,-1028
335,3.802535,2,6,10,23,8,-1030
336,3.81416,2,6,9,23,12,-1021
337,3.825835,2,6,9,25,11,-1031
338,3.837508,1,6,9,22,10,-1019
339,3.849165,2,5,9,22,11,-1026
340,3.86082,2,5,9,24,13,-1022
341,3.872493,2,6,9,21,8,-1023
342,3.884147,2,6,8,20,10,-1023
343,3.895796,2,6,9,23,12,-1029
344,3.907489,2,6,9,21,11,-1024
345,3.919144,1,6,8,23,12,-1025
346,3.930707,2,5,9,24,13,-1023
347,3.942273,2,6,8,26,14,-1016
348,3.953802,2,6,9,22,11,-1022
349,3.965303,2,6,8,21,12,-1025
350,3.976843,1,6,9,25,12,-1027
351,3.988391,1,6,9,22,13,-1030
352,3.999937,2,6,9,20,11,-1020
353,4.011497,1,7,9,24,12,-1023
354,4.023109,2,5,9,23,14,-1033
355,4.034765,2,5,9,25,8,-1027
356,4.046499,2,5,8,23,12,-1031
357,4.058158,2,6,9,25,15,-1027
358,4.069841,1,5,10,24,10,-1022
359,4.081501,1,6,9,20,10,-1024
360,4.093142,2,6,9,22,13,-1021
361,4.104791,1,5,9,23,13,-1021
362,4.116471,2,6,9,27,13,-1029
363,4.128128,1,6,9,23,10,-1028
364,4.139699,2,6,10,26,12,-1027
365,4.151246,2,6,9,24,10,-1021
366,4.162802,2,6,9,21,11,-1028
367,4.174356,1,6,8,20,10,-1029
368,4.185937,2,6,9,22,10,-1029
369,4.197516,1,5,9,23,8,-1026
370,4.209069,2,5,9,24,11,-1023
371,4.220638,1,4,9,19,10,-1027
372,4.232299,2,6,9,23,7,-1026
373,4.243974,1,5,9,26,8,-1020
374,4.255629,2,6,9,23,10,-1023
375,4.267275,1,6,9,21,12,-1025
376,4.27893,2,6,9,23,10,-1026
377,4.290631,1,6,9,24,11,-1026
378,4.302284,1,5,9,25,13,-1019
379,4.313992,2,5,9,24,13,-1023
380,4.325668,1,5,9,20,13,-1026
381,4.337319,1,6,9,25,14,-1030
382,4.348918,1,6,9,21,15,-1029
383,4.360472,1,6,9,24,10,-1024
384,4.372029,1,6,9,22,11,-1019
385,4.38358,1,5,9,19,12,-1028
386,4.395124,1,5,9,20,13,-1027
387,4.406682,1,5,9,23,10,-1024
388,4.418287,1,6,9,25,13,-1019
389,4.429855,1,6,9,23,12,-1025
390,4.441497,2,5,9,26,11,-1029
391,4.453164,2,6,9,20,11,-1027
392,4.464816,1,6,8,20,14,-1029
393,4.47649,2,6,9,19,13,-1027
394,4.488148,1,6,9,24,8,-1030
395,4.499824,1,6,9,19,13,-1027
396,4.511485,2,6,9,19,13,-1021
397,4.523137,1,5,9,22,8,-1030
398,4.53484,1,6,9,23,14,-1017
399,4.546505,2,6,9,22,11,-1022
400,4.558064,2,6,9,23,12,-1020
401,4.569623,1,5,9,22,11,-1023
402,4.581175,2,5,9,22,13,-1023
403,4.592726,2,6,9,20,13,-1018
404,4.604282,2,5,10,19,6,-1024
405,4.615827,2,6,9,22,9,-1027
406,4.627407,2,7,9,21,9,-1025
407,4.63896,1,5,9,25,12,-1032
408,4.65062,1,5,9,27,14,-1023
409,4.662278,1,6,8,23,11,-1027
410,4.67397,1,6,9,23,13,-1023
411,4.685624,1,6,8,21,9,-1018
412,4.697303,1,6,9,22,15,-1027
413,4.708976,2,6,10,24,9,-1022
414,4.720628,2,5,9,18,16,-1026
415,4.732279,1,6,9,24,9,-1026
416,4.743937,1,5,9,17,11,-1024
417,4.755599,1,5,9,23,13,-1021
418,4.767254,1,6,8,24,15,-1010
419,4.778894,2,6,9,22,9,-1028
420,4.79057,2,6,9,21,11,-1024
421,4.802245,2,5,9,24,12,-1027
422,4.813965,2,6,9,21,10,-1020
423,4.825634,2,6,9,22,15,-1025
424,4.837318,1,5,9,22,7,-1026
425,4.849043,2,6,9,22,7,-1022
426,4.860724,2,5,9,20,13,-1023
427,4.872284,2,5,9,22,13,-1022
428,4.883839,2,6,9,22,8,-1024
429,4.89539,2,6,9,22,15,-1025
430,4.906941,2,6,10,21,9,-1026
431,4.918564,1,5,9,25,10,-1025
432,4.930119,2,5,9,24,9,-1026
433,4.941705,1,6,9,23,12,-1027
434,4.953253,2,6,9,25,13,-1020
435,4.964917,2,5,10,23,10,-1022
436,4.976578,1,5,9,23,9,-1026
437,4.988239,1,6,9,21,11,-1024
438,4.999899,1,6,8,27,8,-1020
439,5.011596,1,5,8,23,13,-1023
440,5.023246,2,6,10,22,11,-1030
441,5.034925,2,5,9,21,11,-1023
442,5.046634,2,5,8,23,14,-1023
443,5.058302,1,7,9,22,12,-1019
444,5.070007,2,5,9,25,13,-1023
445,5.081571,1,5,10,27,11,-1018
446,5.093114,1,6,9,24,12,-1026
447,5.104667,1,7,9,25,15,-1019
448,5.116215,1,6,9,21,12,-1019
449,5.127759,1,5,9,26,11,-1019
450,5.139304,2,6,9,22,10,-1025
451,5.150855,2,6,9,24,10,-1025
452,5.162474,2,6,9,26,13,-1021
453,5.174111,2,6,9,27,12,-1023
454,5.185772,2,5,10,24,13,-1027
455,5.197456,2,5,9,24,8,-1017
456,5.209115,2,6,9,28,11,-1019
457,5.220853,1,5,9,20,8,-1026
458,5.23251,2,6,9,27,10,-1021
459,5.244157,1,6,10,20,10,-1026
460,5.255806,2,6,10,23,9,-1021
461,5.2675,2,5,8,20,10,-1027
462,5.279148,2,6,9,23,14,-1020
463,5.290707,2,6,9,25,12,-1028
464,5.302272,2,5,8,22,16,-1027
465,5.313797,2,5,9,21,7,-1017
466,5.325313,1,6,9,26,10,-1027
467,5.336868,1,5,9,24,12,-1021
468,5.348443,2,6,9,27,11,-1020
469,5.359996,1,6,9,23,9,-1026
470,5.37158,1,6,9,25,12,-1023
471,5.383229,2,5,9,26,13,-1028
472,5.394886,2,6,9,25,13,-1021
473,5.406544,1,6,10,22,12,-1026
474,5.418228,2,5,9,24,13,-1025
475,5.429885,1,6,9,23,12,-1026
476,5.441568,2,5,9,28,14,-1023
477,5.453291,1,5,9,18,9,-1028
478,5.465156,3,6,9,25,14,-1020
479,5.476939,2,5,9,21,13,-1028
480,5.488647,1,5,9,22,14,-1027
481,5.500221,1,6,9,22,7,-1025
482,5.51177,2,6,10,23,13,-1027
483,5.523323,1,5,9,25,11,-1022
484,5.534953,2,6,9,24,11,-1024
485,5.546555,2,6,9,23,13,-1030
486,5.558107,2,6,9,22,16,-1020
487,5.569694,1,6,9,23,13,-1024
488,5.581258,2,4,9,19,14,-1030
489,5.592897,2,6,8,23,12,-1025
490,5.604565,2,6,9,23,12,-1028
491,5.616232,1,6,9,22,10,-1029
492,5.627881,1,6,10,22,7,-1031
493,5.63953,1,5,8,24,10,-1021
494,5.65117,2,6,9,19,9,-1031
495,5.662853,1,6,10,20,9,-1030
496,5.674512,2,5,8,23,12,-1025
497,5.686182,1,6,8,23,9,-1020
498,5.697853,2,7,9,19,10,-1022
499,5.70951,2,6,8,25,16,-1023
500,5.721163,1,5,9,24,8,-1025
501,5.732819,2,6,9,24,14,-1021
502,5.744479,2,5,9,21,8,-1026
503,5.756127,1,6,9,22,7,-1026
504,5.767772,1,6,10,22,12,-1026
505,5.779425,1,6,9,23,12,-1026
506,5.791126,2,5,8,26,11,-1025
507,5.802786,2,5,9,18,10,-1021
508,5.814482,2,5,9,23,10,-1034
509,5.826135,2,6,9,21,11,-1017
510,5.837852,2,5,8,26,15,-1024
511,5.849517,2,5,10,19,12,-1024
512,5.861166,2,6,9,20,11,-1023
513,5.872836,1,6,9,21,9,-1022
514,5.884495,2,6,9,24,13,-1026
515,5.896208,1,6,9,24,10,-1022
516,5.907899,2,5,9,21,11,-1021
517,5.919463,2,6,9,21,12,-1024
518,5.931009,1,5,9,20,10,-1028
519,5.942562,2,5,9,19,12,-1031
520,5.954118,1,5,8,21,10,-1023
521,5.965697,1,5,9,25,18,-1030
522,5.977246,2,7,9,18,10,-1025
523,5.988814,2,5,9,26,10,-1021
524,6.000371,1,5,9,22,13,-1024
525,6.011997,1,6,8,27,13,-1021
526,6.023674,2,6,9,26,11,-1019
527,6.035341,1,6,9,22,13,-1028
528,6.047004,2,6,9,21,12,-1025
529,6.058656,1,6,9,19,9,-1023
530,6.070353,1,6,9,24,12,-1028
531,6.082014,2,6,8,22,8,-1022
532,6.093659,1,6,8,21,11,-1030
533,6.105344,1,5,9,23,8,-1023
534,6.11701,2,6,9,23,12,-1024
535,6.128653,1,6,9,25,15,-1023
536,6.140304,2,6,9,22,10,-1027
537,6.151955,1,5,9,20,13,-1022
538,6.163611,2,6,8,25,11,-1028
539,6.175262,2,5,9,23,9,-1023
540,6.186905,1,5,9,23,9,-1024
541,6.198585,2,6,9,23,15,-1029
542,6.210283,1,5,8,25,8,-1024
543,6.221977,1,5,9,17,15,-1024
544,6.233633,1,6,9,21,10,-1024
545,6.245312,1,6,9,24,11,-1022
546,6.256955,2,6,8,23,12,-1023
547,6.268641,2,6,8,23,10,-1028
548,6.280286,2,6,9,23,9,-1015
549,6.291954,2,6,9,21,13,-1022
550,6.303616,2,5,9,23,13,-1019
551,6.315281,1,6,9,23,12,-1019
552,6.326954,1,6,8,21,13,-1020
553,6.338561,2,5,9,19,11,-1028
554,6.35011,2,6,10,24,13,-1020
555,6.361688,1,6,9,24,10,-1023
556,6.373241,2,6,8,21,12,-1026
557,6.384824,2,5,9,22,11,-1020
558,6.396372,1,6,9,24,11,-1030
559,6.407948,1,6,9,25,7,-1029
560,6.419515,2,5,9,19,11,-1032
561,6.431144,2,5,9,26,11,-1018
562,6.442796,1,6,9,22,12,-1022
563,6.454499,2,6,8,24,14,-1028
564,6.466164,1,5,9,22,9,-1023
565,6.477838,2,6,10,22,12,-1026
566,6.489508,2,5,8,24,12,-1015
567,6.501165,2,6,9,17,12,-1022
568,6.512838,2,5,9,23,13,-1029
569,6.52452,1,5,9,23,10,-1027
570,6.536175,2,6,9,23,10,-1023
571,6.547745,2,5,9,17,10,-1021
572,6.559321,2,7,9,29,12,-1022
573,6.570874,2,7,9,23,8,-1024
574,6.582452,2,6,10,19,8,-1027
575,6.594023,2,6,9,23,8,-1025
576,6.60556,2,6,9,19,12,-1022
577,6.617105,2,6,9,22,12,-1026
578,6.628682,1,6,8,26,13,-1025
579,6.640351,2,5,10,21,11,-1027
580,6.652015,2,6,10,24,12,-1023
581,6.663678,2,5,10,19,11,-1028
582,6.675326,1,5,9,25,10,-1023
583,6.687005,1,5,9,27,12,-1022
584,6.698672,1,5,9,21,13,-1021
585,6.710347,2,6,9,21,11,-1029
586,6.722014,2,6,9,25,15,-1028
587,6.733739,1,5,9,24,11,-1028
588,6.745406,1,5,9,19,10,-1020
589,6.756958,2,5,9,20,9,-1024
590,6.768508,2,6,9,22,9,-1028
591,6.780088,1,6,9,23,12,-1026
592,6.791639,2,6,9,21,13,-1025
593,6.803228,2,6,8,24,11,-1029
594,6.814779,1,6,9,23,9,-1024
595,6.82634,1,6,9,23,7,-1026
596,6.837947,2,5,9,24,12,-1023
597,6.849653,1,6,9,21,12,-1017
598,6.861336,2,6,9,23,7,-1027
599,6.873014,2,6,9,21,13,-1024
600,6.884676,2,6,10,19,11,-1027
601,6.896333,1,5,10,21,10,-1023
602,6.908009,2,6,9,19,10,-1023
603,6.919669,2,6,9,22,12,-1022
604,6.931318,1,6,9,24,10,-1023
605,6.94299,1,5,10,26,11,-1026
606,6.954655,1,6,9,21,12,-1020
607,6.966218,2,5,9,16,14,-1024
608,6.977796,2,6,10,23,9,-1028
609,6.989315,2,6,9,24,14,-1018
610,7.000864,1,6,9,26,10,-1026
611,7.012487,2,5,9,18,11,-1026
612,7.024091,2,5,9,23,7,-1028
613,7.03564,2,5,9,22,11,-1023
614,7.047223,2,5,9,20,15,-1019
615,7.058885,2,5,9,20,8,-1024
616,7.070545,1,6,9,21,9,-1032
617,7.082246,1,5,9,21,12,-1023
618,7.093904,1,6,9,21,14,-1029
619,7.105615,2,5,9,21,11,-1026
620,7.117265,1,6,9,22,13,-1022
621,7.128919,1,6,10,25,15,-1024
622,7.140599,2,5,10,23,9,-1023
623,7.152257,1,5,10,23,10,-1022
624,7.163849,2,5,9,25,14,-1022
625,7.175416,1,5,9,19,12,-1030
626,7.186961,2,6,9,25,13,-1023
627,7.198521,3,5,8,21,11,-1022
628,7.210044,2,5,9,23,16,-1019
629,7.221599,2,6,9,20,11,-1030
630,7.233142,2,5,9,18,11,-1023
631,7.244692,2,6,8,21,12,-1028
632,7.256257,2,6,8,25,12,-1021
633,7.267886,2,6,9,20,12,-1022
634,7.279545,2,6,9,27,14,-1021
635,7.291226,2,6,9,22,9,-1023
636,7.302908,2,6,9,22,16,-1023
637,7.314589,2,6,9,24,11,-1026
638,7.326266,1,6,9,24,8,-1025
639,7.337953,2,5,9,21,13,-1026
640,7.349589,2,6,10,25,13,-1026
641,7.361256,1,6,9,23,9,-1021
642,7.372918,1,5,9,19,12,-1019
643,7.384494,2,6,9,24,12,-1020
644,7.396041,2,6,8,19,11,-1030
645,7.407594,1,6,9,23,9,-1026
646,7.419138,2,6,9,23,14,-1027
647,7.430689,2,6,9,22,13,-1026
648,7.44227,2,6,9,23,12,-1028
649,7.453821,2,5,9,21,14,-1023
650,7.465384,3,5,9,21,10,-1022
651,7.477047,1,6,8,21,11,-1024
652,7.488717,2,5,9,20,8,-1026
653,7.500373,1,5,8,22,10,-1018
654,7.512057,2,6,9,27,11,-1029
655,7.523736,2,5,8,26,18,-1026
656,7.53539,2,5,9,24,11,-1026
657,7.54703,2,6,9,21,11,-1025
658,7.558687,2,5,9,21,18,-1021
659,7.570397,1,6,10,28,11,-1028
660,7.582027,1,6,9,19,15,-1030
661,7.593555,2,6,9,25,12,-1027
662,7.605102,1,6,9,24,7,-1030
663,7.616674,2,6,9,19,11,-1020
664,7.628226,1,5,9,21,9,-1023
665,7.639803,1,5,10,21,13,-1025
666,7.651352,1,6,9,21,10,-1016
667,7.662943,2,6,9,20,10,-1028
668,7.674579,2,5,9,28,14,-1030
669,7.68626,1,6,9,22,11,-1027
670,7.697919,1,7,9,22,11,-1028
671,7.70962,3,6,9,23,8,-1018
672,7.721268,2,6,9,21,12,-1024
673,7.732927,1,6,9,25,10,-1018
674,7.744604,2,6,9,23,11,-1024
675,7.756291,1,6,9,21,10,-1031
676,7.76797,2,5,10,24,12,-1028
677,7.779631,1,5,9,20,9,-1023
678,7.791222,2,5,9,22,13,-1027
679,7.80278,2,6,9,23,15,-1030
680,7.814339,2,6,9,23,14,-1029
681,7.825915,2,6,9,20,10,-1028
682,7.83748,2,6,9,22,11,-1028
683,7.849073,1,6,8,20,12,-1022
684,7.860628,2,6,9,20,9,-1025
685,7.872221,2,6,9,21,14,-1023
686,7.883843,1,6,9,22,8,-1023
687,7.895512,2,5,9,24,10,-1024
688,7.907169,1,6,9,23,11,-1026
689,7.918873,1,6,9,19,13,-1027
690,7.930535,1,6,9,26,12,-1029
691,7.942234,1,5,9,24,15,-1020
692,7.953899,2,5,9,22,14,-1020
693,7.965574,2,4,9,18,7,-1028
694,7.977261,2,6,10,25,13,-1020
695,7.98893,2,5,9,22,10,-1017
696,8.000512,2,5,9,22,13,-1026
697,8.012066,1,6,8,24,12,-1019
698,8.023618,2,6,9,22,11,-1022
699,8.035226,2,6,10,25,11,-1019
700,8.046805,1,5,10,21,9,-1019
701,8.058354,1,5,10,25,12,-1016
702,8.069951,2,6,9,25,9,-1026
703,8.081516,1,5,9,26,14,-1029
704,8.093134,2,6,9,25,11,-1025
705,8.104791,1,6,9,19,12,-1030
706,8.116436,2,6,9,21,14,-1017
707,8.128105,2,6,10,26,14,-1018
708,8.139772,2,6,10,21,10,-1030
709,8.151417,2,5,10,22,11,-1025
710,8.163063,2,6,10,25,11,-1020
711,8.174751,1,5,10,20,14,-1029
712,8.186412,2,6,9,21,10,-1023
713,8.198092,1,5,9,24,11,-1026
714,8.209689,2,6,8,23,11,-1028
715,8.22124,2,6,8,21,12,-1024
716,8.232825,2,6,9,19,6,-1024
717,8.244368,2,7,9,22,10,-1028
718,8.255907,2,6,9,23,10,-1027
719,8.267461,2,5,10,19,13,-1028
720,8.279006,2,5,9,25,14,-1019
721,8.290527,1,5,9,20,10,-1026
722,8.30215,2,5,9,17,13,-1025
723,8.313859,2,5,9,16,8,-1030
724,8.325514,2,7,9,20,13,-1024
725,8.337169,1,6,9,25,11,-1020
726,8.348833,2,5,9,22,10,-1025
727,8.360497,1,6,9,27,8,-1024
728,8.372146,2,6,8,23,8,-1027
729,8.383799,2,5,8,22,9,-1024
730,8.395457,2,5,9,23,11,-1026
731,8.407136,1,5,9,19,12,-1031
732,8.418717,1,6,9,19,7,-1020
733,8.430278,2,5,9,20,10,-1026
734,8.441846,2,6,9,28,12,-1022
735,8.453398,1,6,9,21,12,-1027
736,8.464951,2,5,9,25,13,-1021
737,8.476508,2,6,9,20,15,-1010
738,8.488125,1,5,8,21,9,-1024
739,8.499736,2,5,8,24,9,-1029
740,8.511349,1,6,9,27,9,-1024
741,8.523009,1,5,9,19,14,-1022
742,8.534661,1,6,9,22,12,-1023
743,8.546372,2,5,9,25,10,-1025
744,8.558023,2,5,9,19,15,-1027
745,8.569706,2,6,9,22,11,-1021
746,8.581326,1,6,9,25,14,-1025
747,8.592977,2,7,9,21,13,-1027
748,8.60467,3,5,9,20,17,-1014
749,8.616326,2,5,10,24,10,-1024
750,8.627883,1,6,9,22,15,-1018
751,8.639434,2,6,9,25,11,-1022
752,8.650983,1,5,9,23,14,-1020
753,8.662532,1,6,9,27,10,-1023
754,8.674099,1,5,9,22,8,-1026
755,8.685684,2,6,9,26,11,-1026
756,8.697228,2,6,9,22,15,-1024
757,8.708785,1,5,9,25,14,-1029
758,8.720412,2,6,8,25,13,-1024
759,8.732058,2,6,9,22,10,-1020
760,8.743733,2,5,9,25,12,-1023
761,8.755407,1,6,9,25,13,-1021
762,8.76705,1,6,8,20,11,-1024
763,8.778757,1,5,9,25,11,-1017
764,8.790417,2,6,8,20,10,-1028
765,8.802118,1,5,9,22,12,-1030
766,8.813787,1,6,9,23,7,-1028
767,8.825443,2,6,10,21,15,-1027
768,8.836994,2,6,9,23,13,-1022
769,8.848545,1,6,9,20,17,-1028
770,8.860096,2,6,9,24,14,-1024
771,8.871669,2,6,9,19,12,-1023
772,8.883222,1,6,9,23,12,-1027
773,8.894781,2,6,9,20,14,-1024
774,8.906352,2,6,10,22,8,-1026
775,8.917959,2,6,9,24,11,-1019
776,8.929594,2,5,9,22,13,-1030
777,8.94126,1,6,10,25,15,-1018
778,8.952916,1,6,9,22,14,-1020
779,8.96457,2,6,9,21,12,-1025
780,8.976236,1,6,10,24,10,-1023
781,8.98791,2,5,9,19,10,-1021
782,8.999564,1,6,10,22,7,-1027
783,9.011243,2,6,9,25,14,-1027
784,9.022916,2,5,9,25,9,-1025
785,9.034596,2,6,10,19,13,-1021
786,9.046174,2,5,9,23,13,-1021
787,9.057738,2,7,9,22,11,-1021
788,9.069304,1,5,9,23,11,-1020
789,9.080856,2,6,8,25,13,-1025
790,9.092404,2,6,9,25,9,-1026
791,9.103972,1,5,9,21,9,-1024
792,9.115514,2,5,9,23,10,-1021
793,9.127072,1,6,9,22,11,-1024
794,9.138716,1,6,9,22,11,-1025
795,9.15036,1,6,9,20,14,-1024
796,9.16203,1,5,9,21,9,-1025
797,9.173713,0,5,9,23,12,-1028
798,9.185367,1,5,9,24,11,-1026
799,9.197038,2,6,9,22,15,-1028
800,9.208697,1,6,9,25,11,-1019
801,9.220347,2,6,9,21,12,-1025
802,9.232056,2,6,9,24,9,-1029
803,9.243718,1,6,9,23,14,-1026
804,9.255272,2,6,9,24,14,-1024
805,9.266823,1,6,9,26,11,-1024
806,9.278403,2,6,9,22,13,-1021
807,9.289975,2,6,9,21,15,-1020
808,9.301559,1,6,9,21,8,-1026
809,9.313111,2,6,9,20,12,-1018
810,9.324672,1,6,9,24,9,-1027
811,9.336234,2,6,10,23,16,-1022
812,9.347933,1,5,8,21,12,-1024
813,9.359631,2,5,8,25,11,-1030
814,9.37128,2,6,8,18,14,-1033
815,9.382939,2,5,9,18,14,-1016
816,9.394656,2,5,9,23,17,-1030
817,9.40634,1,5,10,24,7,-1028
818,9.418026,1,6,9,22,13,-1022
819,9.429709,1,6,9,24,13,-1024
820,9.441392,1,5,9,20,13,-1029
821,9.45305,2,5,9,20,13,-1022
822,9.464644,1,6,9,18,12,-1023
823,9.476225,2,5,9,21,13,-1017
824,9.487804,2,6,9,26,11,-1024
825,9.499357,2,6,9,23,13,-1021
826,9.510923,2,6,9,21,12,-1029
827,9.522513,2,6,9,21,11,-1026
828,9.534051,1,6,9,21,12,-1034
829,9.545636,2,6,9,20,14,-1021
830,9.557317,2,5,9,21,12,-1027
831,9.568979,2,5,9,17,13,-1026
832,9.580666,2,5,9,23,13,-1025
833,9.592327,2,6,9,25,14,-1018
834,9.604031,2,6,8,21,13,-1025
835,9.615681,2,5,8,27,7,-1029
836,9.627345,2,5,9,23,13,-1030
837,9.639008,2,6,9,20,10,-1027
838,9.65068,1,6,9,24,11,-1020
839,9.662345,1,5,9,24,9,-1022
840,9.673924,0,5,9,24,7,-1024
841,9.685483,1,5,10,19,11,-1024
842,9.697035,2,6,9,22,14,-1031
843,9.708586,2,6,9,23,8,-1025
844,9.720136,2,5,9,20,12,-1027
845,9.731684,1,6,9,25,11,-1020
846,9.743235,1,6,9,23,18,-1030
847,9.754847,1,6,9,26,8,-1028
848,9.766535,1,6,9,23,13,-1023
849,9.778237,1,6,9,26,7,-1027
850,9.7899,1,6,8,25,14,-1016
851,9.801578,1,5,8,23,16,-1027
852,9.813226,1,6,9,24,11,-1027
853,9.824913,1,5,9,21,14,-1030
854,9.836554,1,6,9,25,14,-1021
855,9.848217,2,6,9,23,15,-1027
856,9.85989,1,6,8,23,9,-1021
857,9.871546,2,6,9,27,10,-1022
858,9.883109,2,5,9,23,12,-1027
859,9.894677,2,6,9,20,8,-1033
860,9.906229,2,6,9,22,13,-1023
861,9.917796,2,6,9,23,10,-1021
862,9.929316,2,6,9,22,15,-1024
863,9.940875,2,5,8,24,11,-1026
864,9.952432,1,6,8,23,9,-1029
865,9.963996,2,6,9,22,11,-1025
866,9.975722,2,6,9,23,11,-1022
867,9.987398,2,6,10,24,11,-1025
868,9.999056,2,6,9,20,15,-1025
869,10.010759,2,6,9,18,13,-1023
870,10.022426,1,6,9,24,10,-1026
871,10.034099,2,6,8,22,14,-1026
872,10.045768,2,7,9,23,12,-1027
873,10.057447,2,5,10,22,16,-1021
874,10.069134,2,6,9,23,13,-1021
875,10.080801,1,5,9,26,13,-1020
876,10.092363,1,5,9,26,14,-1028
877,10.103911,1,6,8,25,11,-1029
878,10.11546,2,6,8,21,13,-1022
879,10.127008,2,6,9,22,11,-1022
880,10.138523,1,6,9,25,14,-1027
881,10.150033,1,6,10,22,12,-1024
882,10.161555,2,6,9,22,10,-1024
883,10.173105,2,6,9,24,13,-1028
884,10.184767,2,6,10,21,11,-1027
885,10.196421,2,5,9,21,11,-1021
886,10.208079,2,5,9,23,10,-1026
887,10.219737,1,6,9,25,10,-1026
888,10.231386,2,5,9,22,10,-1024
889,10.243042,1,6,9,21,11,-1031
890,10.254694,2,6,9,25,10,-1025
891,10.266352,1,6,8,26,14,-1021
892,10.278037,1,6,9,23,8,-1020
893,10.289695,1,7,9,21,12,-1024
894,10.30125,1,5,8,23,9,-1025
895,10.312807,1,5,8,24,9,-1022
896,10.324365,2,6,10,26,11,-1024
897,10.335915,2,5,9,25,14,-1026
898,10.347509,2,6,9,24,10,-1023
899,10.359057,1,5,9,24,11,-1026
900,10.370631,2,7,9,22,13,-1024
901,10.382208,2,6,8,21,10,-1018
902,10.393865,1,5,9,21,13,-1022
903,10.405543,1,6,9,20,12,-1017
904,10.417191,2,6,9,22,14,-1019
905,10.428846,2,6,8,25,11,-1021
906,10.440519,2,6,8,23,13,-1022
907,10.452173,1,6,8,22,14,-1020
908,10.463846,1,5,9,21,9,-1021
909,10.475523,1,6,9,21,12,-1027
910,10.487162,1,7,9,19,9,-1018
911,10.49873,1,6,9,18,11,-1023
912,10.510348,2,6,9,20,11,-1026
913,10.521925,1,6,9,21,11,-1025
914,10.533486,2,5,10,22,13,-1020
915,10.545034,2,6,8,23,10,-1022
916,10.556579,1,6,9,23,14,-1022
917,10.568128,1,5,9,22,10,-1026
918,10.579674,2,6,9,19,14,-1021
919,10.591231,2,5,10,21,12,-1024
920,10.602884,2,5,9,20,11,-1025
921,10.614534,1,5,9,20,13,-1028
922,10.626223,2,6,8,21,9,-1025
923,10.637909,1,6,9,25,13,-1025
924,10.649573,2,5,9,21,11,-1025
925,10.661223,2,6,8,23,15,-1030
926,10.672897,2,6,9,22,12,-1023
927,10.684534,2,6,8,22,12,-1019
928,10.696195,2,5,9,23,11,-1019
929,10.707855,2,5,10,21,15,-1026
930,10.719462,1,5,9,22,13,-1025
931,10.731016,1,6,9,26,13,-1029
932,10.7426,2,5,9,19,12,-1023
933,10.754168,2,5,9,22,9,-1028
934,10.765738,1,6,9,23,11,-1021
935,10.777304,1,5,8,24,10,-1022
936,10.788848,1,6,8,20,11,-1023
937,10.800412,2,6,9,25,12,-1023
938,10.812034,2,6,8,26,12,-1022
939,10.823688,2,7,9,23,11,-1026
940,10.835336,1,6,9,21,9,-1024
941,10.847017,2,5,9,25,8,-1022
942,10.858697,1,5,9,22,9,-1023
943,10.870368,2,6,9,22,8,-1022
944,10.882035,1,6,9,22,9,-1024
945,10.893705,2,5,10,25,11,-1020
946,10.90534,2,5,9,18,7,-1028
947,10.917012,1,5,9,20,10,-1024
948,10.928565,2,5,9,25,14,-1028
949,10.940118,2,6,9,22,10,-1016
950,10.951668,2,6,9,23,12,-1021
951,10.963288,2,5,9,25,12,-1032
952,10.974859,2,6,9,27,12,-1026
953,10.986422,0,6,9,26,8,-1027
954,10.997991,2,5,9,23,12,-1029
955,11.009563,2,5,9,21,14,-1022
956,11.021113,2,6,8,20,13,-1029
957,11.032657,2,5,9,24,10,-1027
958,11.044219,2,5,9,24,10,-1032
959,11.055772,2,6,9,18,14,-1021
960,11.067346,2,6,9,20,13,-1024
961,11.078895,1,6,9,23,9,-1023
962,11.090498,2,6,9,26,10,-1024
963,11.102033,2,6,9,21,14,-1026
964,11.113613,1,5,9,22,12,-1022
965,11.125262,1,6,9,23,12,-1029
966,11.136918,1,5,9,25,11,-1027
967,11.148573,1,5,9,23,13,-1026
968,11.160245,2,6,9,22,9,-1022
969,11.171905,1,5,9,26,13,-1026
970,11.183554,2,6,9,24,9,-1025
971,11.195234,1,6,9,17,9,-1024
972,11.206899,1,6,9,22,18,-1026
973,11.218598,2,6,8,22,10,-1035
974,11.230282,1,6,8,27,13,-1029
975,11.241955,2,6,9,26,13,-1024
976,11.25358,2,6,9,20,9,-1027
977,11.265251,2,7,10,21,10,-1022
978,11.276907,2,6,9,20,12,-1021
979,11.288558,2,6,9,21,11,-1020
980,11.300206,1,6,9,23,11,-1027
981,11.311876,1,6,9,24,12,-1023
982,11.323541,2,5,9,20,17,-1022
983,11.335226,1,5,9,22,13,-1022
984,11.346892,2,6,9,20,13,-1018
985,11.358546,2,5,9,23,15,-1026
986,11.370229,2,5,9,23,12,-1026
987,11.381898,2,6,10,20,11,-1025
988,11.393575,1,5,9,27,10,-1024
989,11.40522,2,6,10,26,15,-1020
990,11.416871,1,6,8,21,8,-1032
991,11.428568,2,6,9,22,12,-1032
992,11.440214,1,6,9,25,16,-1026
993,11.451875,1,6,9,25,10,-1030
994,11.464592,2,5,9,21,12,-1027
995,11.476329,2,6,9,21,11,-1024
996,11.488016,2,5,10,26,15,-1023
997,11.499679,1,6,9,19,8,-1030
998,11.511345,1,6,9,18,13,-1028
999,11.522991,2,6,9,21,13,-1020
1000,11.534733,2,6,8,23,11,-1027
1001,11.546432,2,6,10,18,13,-1020
1002,11.558028,2,6,9,24,13,-1021
1003,11.569554,2,6,9,24,12,-1027
1004,11.581105,2,6,9,22,11,-1018
1005,11.592653,1,5,8,22,12,-1024
1006,11.604217,2,5,9,23,14,-1025
1007,11.615769,1,6,9,22,13,-1024
1008,11.627349,1,6,9,19,11,-1021
1009,11.638911,2,5,8,20,13,-1023
1010,11.650584,1,6,9,24,14,-1030
1011,11.662275,1,6,9,20,13,-1022
1012,11.67396,3,6,10,22,11,-1025
1013,11.685648,2,5,9,22,13,-1026
1014,11.697323,2,6,10,25,11,-1029
1015,11.708985,2,6,9,26,15,-1028
1016,11.720651,2,6,9,25,14,-1021
1017,11.732301,1,5,9,21,8,-1022
1018,11.743961,1,5,9,22,12,-1020
1019,11.755638,2,6,9,22,12,-1023
1020,11.767294,2,6,9,22,10,-1030
1021,11.778941,1,6,9,23,13,-1025
1022,11.790625,1,6,9,21,14,-1021
1023,11.802286,2,5,9,22,10,-1024
1024,11.813961,2,6,9,17,9,-1027
1025,11.825635,2,5,8,23,12,-1020
1026,11.837348,2,6,8,23,11,-1017
1027,11.849053,2,6,9,23,11,-1027
1028,11.860708,1,5,9,20,11,-1021
1029,11.872375,2,5,9,22,14,-1024
1030,11.884027,2,6,9,24,7,-1025
1031,11.895671,2,5,9,27,16,-1021
1032,11.907318,3,5,9,24,13,-1024
1033,11.918968,1,6,9,21,9,-1024
1034,11.93063,1,6,9,22,10,-1014
1035,11.942291,1,6,9,26,14,-1023
1036,11.953976,2,6,9,26,13,-1024
1037,11.965548,2,6,9,21,8,-1020
1038,11.9771,2,6,8,25,12,-1024
1039,11.988653,2,5,9,21,11,-1025
1040,12.000202,1,6,9,23,11,-1027
1041,12.011753,2,5,9,22,12,-1022
1042,12.023296,2,6,10,29,10,-1024
1043,12.03484,1,6,9,24,12,-1028
1044,12.046404,2,6,9,18,12,-1024
1045,12.057992,1,6,9,20,11,-1028
1046,12.069644,2,5,9,19,12,-1025
1047,12.081312,2,6,9,23,9,-1026
1048,12.09296,2,5,9,19,15,-1025
1049,12.104609,2,5,9,23,12,-1021
1050,12.116282,1,6,9,23,13,-1021
1051,12.127932,2,6,10,25,14,-1024
1052,12.139584,2,5,9,24,12,-1023
1053,12.151229,2,5,9,23,11,-1025
1054,12.162884,2,5,9,23,11,-1025
1055,12.174561,2,6,9,19,17,-1024
1056,12.18615,1,6,9,20,12,-1026
1057,12.197771,1,5,9,20,13,-1019
1058,12.209316,2,6,9,22,14,-1025
1059,12.220871,2,6,9,23,13,-1022
1060,12.232422,2,6,9,23,9,-1027
1061,12.243991,2,6,10,21,12,-1022
1062,12.25556,2,6,9,20,14,-1030
1063,12.267135,1,6,9,22,16,-1025
1064,12.278798,1,6,9,23,8,-1026
1065,12.290492,1,6,9,22,11,-1025
1066,12.302173,1,6,9,24,9,-1023
1067,12.313839,1,6,10,23,12,-1025
1068,12.325509,3,6,9,20,12,-1028
1069,12.337165,1,6,9,22,8,-1025
1070,12.348816,2,5,8,25,14,-1025
1071,12.360464,2,5,9,18,7,-1025
1072,12.372155,2,5,9,21,11,-1024
1073,12.383816,1,6,9,21,13,-1025
1074,12.395467,2,5,9,22,10,-1026
1075,12.407116,2,6,9,26,12,-1023
1076,12.418791,2,6,9,24,18,-1029
1077,12.43048,2,6,9,25,10,-1024
1078,12.442192,2,6,9,20,15,-1027
1079,12.453838,2,5,9,21,10,-1028
1080,12.465512,1,5,9,18,9,-1023
1081,12.477246,2,6,9,20,12,-1021
1082,12.488921,2,5,9,19,12,-1023
1083,12.50048,2,6,9,22,11,-1032
1084,12.512029,2,5,8,28,9,-1024
1085,12.523574,2,6,9,21,10,-1031
1086,12.535118,1,5,9,27,8,-1022
1087,12.546692,2,5,9,23,10,-1025
1088,12.55828,2,6,9,24,16,-1026
1089,12.569891,2,5,9,18,12,-1025
1090,12.581452,2,6,9,22,14,-1022
1091,12.593119,2,6,9,25,10,-1019
1092,12.604791,2,6,9,24,11,-1022
1093,12.616441,2,6,10,19,13,-1023
1094,12.628097,1,6,9,26,11,-1020
1095,12.639743,1,6,9,22,14,-1023
1096,12.65139,2,6,9,26,11,-1025
1097,12.663052,2,5,8,21,11,-1022
1098,12.674741,1,6,9,24,19,-1022
1099,12.686408,2,5,8,24,7,-1024
1100,12.698075,1,6,9,23,9,-1030
1101,12.709747,2,5,9,21,12,-1022
1102,12.721437,2,6,8,25,9,-1022
1103,12.733089,1,5,10,24,11,-1032
1104,12.744761,2,5,9,23,13,-1024
1105,12.75641,2,5,10,20,18,-1027
1106,12.768057,2,6,8,25,10,-1021
1107,12.779703,2,6,9,20,14,-1024
1108,12.791376,2,6,9,26,13,-1023
1109,12.803037,2,5,8,20,11,-1018
1110,12.814684,2,6,8,22,13,-1027
1111,12.82636,2,5,9,23,8,-1023
1112,12.838026,3,5,9,22,14,-1026
1113,12.849704,1,6,8,22,12,-1022
1114,12.861325,2,6,9,26,13,-1022
1115,12.872964,1,5,9,21,7,-1026
1116,12.884627,2,5,9,25,11,-1022
1117,12.896313,1,6,10,21,10,-1022
1118,12.907967,2,6,8,19,12,-1022
1119,12.919619,2,6,9,24,13,-1023
1120,12.93129,1,6,9,22,13,-1026
1121,12.942973,1,7,9,22,14,-1022
1122,12.954606,2,6,9,22,10,-1026
1123,12.966287,1,5,9,20,12,-1024
1124,12.97796,1,6,9,23,9,-1025
1125,12.989582,1,5,9,22,14,-1025
1126,13.001241,1,6,9,22,10,-1022
1127,13.012804,2,6,9,23,12,-1020
1128,13.024365,2,6,9,21,16,-1028
1129,13.035915,2,5,9,27,14,-1028
1130,13.047465,1,6,8,24,9,-1024
1131,13.059016,1,6,9,26,8,-1023
1132,13.070624,2,5,9,22,10,-1030
1133,13.082184,2,5,10,26,6,-1027
1134,13.093751,2,5,8,20,15,-1021
1135,13.105385,2,6,9,22,13,-1020
1136,13.117071,2,6,9,22,12,-1028
1137,13.128719,1,7,9,21,10,-1026
1138,13.140371,1,5,9,24,12,-1022
1139,13.15205,2,6,8,25,10,-1021
1140,13.163711,2,6,8,21,12,-1021
1141,13.175383,2,6,8,25,14,-1020
1142,13.187042,2,6,8,19,9,-1028
1143,13.198727,1,6,9,22,12,-1027
1144,13.210448,1,6,9,24,17,-1025
1145,13.22203,2,5,8,24,17,-1027
1146,13.233637,2,6,9,24,12,-1025
1147,13.245198,2,6,9,22,13,-1027
1148,13.256784,2,5,8,25,14,-1025
1149,13.268437,2,6,9,25,13,-1021
1150,13.280005,2,6,9,20,10,-1025
1151,13.291552,2,5,8,21,15,-1024
1152,13.303113,2,6,10,22,12,-1021
1153,13.314795,2,6,9,25,9,-1026
1154,13.326379,2,5,9,22,11,-1017
1155,13.337936,1,6,9,24,14,-1022
1156,13.349504,1,5,9,20,10,-1025
1157,13.361059,1,6,9,28,12,-1028
1158,13.372621,1,5,9,22,13,-1019
1159,13.384158,2,5,9,25,9,-1020
1160,13.395697,2,6,9,22,12,-1024
1161,13.407256,2,6,9,26,14,-1023
1162,13.418934,2,6,9,23,7,-1021
1163,13.43062,1,6,9,18,8,-1024
1164,13.442341,1,5,10,25,10,-1027
1165,13.454047,2,7,9,23,8,-1024
1166,13.465728,2,7,9,25,12,-1027
1167,13.477385,1,6,8,23,7,-1028
1168,13.489052,1,6,10,21,10,-1023
1169,13.500697,2,6,9,24,13,-1027
1170,13.512339,2,6,10,19,11,-1024
1171,13.52389,1,5,10,21,9,-1020
1172,13.535431,2,5,9,24,9,-1025
1173,13.54698,2,6,8,25,8,-1029
1174,13.558522,2,6,10,25,7,-1024
1175,13.570038,2,5,9,23,12,-1022
1176,13.581615,2,5,10,23,13,-1019
1177,13.593177,2,6,10,20,11,-1022
1178,13.604736,1,6,9,25,12,-1020
1179,13.616309,2,6,10,23,13,-1027
1180,13.627939,2,6,10,23,11,-1023
1181,13.639598,2,6,10,23,12,-1028
1182,13.651271,2,6,9,23,9,-1025
1183,13.662935,2,6,9,23,11,-1025
1184,13.674638,1,6,9,22,9,-1028
1185,13.68639,2,6,9,25,11,-1021
1186,13.698074,1,6,8,24,12,-1024
1187,13.709758,1,5,10,23,9,-1029
1188,13.721461,2,5,9,22,12,-1022
1189,13.733132,1,5,9,23,10,-1024
1190,13.744684,2,6,9,19,9,-1027
1191,13.756241,3,6,9,21,12,-1028
1192,13.767789,2,6,9,19,10,-1026
1193,13.779336,2,6,9,24,9,-1022
1194,13.79088,2,6,10,21,9,-1021
1195,13.802467,2,6,10,25,9,-1033
1196,13.814035,3,5,9,21,11,-1021
1197,13.825626,2,5,9,21,8,-1025
1198,13.837313,2,6,9,21,11,-1030
1199,13.848958,1,5,8,20,13,-1023
1200,13.860603,1,6,9,24,13,-1023
1201,13.872275,1,6,9,27,12,-1032
1202,13.883928,2,5,9,21,6,-1022
1203,13.895575,2,5,8,27,15,-1027
1204,13.907216,1,5,9,20,11,-1022
1205,13.918858,1,5,9,21,6,-1028
1206,13.930575,2,6,9,25,12,-1025
1207,13.942248,2,6,9,21,12,-1016
1208,13.953914,2,5,10,21,8,-1018
1209,13.96558,2,6,9,23,11,-1029
1210,13.977227,2,6,8,19,12,-1028
1211,13.988895,2,5,8,23,11,-1029
1212,14.000531,2,5,9,24,8,-1018
1213,14.012211,1,6,9,21,15,-1025
1214,14.023917,2,6,9,24,12,-1026
1215,14.035601,2,6,8,22,13,-1022
1216,14.047256,2,6,9,25,12,-1028
1217,14.058938,2,6,9,20,11,-1019
1218,14.070624,2,6,9,23,14,-1024
1219,14.082291,2,5,9,20,10,-1023
1220,14.093968,1,6,9,24,13,-1016
1221,14.105641,2,5,10,21,11,-1023
1222,14.117316,2,6,9,20,12,-1025
1223,14.129094,2,5,10,20,10,-1024
1224,14.140809,1,5,9,17,8,-1023
1225,14.15247,2,6,9,20,11,-1025
1226,14.164125,1,6,8,20,14,-1025
1227,14.175799,2,5,9,18,11,-1023
1228,14.187454,2,6,9,20,11,-1025
1229,14.199107,2,5,9,22,9,-1025
1230,14.210778,1,5,9,24,11,-1030
1231,14.222438,1,5,9,22,11,-1026
1232,14.2341,1,5,9,23,6,-1023
1233,14.245871,2,5,9,19,12,-1027
1234,14.257528,2,6,9,22,11,-1020
1235,14.269126,1,5,9,21,11,-1029
1236,14.280673,1,6,10,21,7,-1024
1237,14.292228,1,7,9,23,13,-1021
1238,14.303781,2,6,9,23,14,-1013
1239,14.315326,1,5,9,26,16,-1020
1240,14.326869,1,6,9,21,11,-1023
1241,14.338431,2,5,9,25,10,-1025
1242,14.350011,2,6,9,19,9,-1028
1243,14.361692,2,6,10,21,10,-1024
1244,14.373325,2,6,9,17,16,-1024
1245,14.384976,2,5,9,22,12,-1022
1246,14.39662,1,6,9,25,14,-1027
1247,14.408288,1,5,9,21,17,-1031
1248,14.419968,1,5,9,25,10,-1021
1249,14.431633,2,6,10,23,7,-1027
1250,14.443314,2,5,9,22,15,-1029
1251,14.454971,1,6,9,17,11,-1031
1252,14.466527,1,6,9,29,6,-1023
1253,14.478136,1,5,9,22,8,-1028
1254,14.489696,2,6,9,20,9,-1029
1255,14.501256,2,6,8,23,13,-1024
1256,14.512799,1,5,8,24,10,-1029
1257,14.524346,2,5,10,26,13,-1026
1258,14.535934,2,6,10,22,16,-1019
1259,14.547688,2,5,10,22,10,-1024
1260,14.559368,2,5,9,25,14,-1024
1261,14.57106,2,6,9,23,12,-1027
1262,14.582753,3,6,9,23,12,-1022
1263,14.594441,2,6,9,24,7,-1028
1264,14.606088,2,6,10,24,11,-1027
1265,14.617755,1,5,9,21,10,-1026
1266,14.629442,1,5,9,23,14,-1015
1267,14.641097,1,6,9,24,11,-1026
1268,14.652765,2,5,8,26,12,-1024
1269,14.664475,2,6,8,24,10,-1026
1270,14.676025,2,6,10,22,8,-1017
1271,14.68757,2,5,9,19,14,-1021
1272,14.699116,2,6,9,23,16,-1028
1273,14.710764,2,6,9,25,15,-1025
1274,14.722318,2,6,9,23,11,-1029
1275,14.733877,1,6,9,22,12,-1022
1276,14.745442,2,5,9,22,11,-1022
1277,14.75701,1,5,9,17,16,-1023
1278,14.768664,1,6,9,21,13,-1023
1279,14.780322,2,5,9,19,13,-1027
1280,14.791984,2,5,9,26,11,-1021
1281,14.803706,1,6,9,24,8,-1021
1282,14.815358,1,6,9,23,10,-1018
1283,14.82702,1,5,9,24,14,-1029
1284,14.838704,2,6,9,21,10,-1028
1285,14.850359,2,6,9,19,7,-1019
1286,14.862103,2,5,9,17,10,-1021
1287,14.873845,3,6,9,21,11,-1021
1288,14.885471,2,6,10,24,13,-1019
1289,14.897039,2,5,9,26,10,-1033
1290,14.908638,1,5,9,22,12,-1022
1291,14.920258,2,5,9,23,12,-1022
1292,14.93181,2,6,10,27,14,-1022
1293,14.943355,1,5,9,28,14,-1023
1294,14.954898,2,6,9,27,11,-1028
1295,14.966456,2,6,9,23,15,-1023
1296,14.978038,2,5,9,21,12,-1019
1297,14.989631,2,5,9,21,13,-1028
1298,15.001177,2,5,9,18,11,-1026
1299,15.012759,1,5,10,20,12,-1023
1300,15.024304,2,6,9,23,16,-1022
1301,15.035862,1,6,9,26,9,-1018
1302,15.047419,2,7,9,21,12,-1025
1303,15.059005,1,6,9,23,12,-1020
1304,15.070538,2,4,9,23,10,-1030
1305,15.08223,2,5,9,22,31,-1025
1306,15.093895,2,5,9,22,14,-1027
1307,15.105586,1,6,10,21,12,-1027
1308,15.117244,2,6,8,22,12,-1031
1309,15.128902,2,6,9,26,10,-1024
1310,15.140573,1,5,9,23,10,-1025
1311,15.152256,1,5,9,24,11,-1026
1312,15.16395,2,6,8,21,14,-1030
1313,15.17563,2,5,9,24,12,-1022
1314,15.187306,1,5,9,24,9,-1026
1315,15.198873,1,6,9,22,14,-1019
1316,15.21044,1,7,9,20,10,-1036
1317,15.222034,2,6,10,24,8,-1026
1318,15.233558,1,5,10,19,10,-1023
1319,15.245109,2,6,9,22,10,-1022
1320,15.256657,2,6,9,23,14,-1021
1321,15.268234,1,6,9,23,9,-1021
1322,15.279801,2,6,10,26,12,-1026
1323,15.291433,2,5,9,24,12,-1021
1324,15.303093,2,5,9,24,10,-1024
1325,15.314748,2,6,10,22,11,-1029
1326,15.326405,1,6,9,27,9,-1023
1327,15.338084,1,6,9,26,10,-1030
1328,15.349739,2,5,9,18,14,-1022
1329,15.361398,1,5,10,28,9,-1023
1330,15.373069,2,6,9,24,14,-1021
1331,15.384735,2,5,8,24,7,-1019
1332,15.396429,1,6,8,21,13,-1025
1333,15.408018,1,6,9,22,11,-1020
1334,15.419595,1,6,9,22,9,-1028
1335,15.43115,1,5,9,22,10,-1025
1336,15.442722,1,6,10,25,10,-1020
1337,15.454291,1,5,9,26,12,-1023
1338,15.465897,2,6,10,21,15,-1024
1339,15.477456,1,6,9,22,9,-1026
1340,15.489022,2,5,9,24,8,-1020
1341,15.500718,2,5,9,24,11,-1021
1342,15.512376,2,7,9,20,8,-1028
1343,15.52406,2,6,8,24,11,-1022
1344,15.535741,2,6,8,22,14,-1024
1345,15.547401,2,6,9,22,12,-1023
1346,15.559147,2,5,9,21,12,-1022
1347,15.570828,1,6,9,20,10,-1025
1348,15.582487,1,5,10,22,11,-1022
1349,15.594172,2,6,10,22,15,-1029
1350,15.60588,2,6,9,27,14,-1029
1351,15.617453,2,6,8,22,11,-1018
1352,15.629015,2,5,8,24,10,-1025
1353,15.640564,2,7,9,18,15,-1025
1354,15.652116,2,5,10,19,13,-1029
1355,15.663667,1,6,9,23,14,-1024
1356,15.675213,2,6,10,25,9,-1030
1357,15.686762,2,5,9,23,10,-1027
1358,15.698297,1,6,9,20,9,-1021
1359,15.710013,2,6,9,20,10,-1029
1360,15.721723,2,6,9,22,13,-1030
1361,15.733398,2,7,9,24,10,-1027
1362,15.745071,1,5,9,23,12,-1025
1363,15.75672,1,6,8,25,10,-1024
1364,15.768383,1,6,9,24,12,-1027
1365,15.780045,2,6,9,24,9,-1024
1366,15.791695,2,6,9,22,13,-1022
1367,15.803367,2,5,9,27,13,-1022
1368,15.815024,1,5,9,22,10,-1024
1369,15.826694,2,6,10,23,11,-1020
1370,15.838361,1,6,9,22,12,-1024
1371,15.850031,2,6,9,24,8,-1028
1372,15.861856,1,5,9,21,10,-1025
1373,15.873593,2,6,9,22,9,-1024
1374,15.885273,1,6,9,22,11,-1026
1375,15.896943,1,6,9,22,10,-1024
1376,15.908672,2,6,9,19,10,-1025
1377,15.920343,2,6,8,21,14,-1025
1378,15.931994,2,6,8,21,11,-1025
1379,15.943652,2,6,9,22,16,-1027
1380,15.955302,1,6,9,22,11,-1031
1381,15.966959,2,6,8,22,14,-1022
1382,15.978616,2,5,10,23,10,-1019
1383,15.990292,2,6,9,22,13,-1029
1384,16.001966,2,5,10,26,11,-1018
1385,16.01366,1,5,9,22,11,-1023
1386,16.025321,2,5,9,26,15,-1022
1387,16.036976,2,5,9,21,12,-1025
1388,16.048626,2,7,8,20,11,-1021
1389,16.060302,2,6,9,22,12,-1027
1390,16.071951,2,6,10,26,16,-1023
1391,16.08362,2,5,9,21,10,-1029
1392,16.095295,2,5,9,25,13,-1027
1393,16.106955,2,5,8,23,14,-1025
1394,16.118637,1,5,9,22,11,-1025
1395,16.130339,1,6,9,22,14,-1025
1396,16.141921,2,6,9,23,11,-1023
1397,16.153475,2,6,9,21,16,-1024
1398,16.165027,2,6,8,20,11,-1021
1399,16.176578,1,6,9,23,12,-1025
1400,16.188133,2,6,9,21,10,-1025
1401,16.199685,1,6,9,23,11,-1020
1402,16.211266,1,5,8,21,13,-1019
1403,16.222877,1,6,9,25,12,-1022
1404,16.234533,1,6,9,21,16,-1036
1405,16.246257,1,6,9,27,9,-1021
1406,16.257973,2,6,8,20,9,-1023
1407,16.269634,1,6,9,19,9,-1021
1408,16.281339,1,5,9,22,13,-1024
1409,16.293,2,5,9,21,14,-1023
1410,16.304649,1,6,8,25,11,-1030
1411,16.316321,2,5,8,22,8,-1018
1412,16.327973,2,6,9,22,11,-1020
1413,16.339622,2,6,9,25,13,-1021
1414,16.351279,2,5,9,22,13,-1015
1415,16.362976,1,5,9,21,12,-1017
1416,16.374611,2,6,9,18,11,-1023
1417,16.386313,2,6,8,23,13,-1021
1418,16.398042,2,6,9,23,9,-1028
1419,16.409723,2,5,9,21,14,-1022
1420,16.421377,2,6,8,26,14,-1026
1421,16.433066,2,6,9,21,13,-1027
1422,16.444762,2,5,9,25,11,-1023
1423,16.456318,2,5,8,23,13,-1026
1424,16.467873,2,5,9,22,14,-1022
1425,16.479427,1,6,8,24,13,-1034
1426,16.491006,1,6,9,20,16,-1026
1427,16.502525,1,6,9,27,10,-1025
1428,16.514077,2,6,9,22,11,-1028
1429,16.525629,2,5,9,26,13,-1018
1430,16.537195,2,6,8,18,13,-1018
1431,16.548824,2,6,9,22,11,-1029
1432,16.560478,2,6,9,24,13,-1025
1433,16.572143,1,5,8,18,13,-1026
1434,16.5838,2,5,9,23,13,-1023
1435,16.595455,2,6,9,21,10,-1028
1436,16.607111,2,4,9,24,10,-1015
1437,16.61877,2,5,9,22,13,-1028
1438,16.630437,2,7,9,23,12,-1027
1439,16.642113,2,7,9,22,8,-1022
1440,16.653804,2,7,10,21,11,-1028
1441,16.665392,2,6,9,18,12,-1024
1442,16.67695,1,6,8,24,9,-1021
1443,16.68852,2,7,9,19,12,-1025
1444,16.700058,1,6,10,19,10,-1028
1445,16.711599,2,6,9,21,9,-1022
1446,16.723147,2,6,9,19,13,-1032
1447,16.734699,1,7,9,27,14,-1021
1448,16.74629,1,6,9,24,14,-1027
1449,16.757978,2,6,9,20,12,-1022
1450,16.769656,2,6,9,22,11,-1027
1451,16.781327,1,6,10,23,11,-1023
1452,16.792982,2,6,9,22,9,-1023
1453,16.804634,1,5,10,18,12,-1027
1454,16.816318,2,6,9,25,12,-1028
1455,16.827969,2,5,9,25,10,-1028
1456,16.839624,2,5,9,23,10,-1023
1457,16.851316,2,6,10,22,10,-1027
1458,16.862968,1,6,9,26,14,-1022
1459,16.874617,1,5,10,22,9,-1028
1460,16.886298,1,6,10,21,11,-1021
1461,16.898003,1,6,9,22,11,-1025
1462,16.909663,1,5,9,23,12,-1020
1463,16.921326,1,5,9,23,13,-1026
1464,16.932977,1,5,8,20,12,-1021
1465,16.944629,1,5,9,23,10,-1025
1466,16.95636,1,6,10,23,11,-1026
1467,16.96801,2,5,9,22,9,-1032
1468,16.979564,2,5,8,22,8,-1029
1469,16.991106,2,5,9,22,13,-1026
1470,17.002661,1,6,10,22,11,-1020
1471,17.014228,1,6,9,21,13,-1027
1472,17.025812,2,6,9,24,10,-1023
1473,17.037362,2,6,9,24,10,-1028
1474,17.048913,2,6,10,21,16,-1026
1475,17.060477,2,6,9,24,11,-1026
1476,17.072096,1,6,9,22,15,-1026
1477,17.08375,1,6,9,20,17,-1022
1478,17.09543,1,6,9,23,10,-1021
1479,17.107096,1,6,9,21,8,-1022
1480,17.118746,2,5,9,24,10,-1030
1481,17.130399,1,6,9,21,10,-1025
1482,17.142093,2,6,9,21,13,-1017
1483,17.153743,1,6,8,21,12,-1018
1484,17.165411,2,5,9,23,10,-1026
1485,17.177095,1,6,9,23,12,-1023
1486,17.188664,2,5,9,18,11,-1020
1487,17.200228,2,5,9,18,10,-1022
1488,17.211799,1,5,10,24,11,-1022
1489,17.22335,2,5,9,24,11,-1030
1490,17.234905,1,5,10,19,11,-1025
1491,17.246457,2,6,9,25,16,-1024
1492,17.258039,2,5,9,21,12,-1020
1493,17.269619,2,5,9,23,9,-1018
1494,17.281249,2,5,10,25,7,-1029
1495,17.292926,1,5,9,22,12,-1027
1496,17.304593,1,7,9,23,11,-1028
1497,17.316247,1,6,10,22,11,-1022
1498,17.327921,1,6,10,20,15,-1023
1499,17.339578,2,6,10,25,13,-1026
1500,17.351235,2,6,9,26,10,-1028
1501,17.362901,2,6,10,23,13,-1016
1502,17.374612,2,6,9,24,10,-1020
1503,17.386285,3,6,9,23,11,-1029
1504,17.397924,2,5,9,23,13,-1026
1505,17.409485,2,5,9,23,11,-1024
1506,17.421037,2,6,9,26,15,-1026
1507,17.432647,1,5,8,26,11,-1026
1508,17.444217,1,5,9,19,9,-1022
1509,17.455852,1,6,9,23,16,-1020
1510,17.467516,2,6,9,24,12,-1027
1511,17.479062,2,6,9,22,9,-1021
1512,17.490654,1,6,10,23,11,-1031
1513,17.502205,2,6,9,21,13,-1030
1514,17.513784,2,6,9,23,10,-1024
1515,17.525314,1,6,9,26,11,-1018
1516,17.53689,2,5,9,25,8,-1023
1517,17.548428,2,6,9,25,14,-1026
1518,17.559968,3,6,9,26,13,-1023
1519,17.571521,2,5,9,20,14,-1025
1520,17.583079,2,6,9,22,8,-1026
1521,17.594757,2,6,9,21,17,-1025
1522,17.606466,2,5,9,24,10,-1032
1523,17.618084,1,5,9,22,7,-1024
1524,17.629751,2,6,9,23,9,-1022
1525,17.641453,2,5,9,22,13,-1027
1526,17.6531,2,6,9,21,16,-1026
1527,17.664756,3,6,8,19,15,-1023
1528,17.67645,2,6,10,28,12,-1023
1529,17.688113,1,6,8,24,11,-1025
1530,17.699785,2,6,8,24,11,-1023
1531,17.711355,2,6,9,24,9,-1026
1532,17.722907,2,6,9,23,13,-1028
1533,17.734454,2,6,9,21,10,-1024
1534,17.746035,2,7,9,22,11,-1030
1535,17.757557,1,5,9,23,11,-1023
1536,17.769138,2,5,9,26,15,-1027
1537,17.780687,2,5,9,25,11,-1023
1538,17.792242,2,5,9,20,9,-1030
1539,17.803868,2,5,9,24,11,-1029
1540,17.815514,2,5,9,22,13,-1027
1541,17.82716,1,5,9,20,13,-1026
1542,17.838848,1,6,9,23,10,-1026
1543,17.850507,2,5,10,21,15,-1026
1544,17.862159,2,6,9,22,10,-1026
1545,17.873842,2,6,9,22,11,-1025
1546,17.885508,2,6,9,23,12,-1018
1547,17.89717,2,5,8,22,9,-1024
1548,17.908837,1,6,9,23,14,-1033
1549,17.920413,2,5,9,23,8,-1024
1550,17.931967,2,6,9,22,7,-1030
1551,17.943532,2,6,9,22,13,-1020
1552,17.955085,2,6,9,22,12,-1020
1553,17.966652,2,6,9,21,15,-1024
1554,17.97821,1,5,9,23,12,-1028
1555,17.9898,1,6,9,19,11,-1019
1556,18.001366,2,6,9,21,12,-1024
1557,18.01299,1,6,9,21,14,-1031
1558,18.024639,1,6,9,25,11,-1026
1559,18.036312,1,5,9,21,10,-1025
1560,18.047966,2,6,9,26,8,-1030
1561,18.05962,2,5,9,25,10,-1021
1562,18.071292,2,6,9,21,11,-1035
1563,18.082954,1,5,8,22,12,-1023
1564,18.09462,2,5,9,19,7,-1029
1565,18.106306,1,5,9,20,12,-1022
1566,18.117953,1,5,8,21,12,-1026
1567,18.129575,1,6,8,23,8,-1021
1568,18.141126,2,5,9,22,10,-1027
1569,18.152672,2,6,9,23,15,-1022
1570,18.164252,2,5,9,24,13,-1029
1571,18.175802,2,5,9,25,13,-1025
1572,18.187375,1,6,9,22,12,-1021
1573,18.198916,1,5,9,24,11,-1026
1574,18.210466,2,6,9,22,15,-1028
1575,18.222097,2,5,9,26,11,-1024
1576,18.23375,2,5,9,21,11,-1028
1577,18.245399,2,5,9,23,11,-1017
1578,18.257068,1,6,9,22,8,-1023
1579,18.268714,2,6,8,22,13,-1027
1580,18.280362,2,6,8,25,7,-1024
1581,18.292009,1,6,10,21,13,-1024
1582,18.303651,2,5,9,24,11,-1030
1583,18.315321,2,5,9,20,12,-1025
1584,18.326967,2,5,9,22,10,-1025
1585,18.338621,1,6,9,26,11,-1023
1586,18.350292,2,6,9,24,14,-1019
1587,18.361976,2,6,9,24,10,-1016
1588,18.373654,2,6,9,21,13,-1030
1589,18.385314,1,6,9,27,13,-1029
1590,18.396961,2,6,9,24,14,-1025
1591,18.408611,2,6,9,22,15,-1026
1592,18.420276,1,6,9,25,13,-1027
1593,18.431951,2,5,9,21,13,-1020
1594,18.443601,1,5,9,21,11,-1022
1595,18.455249,1,6,9,23,9,-1030
1596,18.466906,1,6,9,23,12,-1029
1597,18.478595,2,6,8,23,9,-1023
1598,18.490258,2,6,9,19,12,-1023
1599,18.50194,2,6,9,22,12,-1032
1600,18.513599,2,6,10,25,12,-1026
1601,18.525322,2,6,10,18,10,-1023
1602,18.536983,2,5,9,22,11,-1024
1603,18.548552,1,6,9,22,15,-1020
1604,18.560119,2,5,10,21,11,-1024
1605,18.571674,2,5,8,26,10,-1027
1606,18.583221,2,6,9,24,12,-1031
1607,18.594772,2,6,8,16,9,-1024
1608,18.606335,2,6,9,23,11,-1021
1609,18.617922,2,6,9,24,9,-1027
1610,18.629534,2,5,8,26,10,-1024
1611,18.641317,2,5,9,24,12,-1021
1612,18.655777,1,6,9,23,8,-1022
1613,18.667481,2,6,9,21,12,-1026
1614,18.679135,1,6,9,24,14,-1024
1615,18.69079,2,5,8,22,11,-1023
1616,18.702479,2,5,9,26,12,-1024
1617,18.714146,1,6,9,21,6,-1022
1618,18.725836,1,5,9,25,12,-1024
1619,18.737516,1,6,8,22,13,-1023
1620,18.74921,2,5,9,26,16,-1028
1621,18.76077,2,5,9,21,8,-1027
1622,18.772328,2,7,9,22,8,-1028
1623,18.783918,2,6,9,17,14,-1023
1624,18.795476,1,5,9,20,12,-1027
1625,18.807024,2,6,9,22,9,-1017
1626,18.818589,2,5,9,25,8,-1026
1627,18.830172,1,5,9,20,17,-1021
1628,18.841744,2,6,9,25,9,-1026
1629,18.853367,1,4,10,25,9,-1029
1630,18.865032,2,5,9,23,10,-1022
1631,18.87672,2,6,10,26,13,-1034
1632,18.88837,2,6,10,23,9,-1030
1633,18.900039,2,6,9,26,10,-1025
1634,18.911678,2,5,9,23,15,-1030
1635,18.923333,1,6,9,24,10,-1027
1636,18.934988,2,6,9,22,9,-1028
1637,18.946618,2,6,9,22,12,-1023
1638,18.958322,2,5,9,22,13,-1027
1639,18.969879,2,5,9,19,10,-1022
1640,18.981442,2,5,9,21,12,-1023
1641,18.993023,1,5,9,23,12,-1023
1642,19.00457,1,6,9,21,8,-1028
1643,19.016156,1,6,9,23,9,-1024
1644,19.027704,2,5,9,23,13,-1020
1645,19.039292,2,5,9,21,13,-1022
1646,19.050899,2,6,10,22,9,-1030
1647,19.062618,2,5,9,28,8,-1024
1648,19.074308,2,6,8,21,13,-1028
1649,19.085977,1,6,8,23,13,-1027
1650,19.09764,2,5,9,19,10,-1024
1651,19.10933,2,5,9,22,13,-1019
1652,19.120989,2,5,9,20,8,-1028
1653,19.132662,2,5,9,24,10,-1019
1654,19.144351,2,5,10,23,8,-1026
1655,19.156024,2,6,9,22,10,-1027
1656,19.167586,2,6,9,21,13,-1027
1657,19.179139,1,6,8,23,12,-1024
1658,19.190694,1,6,9,23,12,-1021
1659,19.202282,1,6,9,22,14,-1020
1660,19.213805,1,6,9,24,13,-1019
1661,19.225396,2,6,9,23,11,-1022
1662,19.236945,2,6,9,24,12,-1021
1663,19.248546,2,6,9,25,11,-1025
1664,19.260178,3,6,8,22,9,-1029
1665,19.271878,2,6,8,23,9,-1029
1666,19.283554,2,6,9,24,12,-1022
1667,19.295237,2,6,9,24,9,-1024
1668,19.30689,2,6,8,22,12,-1023
1669,19.318568,2,7,9,22,11,-1023
1670,19.330239,1,6,8,24,12,-1024
1671,19.341925,1,6,8,21,16,-1025
1672,19.353604,1,6,9,22,11,-1025
1673,19.365316,2,6,9,25,12,-1022
1674,19.376916,2,6,10,28,12,-1027
1675,19.388461,2,5,10,24,12,-1026
1676,19.400018,2,5,8,24,9,-1027
1677,19.411559,2,6,8,21,11,-1022
1678,19.4231,2,7,9,29,15,-1019
1679,19.434648,2,6,9,15,12,-1022
1680,19.446201,2,6,9,21,11,-1023
1681,19.45781,2,6,9,23,11,-1020
1682,19.469474,2,7,9,21,11,-1020
1683,19.48113,2,6,10,27,16,-1022
1684,19.492773,1,7,10,22,14,-1028
1685,19.504421,1,7,9,26,8,-1028
1686,19.516086,2,6,9,23,10,-1024
1687,19.527732,2,6,9,22,13,-1019
1688,19.539378,2,5,9,23,10,-1024
1689,19.551037,3,5,8,25,14,-1033
1690,19.562718,2,5,9,22,16,-1020
1691,19.574361,2,5,9,22,4,-1022
1692,19.585945,1,6,8,24,11,-1021
1693,19.597553,2,5,9,18,11,-1025
1694,19.609107,2,6,10,25,11,-1026
1695,19.62066,1,5,9,22,12,-1029
1696,19.63221,1,6,8,25,16,-1021
1697,19.643801,2,5,9,24,14,-1025
1698,19.655392,2,5,9,23,10,-1023
1699,19.666954,2,6,9,22,9,-1023
1700,19.678607,2,7,9,24,12,-1021
1701,19.690304,1,6,8,20,14,-1021
1702,19.701983,2,5,9,23,9,-1027
1703,19.71365,2,5,9,19,15,-1019
1704,19.725341,2,6,9,27,12,-1020
1705,19.737002,2,6,9,25,9,-1022
1706,19.748681,1,5,9,20,11,-1025
1707,19.76034,2,6,10,22,9,-1026
1708,19.772006,2,6,9,18,9,-1025
1709,19.783703,2,6,9,21,12,-1025
1710,19.795349,2,6,10,25,14,-1026
1711,19.806998,1,5,9,22,14,-1025
1712,19.818679,1,5,9,21,15,-1030
1713,19.830352,2,5,9,25,9,-1026
1714,19.842011,2,6,10,21,17,-1018
1715,19.853659,1,5,9,22,14,-1021
1716,19.865326,1,5,9,21,10,-1028
1717,19.877057,1,6,9,23,9,-1027
1718,19.888718,1,6,9,21,13,-1025
1719,19.900289,2,6,8,21,7,-1022
1720,19.911838,2,6,8,24,9,-1024
1721,19.923386,1,6,9,19,14,-1032
1722,19.934931,2,6,9,25,12,-1026
1723,19.946538,2,6,9,21,10,-1012
1724,19.958096,2,6,9,23,10,-1022
1725,19.969681,2,6,9,23,9,-1032
1726,19.981237,2,5,9,23,10,-1025
1727,19.992864,2,5,9,24,13,-1030
1728,20.004513,1,5,9,19,14,-1030
1729,20.016185,1,5,9,24,9,-1022
1730,20.027852,1,5,10,24,15,-1021
1731,20.039495,2,6,9,22,10,-1024
1732,20.051144,2,5,9,24,11,-1033
1733,20.062817,1,6,9,21,14,-1029
1734,20.074536,1,6,9,19,14,-1025
1735,20.08626,1,6,8,21,12,-1022
1736,20.097958,2,6,9,20,14,-1022
1737,20.109555,2,6,10,20,15,-1022
1738,20.121129,1,5,10,19,12,-1023
1739,20.132676,1,6,9,16,7,-1024
1740,20.144217,3,6,9,25,8,-1029
1741,20.155764,2,5,9,23,11,-1029
1742,20.16731,2,6,9,22,13,-1021
1743,20.178925,1,5,8,25,11,-1030
1744,20.190551,2,7,8,22,16,-1026
1745,20.202175,2,6,9,24,13,-1025
1746,20.213834,2,6,9,22,11,-1019
1747,20.225493,2,6,9,24,12,-1023
1748,20.237148,2,6,9,22,11,-1027
1749,20.248822,2,5,8,21,13,-1024
1750,20.260476,2,6,9,18,17,-1023
1751,20.272134,2,5,9,22,12,-1025
1752,20.283791,2,6,9,23,14,-1017
1753,20.295437,1,6,9,24,16,-1020
1754,20.307067,2,6,9,25,12,-1024
1755,20.318642,2,6,9,21,11,-1024
1756,20.330194,2,5,9,23,8,-1030
1757,20.341804,2,5,9,25,13,-1018
1758,20.353346,2,6,9,26,10,-1026
1759,20.364893,2,6,9,25,11,-1019
1760,20.376444,2,5,9,21,13,-1023
1761,20.388008,2,5,8,21,12,-1031
1762,20.399589,2,6,9,25,15,-1022
1763,20.41122,2,5,9,20,13,-1020
1764,20.422879,1,6,10,25,10,-1028
1765,20.434548,2,6,9,24,11,-1021
1766,20.44622,3,6,9,20,10,-1026
1767,20.457849,2,6,9,21,9,-1024
1768,20.469515,2,6,9,21,10,-1026
1769,20.481232,2,6,9,21,10,-1023
1770,20.492881,2,6,9,22,14,-1024
1771,20.504552,2,5,9,21,9,-1021
1772,20.516109,1,6,9,23,8,-1023
1773,20.527661,2,6,9,21,12,-1021
1774,20.539229,1,5,8,24,13,-1025
1775,20.550779,1,6,10,21,13,-1027
1776,20.562341,1,6,9,24,13,-1025
1777,20.573941,1,6,9,24,10,-1028
1778,20.585544,2,5,9,25,10,-1023
1779,20.597093,1,5,9,22,12,-1020
1780,20.608688,2,6,9,22,11,-1029
1781,20.620359,1,6,9,26,11,-1025
1782,20.63202,2,6,10,27,10,-1028
1783,20.643668,2,5,9,24,12,-1022
1784,20.655312,2,6,9,27,9,-1021
1785,20.666994,2,6,9,25,12,-1019
1786,20.678708,1,6,8,24,10,-1022
1787,20.6904,2,5,9,22,12,-1022
1788,20.702097,2,6,9,22,11,-1023
1789,20.71384,2,6,9,20,11,-1024
1790,20.7255,2,7,9,23,14,-1027
1791,20.737152,2,6,9,23,12,-1024
1792,20.748827,2,6,9,19,11,-1023
1793,20.760519,2,5,9,21,13,-1027
1794,20.77217,2,5,9,25,11,-1027
1795,20.783848,2,6,10,20,12,-1024
1796,20.795495,2,5,9,21,11,-1022
1797,20.807147,2,7,7,21,11,-1029
1798,20.81883,2,5,9,23,12,-1021
1799,20.830514,2,5,10,18,8,-1030
1800,20.842061,1,5,9,22,15,-1025
1801,20.8537,2,6,8,19,10,-1032
1802,20.865307,2,6,9,24,14,-1021
1803,20.876862,2,5,8,26,11,-1028
1804,20.888426,2,5,9,20,11,-1024
1805,20.899978,1,5,9,23,12,-1022
1806,20.911528,2,5,8,21,13,-1026
1807,20.92309,2,5,9,23,11,-1020
1808,20.934744,2,5,9,24,8,-1021
1809,20.946404,2,5,9,22,9,-1023
1810,20.958104,2,6,9,24,14,-1025
1811,20.969777,1,5,8,19,8,-1029
1812,20.981451,2,6,9,23,10,-1019
1813,20.993129,2,5,9,23,16,-1026
1814,21.004797,2,7,9,22,10,-1027
1815,21.016456,2,6,9,23,11,-1026
1816,21.028126,1,6,9,24,11,-1024
1817,21.039783,1,6,8,20,15,-1025
1818,21.051341,2,5,9,21,13,-1029
1819,21.062896,1,6,10,23,11,-1022
1820,21.074448,2,5,9,21,12,-1027
1821,21.086046,1,6,9,20,16,-1020
1822,21.097686,2,6,9,20,11,-1024
1823,21.109296,1,5,9,23,16,-1023
1824,21.120874,1,6,8,27,14,-1026
1825,21.132451,2,6,9,21,11,-1026
1826,21.144132,2,5,9,19,12,-1023
1827,21.155788,2,6,8,25,15,-1026
1828,21.167443,1,6,9,27,9,-1023
1829,21.179108,2,6,9,23,11,-1030
1830,21.190771,3,5,9,27,14,-1018
1831,21.202491,2,5,10,22,11,-1025
1832,21.214149,1,6,9,23,10,-1025
1833,21.225848,1,6,9,22,11,-1019
1834,21.237524,1,6,9,22,9,-1024
1835,21.249221,2,6,10,22,11,-1026
1836,21.260791,2,5,10,24,5,-1020
1837,21.27235,2,5,10,25,9,-1020
1838,21.283938,2,6,10,19,13,-1018
1839,21.295521,2,6,9,24,14,-1024
1840,21.307065,2,6,9,25,10,-1026
1841,21.318643,2,6,9,23,12,-1029
1842,21.3302,2,6,9,18,11,-1028
1843,21.341804,1,6,9,21,14,-1019
1844,21.353499,1,6,9,26,10,-1023
1845,21.365167,2,6,9,24,10,-1028
1846,21.37685,2,6,9,25,17,-1029
1847,21.388514,1,5,8,24,12,-1024
1848,21.400162,2,6,8,20,11,-1019
1849,21.411834,1,6,9,23,14,-1025
1850,21.423491,2,6,9,21,11,-1021
1851,21.435132,2,6,9,20,14,-1023
1852,21.446793,2,5,9,26,13,-1027
1853,21.458428,2,5,9,19,13,-1031
1854,21.469996,2,6,9,25,12,-1025
1855,21.481575,2,6,9,24,12,-1028
1856,21.493204,1,6,8,21,14,-1024
1857,21.504802,1,5,8,24,7,-1026
1858,21.516349,2,5,8,20,7,-1025
1859,21.527913,2,5,9,21,13,-1024
1860,21.539479,2,6,9,27,13,-1024
1861,21.551041,1,6,9,23,13,-1024
1862,21.56261,1,5,9,27,12,-1024
1863,21.574191,1,5,9,23,10,-1029
1864,21.58575,2,6,8,24,12,-1025
1865,21.597316,2,6,9,20,11,-1029
1866,21.608871,2,5,9,23,10,-1023
1867,21.620419,2,5,9,21,9,-1026
1868,21.631972,2,6,9,21,10,-1019
1869,21.643555,1,5,9,21,8,-1023
1870,21.655176,2,6,9,24,13,-1015
1871,21.666872,2,6,8,23,13,-1023
1872,21.678534,1,6,8,21,7,-1026
1873,21.690234,2,6,9,22,12,-1033
1874,21.701889,1,6,10,25,7,-1024
1875,21.713587,1,5,9,22,12,-1024
1876,21.725261,1,5,9,25,10,-1029
1877,21.73691,1,6,9,21,13,-1025
1878,21.748606,1,6,9,23,13,-1023
1879,21.76028,2,6,9,25,11,-1027
1880,21.771841,2,5,9,22,15,-1027
1881,21.783387,1,5,9,22,12,-1025
1882,21.794949,2,6,9,21,19,-1022
1883,21.806539,2,5,9,22,10,-1026
1884,21.818112,2,6,8,22,11,-1023
1885,21.829705,2,5,9,24,9,-1020
1886,21.841316,1,5,9,23,11,-1028
1887,21.85287,2,5,9,21,13,-1025
1888,21.864548,2,6,9,21,12,-1021
1889,21.876199,2,5,9,24,11,-1028
1890,21.887852,1,5,9,19,9,-1026
1891,21.899505,2,6,9,17,11,-1020
1892,21.911171,2,5,9,24,13,-1025
1893,21.92287,1,6,8,26,13,-1028
1894,21.934535,1,5,9,21,10,-1028
1895,21.946236,2,6,9,23,10,-1025
1896,21.957907,2,6,9,22,13,-1025
1897,21.969575,2,6,8,21,11,-1024
1898,21.981182,2,6,9,23,11,-1021
1899,21.992741,2,5,9,25,8,-1025
1900,22.004312,1,6,8,20,11,-1027
1901,22.01586,2,5,9,24,10,-1028
1902,22.027407,2,5,10,22,15,-1028
1903,22.03896,1,5,9,25,13,-1019
1904,22.050538,1,6,9,21,14,-1022
1905,22.062111,1,6,9,22,15,-1024
1906,22.073748,2,5,9,25,9,-1021
1907,22.085452,2,5,10,24,12,-1021
1908,22.097131,2,5,10,24,13,-1024
1909,22.108797,1,6,10,23,9,-1022
1910,22.120459,1,5,9,25,10,-1021
1911,22.132117,2,6,9,23,11,-1031
1912,22.143769,1,5,9,23,12,-1031
1913,22.155442,2,6,9,23,12,-1022
1914,22.167119,2,5,9,22,12,-1026
1915,22.178782,2,6,8,21,12,-1024
1916,22.190352,2,6,9,24,9,-1026
1917,22.201949,2,6,9,27,15,-1023
1918,22.213507,2,6,9,25,16,-1024
1919,22.225067,1,6,8,22,13,-1023
1920,22.236641,1,6,9,24,12,-1024
1921,22.248188,1,6,9,22,12,-1022
1922,22.25973,1,6,10,25,12,-1028
1923,22.27129,2,5,9,23,12,-1031
1924,22.282966,2,5,9,23,15,-1024
1925,22.294631,2,6,9,23,9,-1024
1926,22.306285,1,6,9,20,12,-1030
1927,22.317982,1,6,9,26,12,-1025
1928,22.329674,2,6,9,24,10,-1029
1929,22.341328,2,6,9,26,13,-1027
1930,22.352996,2,6,9,26,13,-1023
1931,22.364656,2,5,9,19,12,-1022
1932,22.37632,1,5,9,22,9,-1024
1933,22.387979,1,5,8,20,9,-1024
1934,22.399536,2,6,8,23,9,-1023
1935,22.411084,2,5,9,20,8,-1027
1936,22.422648,2,5,8,22,7,-1024
1937,22.4342,2,6,9,29,12,-1026
1938,22.445802,2,6,9,20,11,-1022
1939,22.457355,2,5,9,23,9,-1023
1940,22.468927,1,5,9,19,12,-1021
1941,22.480482,2,6,10,23,13,-1030
1942,22.492117,2,6,9,19,10,-1029
1943,22.50377,2,6,9,23,12,-1026
1944,22.515447,2,6,9,18,10,-1020
1945,22.527107,2,5,9,26,8,-1027
1946,22.538766,2,6,8,23,12,-1025
1947,22.550446,1,5,8,22,16,-1025
1948,22.562102,1,5,8,23,12,-1018
1949,22.573763,1,5,8,24,13,-1022
1950,22.585466,2,6,9,20,9,-1028
1951,22.597135,1,5,8,21,11,-1026
1952,22.608714,2,5,9,21,14,-1020
1953,22.620284,2,5,8,25,10,-1021
1954,22.631842,2,6,8,24,10,-1019
1955,22.643427,2,6,9,23,15,-1020
1956,22.654982,1,5,9,24,9,-1026
1957,22.666542,2,6,9,24,10,-1028
1958,22.678109,1,5,8,21,8,-1025
1959,22.689723,1,6,8,20,7,-1026
1960,22.701327,2,6,10,26,10,-1025
1961,22.713017,2,5,9,21,9,-1023
1962,22.724664,2,4,9,26,16,-1022
1963,22.736352,2,6,9,21,12,-1022
1964,22.748011,2,6,9,20,13,-1019
1965,22.759668,1,6,9,21,8,-1027
1966,22.771351,2,6,9,25,15,-1020
1967,22.783002,2,6,9,25,13,-1029
1968,22.794671,2,6,9,21,12,-1029
1969,22.806347,2,6,9,21,15,-1029
1970,22.817942,2,5,9,23,13,-1031
1971,22.829544,1,6,9,20,14,-1024
1972,22.841096,1,6,10,22,8,-1022
1973,22.852641,1,6,9,26,12,-1023
1974,22.864189,2,6,9,25,13,-1020
1975,22.87575,2,6,8,22,11,-1020
1976,22.887314,2,5,9,22,13,-1027
1977,22.898875,2,5,9,20,14,-1027
1978,22.910501,1,5,9,22,8,-1027
1979,22.922165,2,6,9,20,10,-1024
1980,22.933852,2,6,8,24,9,-1031
1981,22.945507,2,6,10,23,15,-1030
1982,22.957154,1,6,9,24,12,-1028
1983,22.968822,2,5,9,26,7,-1027
1984,22.980504,2,6,9,17,16,-1026
1985,22.992156,2,6,8,27,13,-1021
1986,23.003838,1,7,9,25,9,-1027
1987,23.015495,2,5,9,23,10,-1025
1988,23.027062,2,5,9,23,10,-1026
1989,23.038643,1,5,9,17,9,-1027
1990,23.050199,2,5,10,22,11,-1028
1991,23.061807,2,5,8,22,14,-1030
1992,23.073366,1,6,9,23,13,-1020
1993,23.084934,2,5,9,23,10,-1024
1994,23.096479,2,6,9,27,12,-1018
1995,23.108038,2,6,9,26,12,-1022
1996,23.119659,2,6,9,23,7,-1026
1997,23.131334,2,7,10,23,13,-1025
1998,23.142991,2,6,10,27,14,-1020
1999,23.15462,1,6,8,20,15,-1023
