sample,t_s,gyro_x,gyro_y,gyro_z,accel_x,accel_y,accel_z
0,1e-05,0,8,6,13,26,-1026
1,0.011343,2,5,8,13,23,-1023
2,0.022549,2,5,9,11,23,-1025
3,0.033739,2,6,9,15,27,-1019
4,0.044929,3,7,9,10,27,-1020
5,0.056115,3,8,8,11,26,-1025
6,0.067297,3,8,9,16,25,-1017
7,0.078483,3,7,9,13,27,-1026
8,0.08967,2,8,8,5,25,-1020
9,0.100855,3,8,8,9,30,-1024
10,0.11204,3,8,9,10,27,-1025
11,0.123224,2,7,9,11,28,-1026
12,0.13441,2,7,8,11,26,-1016
13,0.145597,3,7,9,15,29,-1026
14,0.156801,3,7,8,12,24,-1018
15,0.167985,2,6,8,12,23,-1021
16,0.179167,3,5,9,13,26,-1023
17,0.190351,2,6,9,13,25,-1025
18,0.201538,2,5,9,11,22,-1023
19,0.21273,2,5,9,12,27,-1019
20,0.223916,2,6,9,8,22,-1026
21,0.235099,2,6,9,8,28,-1022
22,0.246281,2,6,9,8,24,-1024
23,0.257486,2,6,9,12,25,-1019
24,0.268675,3,6,9,8,27,-1023
25,0.27986,2,7,9,11,28,-1024
26,0.291042,3,6,10,11,24,-1024
27,0.302224,3,6,9,12,26,-1016
28,0.313409,2,5,9,11,24,-1025
29,0.32461,2,5,9,11,24,-1020
30,0.335793,3,8,9,14,25,-1023
31,0.346976,3,7,9,14,23,-1015
32,0.358159,2,7,9,11,25,-1020
33,0.36935,3,6,8,8,25,-1023
34,0.380531,3,7,8,17,24,-1019
35,0.391714,2,7,8,13,27,-1016
36,0.402902,3,7,9,10,25,-1019
37,0.414099,3,6,9,17,22,-1030
38,0.425288,2,7,9,13,25,-1023
39,0.436471,2,7,9,10,27,-1026
40,0.447655,2,8,9,15,23,-1024
41,0.458842,3,7,9,14,25,-1023
42,0.470025,2,6,9,15,27,-1022
43,0.481212,3,7,9,13,27,-1018
44,0.492403,3,6,9,11,25,-1022
45,0.503585,2,6,9,12,27,-1019
46,0.514771,2,7,9,10,24,-1018
47,0.525954,3,8,9,12,25,-1025
48,0.537148,3,7,9,13,22,-1024
49,0.548337,3,6,10,11,21,-1018
50,0.559519,3,6,9,10,23,-1018
51,0.570707,2,7,8,11,23,-1023
52,0.581892,2,6,9,13,30,-1021
53,0.59309,2,5,9,14,27,-1017
54,0.604276,2,5,9,14,26,-1023
55,0.615459,2,6,9,11,24,-1019
56,0.626645,2,5,8,14,26,-1019
57,0.63783,2,5,9,12,23,-1020
58,0.648984,2,5,8,10,25,-1021
59,0.660168,2,6,9,11,23,-1024
60,0.671352,2,6,9,15,25,-1021
61,0.682537,2,6,9,14,24,-1019
62,0.693722,2,5,9,13,25,-1018
63,0.704917,2,5,9,15,24,-1024
64,0.716104,2,6,8,15,26,-1023
65,0.72729,2,6,9,16,27,-1020
66,0.738473,3,6,9,13,25,-1024
67,0.749665,3,7,9,12,26,-1022
68,0.760853,3,7,8,15,26,-1025
69,0.772067,1,6,9,14,26,-1021
70,0.783259,2,6,10,13,26,-1028
71,0.794444,2,7,8,9,22,-1021
72,0.805644,2,7,10,11,23,-1021
73,0.816799,1,6,9,13,26,-1023
74,0.827979,2,6,9,14,26,-1019
75,0.839164,2,6,9,13,25,-1022
76,0.850345,3,6,11,16,24,-1018
77,0.861543,2,6,10,12,30,-1019
78,0.872734,3,5,9,13,26,-1023
79,0.883917,2,5,9,16,24,-1022
80,0.895099,2,4,9,11,24,-1023
81,0.906284,2,6,9,11,25,-1017
82,0.91747,2,5,9,17,26,-1024
83,0.928658,2,5,9,12,24,-1019
84,0.939844,2,6,9,14,26,-1027
85,0.95103,2,5,10,10,26,-1023
86,0.962217,2,4,10,11,27,-1017
87,0.973421,2,6,10,10,23,-1021
88,0.984614,2,6,10,15,29,-1027
89,0.995798,2,6,9,12,24,-1021
90,1.006984,2,7,9,8,22,-1016
91,1.018168,2,6,9,12,25,-1020
92,1.029353,3,6,9,12,23,-1013
93,1.040539,2,6,9,13,24,-1022
94,1.051723,2,6,9,14,21,-1020
95,1.062907,2,7,9,9,27,-1023
96,1.074089,3,7,9,10,24,-1017
97,1.08528,3,8,9,12,24,-1016
98,1.096461,2,7,9,11,25,-1020
99,1.107645,2,6,9,11,24,-1023
100,1.118827,2,7,8,12,25,-1021
101,1.130022,3,6,9,14,21,-1024
102,1.141168,3,6,9,13,25,-1022
103,1.152351,3,7,9,11,26,-1024
104,1.163536,3,7,9,15,26,-1029
105,1.174723,3,7,8,16,23,-1025
106,1.185906,3,7,9,15,24,-1029
107,1.197095,3,6,8,12,22,-1025
108,1.20828,3,7,9,15,26,-1024
109,1.219467,3,7,8,13,26,-1019
110,1.230653,2,8,9,11,24,-1024
111,1.241838,2,7,8,13,23,-1024
112,1.253031,2,7,9,14,24,-1021
113,1.264216,2,6,9,11,25,-1020
114,1.275401,3,7,9,11,25,-1025
115,1.286588,3,7,10,10,30,-1018
116,1.297771,3,7,9,12,27,-1018
117,1.308958,2,7,8,14,29,-1024
118,1.320143,2,6,9,14,29,-1023
119,1.331326,3,7,9,15,23,-1024
120,1.342514,2,7,9,12,26,-1025
121,1.353708,2,7,9,12,24,-1019
122,1.364905,2,6,10,13,25,-1019
123,1.376089,3,6,9,12,28,-1015
124,1.387272,2,4,9,13,26,-1026
125,1.398456,2,5,11,12,22,-1024
126,1.40965,3,6,9,20,26,-1018
127,1.4208,2,6,9,15,26,-1022
128,1.431985,2,5,9,14,29,-1017
129,1.443172,2,5,9,11,22,-1028
130,1.454356,2,4,9,13,25,-1022
131,1.465538,3,6,9,12,25,-1022
132,1.476728,2,5,9,15,29,-1026
133,1.487926,3,5,8,14,24,-1026
134,1.499119,3,7,9,17,24,-1020
135,1.510305,2,8,9,16,28,-1020
136,1.521497,2,7,10,12,27,-1025
137,1.53269,2,6,10,11,27,-1019
138,1.543879,1,4,9,11,26,-1024
139,1.555065,1,5,9,15,26,-1019
140,1.566251,2,5,9,11,26,-1023
141,1.577438,2,5,9,16,24,-1022
142,1.588613,2,5,8,13,23,-1023
143,1.599798,1,6,10,14,28,-1027
144,1.610981,2,5,10,11,28,-1016
145,1.622163,2,7,9,13,23,-1017
146,1.633355,2,6,9,11,29,-1026
147,1.644537,3,6,10,14,23,-1024
148,1.655721,2,7,10,12,27,-1033
149,1.666907,3,7,10,12,27,-1023
150,1.678102,2,6,10,13,23,-1021
151,1.689287,2,6,9,13,24,-1021
152,1.700471,2,6,10,12,27,-1027
153,1.711655,2,6,9,11,27,-1016
154,1.722839,2,7,10,13,26,-1019
155,1.734024,2,6,10,17,26,-1021
156,1.745169,2,6,10,13,25,-1020
157,1.756354,2,6,8,10,21,-1023
158,1.767538,2,7,9,14,27,-1025
159,1.77872,2,7,9,10,27,-1020
160,1.789952,2,6,10,12,24,-1022
161,1.80114,2,5,10,9,25,-1025
162,1.812324,2,6,8,15,28,-1019
163,1.823508,2,6,10,14,25,-1022
164,1.834693,2,7,9,12,27,-1020
165,1.845895,3,6,8,11,26,-1020
166,1.857092,3,6,9,13,24,-1022
167,1.868275,2,7,9,12,26,-1024
168,1.879458,3,6,8,15,28,-1014
169,1.890642,3,5,9,14,26,-1021
170,1.901826,2,5,8,11,26,-1024
171,1.912984,3,6,8,15,25,-1030
172,1.924167,2,7,7,11,26,-1026
173,1.935357,2,7,9,13,24,-1020
174,1.946543,3,7,9,11,25,-1016
175,1.957728,2,7,9,13,28,-1018
176,1.968928,3,8,9,13,28,-1021
177,1.980172,2,5,10,12,26,-1026
178,1.991418,2,4,10,13,18,-1019
179,2.002615,2,5,9,12,25,-1029
180,2.01381,2,6,9,14,26,-1020
181,2.024986,3,6,9,15,22,-1025
182,2.036173,3,6,9,12,24,-1017
183,2.047359,3,7,9,14,28,-1025
184,2.058546,2,7,9,12,27,-1018
185,2.069728,2,7,9,15,28,-1019
186,2.080912,2,6,8,14,26,-1025
187,2.092094,2,5,9,15,23,-1024
188,2.103275,2,6,9,15,23,-1022
189,2.114459,2,6,9,15,23,-1020
190,2.125652,2,6,9,13,25,-1028
191,2.136802,2,5,9,10,25,-1020
192,2.147999,3,8,9,12,27,-1014
193,2.159188,2,7,9,15,27,-1026
194,2.170378,3,7,9,11,26,-1023
195,2.181537,2,5,9,13,29,-1020
196,2.192725,2,5,9,12,25,-1020
197,2.203932,3,4,9,13,24,-1020
198,2.215118,2,6,10,14,24,-1027
199,2.226302,3,6,9,13,23,-1022
200,2.237491,3,7,10,12,28,-1015
201,2.248689,3,6,10,14,27,-1021
202,2.259877,1,4,9,11,28,-1025
203,2.271062,2,5,9,11,25,-1022
204,2.282247,2,5,9,10,29,-1019
205,2.293435,2,5,9,15,30,-1016
206,2.304608,2,5,8,16,23,-1021
207,2.315793,3,6,9,12,23,-1016
208,2.326981,2,6,10,11,22,-1024
209,2.338167,3,7,9,11,24,-1027
210,2.349351,1,6,9,10,27,-1019
211,2.360536,2,7,10,15,21,-1023
212,2.37172,2,7,10,12,27,-1022
213,2.382903,2,6,10,11,24,-1018
214,2.394105,2,6,9,13,23,-1024
215,2.405294,1,5,9,8,22,-1031
216,2.416478,2,5,10,13,27,-1025
217,2.427661,3,5,9,12,21,-1027
218,2.438849,2,6,9,14,25,-1022
219,2.45003,2,6,9,12,26,-1020
220,2.461216,2,5,9,14,25,-1025
221,2.472401,2,6,10,15,24,-1022
222,2.483582,2,6,9,12,27,-1024
223,2.494766,2,5,10,16,25,-1021
224,2.505947,2,6,10,15,25,-1019
225,2.517133,3,6,9,13,26,-1024
226,2.528319,2,6,9,16,24,-1024
227,2.539504,2,6,9,13,29,-1028
228,2.550692,3,7,10,10,27,-1021
229,2.561886,2,7,10,11,23,-1024
230,2.573072,1,5,10,13,23,-1030
231,2.584256,1,5,11,12,25,-1021
232,2.595443,2,6,9,17,19,-1024
233,2.606628,2,6,10,12,26,-1017
234,2.617811,2,6,10,11,28,-1025
235,2.628983,2,7,9,15,27,-1022
236,2.64017,2,7,8,14,26,-1018
237,2.651362,3,7,9,14,28,-1019
238,2.662549,2,7,9,11,23,-1017
239,2.673734,3,6,10,9,29,-1019
240,2.684923,3,6,10,13,29,-1026
241,2.69611,2,6,9,19,26,-1023
242,2.707303,2,5,9,10,23,-1019
243,2.718493,1,5,10,16,24,-1024
244,2.729684,2,5,9,13,26,-1024
245,2.740873,2,5,9,16,24,-1021
246,2.752059,2,6,8,13,28,-1022
247,2.763249,2,7,9,13,28,-1019
248,2.77445,3,7,9,12,25,-1023
249,2.786021,3,7,9,10,21,-1027
250,2.79761,2,6,9,12,28,-1022
251,2.809183,2,6,9,12,27,-1013
252,2.820757,3,6,10,12,25,-1022
253,2.832301,3,5,9,14,20,-1020
254,2.84385,3,6,9,8,27,-1022
255,2.855415,2,5,9,14,25,-1022
256,2.866966,2,5,9,13,23,-1023
257,2.878552,2,6,9,15,23,-1022
258,2.890176,2,6,8,12,27,-1024
259,2.901871,3,5,9,13,22,-1020
260,2.913555,2,5,9,19,25,-1023
261,2.925255,3,5,9,17,24,-1032
262,2.936923,2,6,9,16,25,-1023
263,2.948568,2,6,9,13,24,-1029
264,2.960236,2,6,9,13,26,-1019
265,2.971909,2,6,9,13,28,-1019
266,2.983552,2,6,9,14,26,-1023
267,2.995213,2,6,9,14,25,-1017
268,3.006802,1,6,9,12,21,-1022
269,3.018369,2,5,9,13,25,-1026
270,3.029955,3,6,9,14,25,-1023
271,3.041533,3,6,9,14,24,-1020
272,3.053119,3,5,9,12,25,-1022
273,3.064713,3,6,9,16,24,-1022
274,3.076261,2,6,9,14,22,-1028
275,3.087816,3,6,10,12,26,-1021
276,3.099483,2,6,10,12,26,-1023
277,3.111156,3,6,10,15,26,-1026
278,3.122799,2,6,9,12,24,-1017
279,3.13447,3,6,10,14,27,-1019
280,3.146143,2,5,9,13,26,-1023
281,3.157805,2,5,8,11,26,-1024
282,3.169434,2,6,9,12,24,-1015
283,3.18111,3,7,9,9,19,-1018
284,3.192795,3,6,9,11,28,-1019
285,3.204473,2,6,9,13,22,-1022
286,3.216069,3,6,9,13,23,-1014
287,3.22762,2,6,9,12,30,-1024
288,3.239204,3,7,9,11,22,-1027
289,3.250742,3,6,9,14,25,-1022
290,3.262278,2,6,10,14,25,-1021
291,3.27385,2,6,9,12,25,-1026
292,3.285444,2,6,10,12,27,-1019
293,3.297027,2,6,9,13,18,-1031
294,3.308713,2,6,9,13,25,-1017
295,3.320369,3,6,8,17,26,-1020
296,3.33202,2,6,9,14,26,-1022
297,3.343674,3,6,9,10,26,-1023
298,3.355317,2,6,9,14,25,-1025
299,3.367,3,6,9,13,23,-1026
300,3.378658,3,5,9,13,27,-1023
301,3.390301,3,6,9,15,29,-1014
302,3.401957,2,6,10,9,26,-1026
303,3.413644,3,7,9,13,26,-1018
304,3.425216,2,6,9,11,25,-1021
305,3.436785,2,6,8,13,25,-1018
306,3.448343,2,7,9,10,24,-1023
307,3.45989,2,5,8,13,26,-1027
308,3.471443,2,6,9,15,26,-1029
309,3.483,3,6,9,10,24,-1021
310,3.494597,3,7,9,15,28,-1019
311,3.50616,2,7,9,14,26,-1029
312,3.517801,2,6,8,12,27,-1020
313,3.529438,2,6,9,11,23,-1020
314,3.541157,2,6,9,18,25,-1025
315,3.552829,2,6,9,11,27,-1019
316,3.564501,2,7,10,9,25,-1026
317,3.576157,3,7,9,12,23,-1022
318,3.587799,2,5,9,15,24,-1020
319,3.599451,3,6,9,13,28,-1016
320,3.611153,3,7,9,15,24,-1021
321,3.622808,3,7,9,11,26,-1022
322,3.634366,3,5,9,15,23,-1018
323,3.645919,3,7,9,15,28,-1019
324,3.657514,2,6,9,13,24,-1015
325,3.669089,2,6,9,13,24,-1029
326,3.68065,2,5,9,14,23,-1025
327,3.692204,2,6,9,16,26,-1013
328,3.703739,3,5,9,12,23,-1022
329,3.715292,2,6,9,12,32,-1025
330,3.726914,3,5,9,17,25,-1023
331,3.738572,2,6,9,17,25,-1022
332,3.750252,2,6,9,11,24,-1023
333,3.761931,2,6,9,13,23,-1022
334,3.773586,2,6,8,18,25,-1020
335,3.78529,3,6,9,10,26,-1023
336,3.796924,3,6,9,14,26,-1027
337,3.808578,2,6,9,11,21,-1025
338,3.82026,2,6,9,8,27,-1022
339,3.83192,3,6,9,16,26,-1021
340,3.843505,3,6,9,13,24,-1030
341,3.855086,3,6,9,14,24,-1020
342,3.866644,3,7,9,12,23,-1023
343,3.878205,3,6,10,14,23,-1025
344,3.88976,3,6,9,16,26,-1021
345,3.90131,2,6,9,14,31,-1022
346,3.912887,3,6,10,15,22,-1026
347,3.924473,2,6,10,15,26,-1024
348,3.936136,2,5,9,14,27,-1022
349,3.947797,2,6,9,13,24,-1025
350,3.959472,2,7,9,11,24,-1025
351,3.971127,3,6,9,12,26,-1023
352,3.982781,3,6,9,17,23,-1023
353,3.994444,2,6,8,14,27,-1024
354,4.00612,2,6,10,14,24,-1025
355,4.017825,2,6,9,10,27,-1016
356,4.029574,2,5,9,12,24,-1019
357,4.041257,3,6,9,11,27,-1024
358,4.052842,3,6,9,13,25,-1019
359,4.064407,2,6,9,12,24,-1022
360,4.075959,2,5,9,15,22,-1019
361,4.087552,2,6,9,12,27,-1018
362,4.099106,2,6,9,14,27,-1026
363,4.110679,2,6,9,11,25,-1026
364,4.122219,3,6,9,12,42,-1023
365,4.133787,2,6,9,15,25,-1022
366,4.145428,2,6,9,10,26,-1026
367,4.157095,2,7,9,12,27,-1023
368,4.168784,2,5,8,10,23,-1017
369,4.180447,2,6,8,12,23,-1023
370,4.192094,3,6,9,14,26,-1023
371,4.203764,3,5,9,10,26,-1018
372,4.215424,3,5,9,9,22,-1025
373,4.22708,3,6,8,10,27,-1024
374,4.238767,3,5,9,13,25,-1024
375,4.250424,2,5,9,15,25,-1023
376,4.261996,2,6,9,14,28,-1023
377,4.273557,2,6,9,12,21,-1024
378,4.285127,3,7,9,14,30,-1023
379,4.296705,2,6,9,14,22,-1023
380,4.308271,2,6,9,11,29,-1024
381,4.319835,3,6,9,12,26,-1018
382,4.331392,2,6,9,14,27,-1023
383,4.342945,3,5,9,14,25,-1016
384,4.35466,2,6,9,12,24,-1024
385,4.366322,2,6,9,17,22,-1025
386,4.377953,2,5,8,13,26,-1022
387,4.389679,2,6,9,15,27,-1022
388,4.401368,3,6,10,11,25,-1022
389,4.413049,3,6,9,14,25,-1025
390,4.424733,3,7,10,13,29,-1023
391,4.436386,2,6,8,8,25,-1028
392,4.448052,3,5,9,13,25,-1023
393,4.459726,2,5,9,13,24,-1026
394,4.47138,2,6,9,13,24,-1022
395,4.48303,2,6,9,16,24,-1021
396,4.494685,2,6,8,12,26,-1023
397,4.506334,3,6,8,12,29,-1019
398,4.518016,3,6,9,15,22,-1019
399,4.529699,3,6,9,14,23,-1028
400,4.541364,2,5,9,14,24,-1023
401,4.553044,3,6,9,13,23,-1020
402,4.564599,2,6,8,11,26,-1027
403,4.576149,2,6,9,12,29,-1023
404,4.587697,3,6,9,11,25,-1025
405,4.599244,3,7,9,15,24,-1019
406,4.610815,3,6,9,11,26,-1021
407,4.622362,2,7,9,15,30,-1031
408,4.633906,2,6,9,11,25,-1013
409,4.645485,2,6,9,12,24,-1022
410,4.657052,2,6,9,14,24,-1022
411,4.668663,2,6,9,12,22,-1021
412,4.680314,3,7,9,15,24,-1019
413,4.691986,2,6,9,9,21,-1021
414,4.70363,2,6,9,13,24,-1027
415,4.715279,3,6,9,11,24,-1023
416,4.726935,2,6,9,13,25,-1023
417,4.738607,3,6,9,12,28,-1024
418,4.750257,2,6,9,12,24,-1026
419,4.761968,3,6,9,12,24,-1021
420,4.773682,3,6,9,11,25,-1018
421,4.785337,3,6,9,15,25,-1028
422,4.797141,3,6,8,12,29,-1020
423,4.808791,2,5,9,13,25,-1020
424,4.820463,3,6,9,15,24,-1023
425,4.832119,2,6,9,11,23,-1020
426,4.843772,3,6,10,12,25,-1026
427,4.855419,2,6,9,11,28,-1023
428,4.867135,2,7,8,11,24,-1018
429,4.878793,2,7,9,12,26,-1016
430,4.890357,2,6,9,12,25,-1021
431,4.901912,2,6,10,13,30,-1023
432,4.913499,3,6,8,11,28,-1020
433,4.925078,3,6,9,12,26,-1022
434,4.936645,2,6,9,16,23,-1024
435,4.948197,2,6,10,11,25,-1019
436,4.959742,1,6,9,16,28,-1025
437,4.971301,2,6,10,11,23,-1022
438,4.982922,2,6,9,14,27,-1023
439,4.994583,2,6,9,15,27,-1025
440,5.006249,2,6,9,12,22,-1020
441,5.017986,2,5,9,16,27,-1020
442,5.029674,2,6,9,15,26,-1023
443,5.041357,3,6,8,14,25,-1021
444,5.053031,2,6,9,13,24,-1022
445,5.064664,3,7,9,10,23,-1025
446,5.076369,2,6,9,11,27,-1024
447,5.08802,2,6,9,14,22,-1018
448,5.099583,3,6,9,13,24,-1027
449,5.111152,3,6,9,11,26,-1024
450,5.122705,3,6,9,11,29,-1022
451,5.13425,2,5,9,12,24,-1026
452,5.145826,2,6,8,10,27,-1025
453,5.157373,3,7,9,12,26,-1021
454,5.168942,2,6,9,10,21,-1023
455,5.180519,3,7,9,16,29,-1024
456,5.192146,2,6,8,15,24,-1021
457,5.203935,3,6,9,18,26,-1022
458,5.215612,2,6,9,17,27,-1026
459,5.227274,2,6,9,10,25,-1021
460,5.238938,2,6,8,12,26,-1028
461,5.250598,2,6,9,10,29,-1020
462,5.262264,2,5,9,11,30,-1019
463,5.273955,2,7,9,15,22,-1024
464,5.285642,2,6,9,10,25,-1019
465,5.297311,3,6,9,12,26,-1015
466,5.308897,2,6,9,17,25,-1025
467,5.320459,3,6,9,12,27,-1019
468,5.33201,2,6,9,13,27,-1020
469,5.343562,2,6,8,12,27,-1015
470,5.355123,3,5,9,16,27,-1024
471,5.366696,2,6,8,10,22,-1028
472,5.378244,3,5,9,13,27,-1027
473,5.389804,2,6,9,13,28,-1019
474,5.401439,2,6,8,14,23,-1029
475,5.413113,2,6,9,10,22,-1021
476,5.424794,3,6,9,11,24,-1020
477,5.436477,3,6,9,12,23,-1025
478,5.448136,2,6,8,15,26,-1020
479,5.459794,2,6,10,14,24,-1019
480,5.471466,3,6,9,11,23,-1025
481,5.483124,3,7,9,12,21,-1018
482,5.494796,2,6,8,10,30,-1022
483,5.50646,3,7,9,15,25,-1026
484,5.518059,2,6,9,12,26,-1020
485,5.529618,2,6,10,14,24,-1024
486,5.541185,2,6,9,15,25,-1020
487,5.552771,3,6,9,11,23,-1021
488,5.564339,2,6,8,11,26,-1015
489,5.57591,2,6,8,14,24,-1023
490,5.587455,2,6,9,13,24,-1021
491,5.599012,2,5,8,12,26,-1017
492,5.610646,2,6,9,10,27,-1022
493,5.622352,2,6,9,14,26,-1025
494,5.634008,2,6,9,11,26,-1019
495,5.645687,2,6,10,13,24,-1019
496,5.657416,2,6,9,11,26,-1021
497,5.669083,2,6,8,13,30,-1022
498,5.680747,2,6,8,13,26,-1021
499,5.692407,2,6,8,12,25,-1021
500,5.704073,3,6,9,16,26,-1026
501,5.715744,3,6,8,13,29,-1023
502,5.727321,2,6,8,13,26,-1024
503,5.738877,3,5,8,11,28,-1022
504,5.750442,3,6,9,18,28,-1021
505,5.761994,2,5,8,12,27,-1017
506,5.77355,2,6,9,14,23,-1020
507,5.785128,3,5,9,16,22,-1024
508,5.796697,3,7,9,13,23,-1022
509,5.808297,2,6,9,11,27,-1020
510,5.819936,2,6,9,15,25,-1026
511,5.831639,2,6,9,14,22,-1027
512,5.843294,2,6,9,13,27,-1018
513,5.854979,3,6,9,15,23,-1021
514,5.866638,2,7,9,15,23,-1021
515,5.878297,3,5,8,14,24,-1021
516,5.889981,2,6,8,13,27,-1020
517,5.901698,2,6,9,15,24,-1016
518,5.913378,2,7,9,11,27,-1021
519,5.925049,3,6,9,12,25,-1021
520,5.936634,2,6,10,15,23,-1017
521,5.948196,2,5,10,10,23,-1030
522,5.959771,2,6,9,12,23,-1017
523,5.971325,3,5,9,14,25,-1026
524,5.982892,2,7,9,10,23,-1023
525,5.994451,3,6,9,12,25,-1017
526,6.006031,3,6,9,15,28,-1023
527,6.01763,2,6,9,14,24,-1021
528,6.029316,2,7,8,12,24,-1021
529,6.040992,2,6,8,12,31,-1021
530,6.052666,2,6,9,15,27,-1018
531,6.064339,2,5,9,13,24,-1021
532,6.075997,2,6,8,14,22,-1025
533,6.087649,2,6,8,15,29,-1020
534,6.099308,2,6,9,14,24,-1023
535,6.110971,2,6,9,9,25,-1021
536,6.122637,3,5,9,10,24,-1021
537,6.1343,2,5,9,10,24,-1022
538,6.145866,2,5,9,15,28,-1019
539,6.15744,2,5,9,13,27,-1023
540,6.169014,3,5,9,13,23,-1021
541,6.180564,3,6,9,12,25,-1025
542,6.192109,2,6,9,12,22,-1018
543,6.203651,3,6,9,13,27,-1018
544,6.215201,2,6,9,15,28,-1017
545,6.226757,3,6,9,12,30,-1025
546,6.238376,3,6,9,14,24,-1029
547,6.250091,3,6,8,12,27,-1023
548,6.261755,2,6,9,11,26,-1023
549,6.273424,3,7,9,13,22,-1022
550,6.285093,3,6,9,14,23,-1027
551,6.296775,2,6,9,12,23,-1025
552,6.308425,2,6,9,9,26,-1020
553,6.320076,2,6,9,14,25,-1026
554,6.331749,3,6,10,13,29,-1021
555,6.343402,2,5,9,14,27,-1022
556,6.354965,2,6,9,12,26,-1018
557,6.366521,2,6,8,14,20,-1027
558,6.378113,2,6,10,16,25,-1029
559,6.389679,2,6,9,13,23,-1017
560,6.401245,3,6,9,14,26,-1021
561,6.412809,2,5,8,11,25,-1019
562,6.424373,3,6,9,10,28,-1025
563,6.435947,2,6,9,9,22,-1019
564,6.447635,2,6,9,13,22,-1019
565,6.459302,2,7,9,17,26,-1020
566,6.470972,2,7,8,9,23,-1022
567,6.482622,2,6,9,15,25,-1016
568,6.494302,2,6,9,12,25,-1019
569,6.505949,3,6,8,15,26,-1017
570,6.51762,2,6,8,14,25,-1018
571,6.529305,3,7,9,13,25,-1023
572,6.540991,2,6,8,15,24,-1020
573,6.55265,2,6,9,13,26,-1018
574,6.564208,2,6,9,13,26,-1018
575,6.575795,2,6,9,7,27,-1023
576,6.587336,2,6,9,12,24,-1022
577,6.598881,2,6,9,15,24,-1019
578,6.610441,2,6,9,14,26,-1022
579,6.622065,2,6,10,16,23,-1027
580,6.633622,2,6,9,10,23,-1024
581,6.645202,3,5,9,10,26,-1019
582,6.656846,2,6,9,14,23,-1023
583,6.668506,2,6,10,10,23,-1017
584,6.680183,2,6,10,19,23,-1024
585,6.691867,2,6,9,12,25,-1016
586,6.703516,2,7,9,13,26,-1021
587,6.715174,2,7,10,11,22,-1023
588,6.726858,2,6,9,14,25,-1022
589,6.738508,3,6,9,13,24,-1019
590,6.750236,2,6,9,14,25,-1016
591,6.761905,2,6,9,12,25,-1027
592,6.773493,2,6,10,14,29,-1023
593,6.785057,3,6,9,14,26,-1021
594,6.796641,2,6,9,15,27,-1017
595,6.808188,2,6,9,13,25,-1025
596,6.819749,3,7,9,11,27,-1020
597,6.831306,2,7,9,12,27,-1020
598,6.842854,2,7,9,13,24,-1021
599,6.854468,2,7,10,18,24,-1018
600,6.866201,2,6,10,8,26,-1021
601,6.877771,3,6,8,15,28,-1020
602,6.889327,3,6,8,10,27,-1027
603,6.900895,2,7,9,14,27,-1029
604,6.912461,2,7,8,16,30,-1019
605,6.924042,3,6,9,14,27,-1022
606,6.935583,2,6,8,12,27,-1024
607,6.947136,2,6,9,9,25,-1026
608,6.958697,3,5,9,14,25,-1020
609,6.970247,3,6,9,10,26,-1018
610,6.981802,2,6,9,12,24,-1021
611,6.993401,2,6,9,10,30,-1018
612,7.004956,2,6,9,13,24,-1023
613,7.016539,2,6,9,16,26,-1019
614,7.02808,1,6,9,13,23,-1024
615,7.039632,2,6,9,13,22,-1019
616,7.051182,3,6,9,12,28,-1016
617,7.062805,2,6,9,11,23,-1022
618,7.074488,2,6,9,13,24,-1023
619,7.086172,2,5,9,14,26,-1023
620,7.097838,2,6,10,12,26,-1018
621,7.109508,2,6,9,13,23,-1022
622,7.121196,2,6,9,14,26,-1020
623,7.132923,2,6,8,13,24,-1025
624,7.144671,2,6,9,14,28,-1024
625,7.156338,2,6,9,14,25,-1016
626,7.168019,3,6,9,11,28,-1021
627,7.179698,2,7,9,12,26,-1022
628,7.191361,3,7,9,11,26,-1019
629,7.203007,2,7,9,16,25,-1020
630,7.214662,3,6,9,12,27,-1014
631,7.226324,2,6,8,11,23,-1023
632,7.237941,2,5,8,14,23,-1022
633,7.249604,2,6,9,12,25,-1021
634,7.261309,2,6,9,13,26,-1029
635,7.273005,2,6,9,13,26,-1023
636,7.28467,2,6,9,13,24,-1022
637,7.296337,3,6,9,12,25,-1021
638,7.307989,2,6,9,10,31,-1017
639,7.319633,2,6,8,13,27,-1025
640,7.33129,1,7,9,18,23,-1022
641,7.342941,2,6,9,10,26,-1027
642,7.354594,2,6,9,14,26,-1023
643,7.366284,2,6,9,14,24,-1020
644,7.377953,2,5,9,13,20,-1020
645,7.389621,2,6,9,12,27,-1015
646,7.40131,2,6,10,13,21,-1029
647,7.412973,2,6,9,13,26,-1016
648,7.424641,3,6,9,12,24,-1020
649,7.436303,3,7,9,15,25,-1018
650,7.447987,3,6,8,17,25,-1016
651,7.459633,2,6,8,10,24,-1021
652,7.471282,2,6,8,12,22,-1026
653,7.482972,2,6,9,13,24,-1023
654,7.49471,2,5,8,12,22,-1021
655,7.506315,3,6,8,14,25,-1025
656,7.517865,3,6,9,16,31,-1018
657,7.529427,3,7,8,17,24,-1027
658,7.540979,2,7,8,12,28,-1025
659,7.552537,2,6,8,16,21,-1025
660,7.564097,2,6,9,15,23,-1017
661,7.575651,2,6,9,12,23,-1027
662,7.587227,2,6,9,12,24,-1026
663,7.598859,2,6,9,13,24,-1025
664,7.610523,3,6,9,13,19,-1023
665,7.622219,3,6,9,14,26,-1025
666,7.633876,3,6,9,12,25,-1025
667,7.645573,3,6,8,14,25,-1018
668,7.657228,2,5,9,12,24,-1027
669,7.668911,2,7,9,13,23,-1020
670,7.680566,2,6,10,11,25,-1026
671,7.692244,2,7,9,13,25,-1016
672,7.703906,2,5,9,13,20,-1016
673,7.715472,2,6,10,14,25,-1023
674,7.727042,2,6,9,14,23,-1022
675,7.738608,2,6,9,13,27,-1020
676,7.750155,3,6,9,9,24,-1018
677,7.761725,3,6,9,13,27,-1019
678,7.773285,3,7,9,13,26,-1022
679,7.784836,2,7,9,14,24,-1024
680,7.796423,2,6,9,12,28,-1018
681,7.808061,2,5,9,13,25,-1028
682,7.819728,2,6,10,14,28,-1022
683,7.831376,2,6,9,11,25,-1022
684,7.843024,2,6,9,11,28,-1023
685,7.854694,2,7,9,12,26,-1018
686,7.866343,1,6,9,15,21,-1020
687,7.877998,2,7,9,10,26,-1028
688,7.889701,2,6,9,14,24,-1028
689,7.90137,2,6,9,11,26,-1024
690,7.913043,2,6,8,13,25,-1025
691,7.924633,2,6,9,15,24,-1022
692,7.936191,3,6,9,10,27,-1018
693,7.947735,2,6,9,10,24,-1027
694,7.959277,2,5,9,16,25,-1021
695,7.970835,2,5,9,14,25,-1019
696,7.982488,2,6,9,12,23,-1020
697,7.994164,2,6,9,13,27,-1019
698,8.005753,2,6,9,15,26,-1025
699,8.017318,3,6,8,13,23,-1022
700,8.028903,2,5,8,11,26,-1024
701,8.04045,2,6,9,16,28,-1024
702,8.051993,2,6,9,13,28,-1019
703,8.063543,2,6,9,14,28,-1018
704,8.075098,3,6,10,7,27,-1026
705,8.086667,2,6,9,13,26,-1019
706,8.098235,2,6,9,12,24,-1027
707,8.109839,2,6,9,13,26,-1019
708,8.121514,3,6,9,13,25,-1022
709,8.13318,3,6,8,11,28,-1024
710,8.144851,2,6,9,11,23,-1027
711,8.156504,2,6,9,9,22,-1019
712,8.168146,2,6,9,14,26,-1019
713,8.179793,3,7,9,12,25,-1022
714,8.191458,3,6,10,14,26,-1025
715,8.203111,2,5,9,14,25,-1020
716,8.214783,3,5,10,13,20,-1027
717,8.226452,3,6,9,11,25,-1021
718,8.238037,2,5,9,14,24,-1016
719,8.249616,2,6,9,13,25,-1028
720,8.261139,2,6,9,9,29,-1027
721,8.27265,2,6,9,17,25,-1020
722,8.284186,2,6,10,14,25,-1020
723,8.295727,3,6,9,13,27,-1026
724,8.307271,2,6,9,10,21,-1019
725,8.318824,3,6,9,12,25,-1023
726,8.330459,2,7,9,12,23,-1023
727,8.342124,2,6,8,11,27,-1026
728,8.353827,2,6,9,12,30,-1023
729,8.36548,2,6,9,11,26,-1024
730,8.377167,2,6,9,10,24,-1022
731,8.38885,2,6,8,17,26,-1021
732,8.400495,3,6,9,12,25,-1026
733,8.412146,2,5,9,13,25,-1027
734,8.423838,2,6,9,15,22,-1022
735,8.435494,3,7,9,11,26,-1020
736,8.447051,3,6,9,13,23,-1024
737,8.458633,2,7,9,18,25,-1022
738,8.470214,2,6,10,15,27,-1017
739,8.481802,3,6,10,11,28,-1020
740,8.493368,3,6,10,13,26,-1014
741,8.504894,2,6,9,10,24,-1027
742,8.516445,2,6,9,13,23,-1018
743,8.528005,2,6,9,12,25,-1030
744,8.539588,3,6,9,19,29,-1023
745,8.551242,2,6,9,11,27,-1018
746,8.562906,3,6,9,12,26,-1016
747,8.574575,2,6,9,12,26,-1019
748,8.586223,2,6,9,17,23,-1018
749,8.597875,2,6,9,13,26,-1023
750,8.609566,2,6,9,14,26,-1021
751,8.621231,2,6,9,12,21,-1025
752,8.632934,2,6,9,10,23,-1025
753,8.644599,3,6,9,9,25,-1027
754,8.656169,2,6,9,11,26,-1024
755,8.667731,3,6,9,13,23,-1015
756,8.679287,3,6,10,12,25,-1022
757,8.690835,2,6,9,11,23,-1025
758,8.702401,2,6,9,11,26,-1028
759,8.713987,2,7,9,11,26,-1029
760,8.725539,2,7,9,16,27,-1032
761,8.737108,2,6,9,15,25,-1017
762,8.748734,2,5,9,11,26,-1022
763,8.76038,2,6,9,13,26,-1023
764,8.772029,2,6,9,15,28,-1022
765,8.783699,2,5,9,15,23,-1018
766,8.795347,1,6,9,16,25,-1020
767,8.807,3,6,9,12,25,-1018
768,8.818668,3,6,10,16,23,-1022
769,8.830331,2,6,9,11,25,-1024
770,8.841995,2,5,9,15,23,-1021
771,8.853697,2,6,10,13,22,-1027
772,8.865294,2,6,9,14,26,-1022
773,8.876875,2,7,8,13,21,-1026
774,8.888429,2,6,10,15,28,-1025
775,8.899976,2,6,8,14,29,-1022
776,8.911526,2,5,9,11,25,-1022
777,8.923076,3,6,9,11,26,-1023
778,8.934643,2,6,9,14,26,-1027
779,8.94621,2,5,9,11,24,-1022
780,8.957916,2,6,10,17,25,-1021
781,8.96969,3,6,9,13,23,-1027
782,8.981358,3,6,9,12,27,-1018
783,8.99305,2,6,9,15,28,-1017
784,9.004708,2,6,9,11,26,-1017
785,9.016361,3,6,9,15,29,-1022
786,9.028013,2,5,9,15,28,-1015
787,9.039682,3,6,9,13,25,-1022
788,9.051352,3,6,9,15,20,-1019
789,9.06304,3,7,9,10,27,-1021
790,9.074627,3,6,8,15,29,-1023
791,9.086177,3,6,9,11,24,-1018
792,9.097768,2,6,9,13,27,-1018
793,9.109311,2,6,9,11,26,-1027
794,9.120877,2,6,9,11,24,-1027
795,9.132426,2,6,8,13,23,-1021
796,9.143969,2,6,9,14,27,-1021
797,9.155522,2,6,9,13,25,-1025
798,9.167154,3,5,9,12,25,-1018
799,9.178815,3,5,9,14,24,-1023
800,9.190464,2,6,9,9,24,-1029
801,9.202113,2,7,9,16,25,-1019
802,9.21379,2,6,9,12,25,-1023
803,9.225435,3,6,9,14,23,-1026
804,9.237093,3,6,8,15,25,-1020
805,9.248778,3,6,9,10,26,-1023
806,9.260443,2,6,8,10,21,-1020
807,9.272103,2,5,10,13,25,-1026
808,9.283661,2,6,9,13,25,-1022
809,9.295203,2,6,8,15,28,-1024
810,9.306754,2,6,9,16,26,-1025
811,9.318304,2,5,9,13,26,-1020
812,9.329859,2,6,9,10,21,-1022
813,9.341418,2,6,9,12,23,-1021
814,9.353028,2,7,9,13,28,-1020
815,9.364593,3,6,9,14,26,-1019
816,9.376225,3,6,9,9,23,-1022
817,9.387887,2,6,8,14,28,-1023
818,9.399546,2,7,8,13,28,-1018
819,9.411216,2,5,8,12,25,-1018
820,9.422872,2,6,8,14,27,-1017
821,9.434527,3,6,9,11,25,-1021
822,9.446224,2,6,9,11,23,-1020
823,9.457886,2,5,9,12,25,-1021
824,9.469635,3,6,9,10,24,-1025
825,9.4813,3,5,9,12,25,-1024
826,9.492878,2,7,9,16,27,-1021
827,9.504429,3,6,9,15,25,-1022
828,9.515974,3,6,10,10,24,-1027
829,9.52752,2,6,9,12,20,-1017
830,9.539075,3,6,9,13,27,-1024
831,9.550647,3,6,9,13,23,-1026
832,9.562204,2,6,9,9,27,-1021
833,9.573786,3,6,10,13,27,-1017
834,9.585456,3,5,8,10,26,-1016
835,9.597116,2,6,8,15,30,-1021
836,9.608789,2,6,9,13,26,-1027
837,9.620457,2,7,10,13,25,-1022
838,9.632103,2,6,9,11,26,-1022
839,9.643753,2,6,9,13,26,-1018
840,9.655429,2,6,9,16,24,-1025
841,9.667082,2,7,9,13,24,-1016
842,9.678744,2,6,9,10,24,-1024
843,9.690412,2,6,8,13,24,-1021
844,9.701984,2,7,9,10,28,-1023
845,9.713542,2,6,9,12,25,-1020
846,9.725136,2,6,9,11,23,-1020
847,9.736651,3,6,10,13,21,-1022
848,9.748195,2,6,9,12,29,-1024
849,9.759733,2,6,9,7,27,-1024
850,9.771279,2,6,10,11,22,-1022
851,9.782834,3,6,10,14,27,-1027
852,9.79446,3,6,8,10,28,-1021
853,9.80612,2,6,10,13,26,-1020
854,9.817827,2,6,9,16,28,-1022
855,9.829483,3,6,9,12,26,-1019
856,9.841164,2,6,9,14,27,-1019
857,9.852842,2,6,10,16,24,-1020
858,9.864488,2,6,9,10,27,-1019
859,9.876154,3,6,9,16,25,-1021
860,9.887848,2,6,9,13,27,-1023
861,9.899509,3,6,8,16,25,-1026
862,9.911066,3,6,8,16,24,-1019
863,9.922614,2,6,9,10,24,-1028
864,9.93417,2,6,8,12,25,-1016
865,9.945738,2,6,8,17,27,-1023
866,9.957329,2,6,9,13,26,-1022
867,9.968911,2,7,9,12,27,-1026
868,9.980473,3,7,9,15,22,-1019
869,9.992079,2,6,9,12,28,-1028
870,10.003639,3,7,9,12,28,-1021
871,10.015189,2,6,10,12,25,-1020
872,10.02673,2,6,10,14,26,-1025
873,10.038279,2,5,9,13,22,-1017
874,10.049881,2,6,9,14,23,-1015
875,10.06144,2,6,9,12,26,-1024
876,10.073025,2,6,10,11,24,-1021
877,10.084565,2,6,9,12,26,-1021
878,10.096116,2,7,8,13,23,-1026
879,10.107772,2,6,9,14,28,-1025
880,10.119456,2,5,9,12,27,-1021
881,10.131115,3,5,9,14,25,-1023
882,10.142801,2,5,9,10,24,-1022
883,10.15445,2,6,10,14,23,-1023
884,10.166109,3,6,10,13,27,-1022
885,10.177785,3,6,8,15,23,-1025
886,10.189436,2,5,8,14,26,-1019
887,10.201111,3,6,9,13,26,-1017
888,10.212794,3,6,9,13,27,-1024
889,10.224383,3,6,9,10,29,-1020
890,10.235932,2,6,9,11,26,-1018
891,10.24748,2,6,9,12,24,-1021
892,10.259023,2,7,9,11,27,-1020
893,10.27058,3,6,9,13,26,-1018
894,10.282145,3,6,9,10,24,-1020
895,10.293696,2,6,9,12,26,-1023
896,10.305286,2,6,9,17,22,-1020
897,10.316929,2,7,9,13,22,-1024
898,10.328655,2,5,8,14,24,-1020
899,10.340313,2,6,9,12,28,-1019
900,10.351966,3,6,9,13,24,-1027
901,10.363611,2,6,9,13,20,-1027
902,10.375259,2,6,9,12,28,-1015
903,10.38693,2,6,9,14,27,-1029
904,10.398576,2,5,9,16,24,-1024
905,10.410237,2,6,8,14,27,-1023
906,10.421911,2,6,9,11,23,-1019
907,10.433495,3,6,9,10,24,-1023
908,10.44508,2,7,9,15,27,-1022
909,10.456653,2,7,9,14,26,-1023
910,10.468243,3,6,9,12,23,-1017
911,10.479793,2,6,9,11,21,-1025
912,10.491357,3,7,8,13,27,-1026
913,10.502908,2,6,9,11,27,-1023
914,10.514494,2,6,9,14,27,-1026
915,10.526122,3,6,9,13,25,-1024
916,10.537811,3,6,9,14,24,-1024
917,10.549464,3,6,8,11,22,-1020
918,10.56112,3,5,9,15,23,-1016
919,10.572803,2,6,9,12,27,-1021
920,10.58446,2,7,8,11,25,-1019
921,10.596111,2,6,9,14,25,-1015
922,10.607773,2,6,9,9,28,-1019
923,10.61944,2,6,9,12,24,-1019
924,10.631087,2,6,8,15,23,-1020
925,10.642735,2,5,9,16,24,-1023
926,10.654404,2,5,8,11,25,-1023
927,10.666078,2,6,8,7,23,-1025
928,10.677721,2,6,9,14,27,-1019
929,10.689393,2,7,9,15,23,-1015
930,10.701107,3,6,9,11,25,-1016
931,10.712772,2,6,10,13,23,-1019
932,10.7245,2,6,9,12,21,-1023
933,10.736176,3,7,9,12,29,-1023
934,10.747761,1,6,9,15,26,-1020
935,10.75931,3,6,8,10,27,-1016
936,10.770865,2,6,10,10,21,-1025
937,10.782416,2,6,9,14,29,-1029
938,10.793979,1,6,10,14,26,-1020
939,10.805534,1,6,9,11,26,-1029
940,10.817151,2,6,9,16,27,-1020
941,10.828725,2,6,9,13,27,-1023
942,10.840344,2,7,9,11,25,-1025
943,10.852009,3,6,9,14,25,-1019
944,10.863651,3,6,10,11,27,-1018
945,10.875312,2,6,9,15,25,-1021
946,10.886966,2,7,8,10,28,-1021
947,10.898611,2,6,8,16,27,-1019
948,10.910257,2,7,9,11,28,-1017
949,10.92195,2,5,9,12,24,-1017
950,10.933617,3,7,9,8,23,-1025
951,10.94529,2,6,9,11,28,-1021
952,10.956888,2,6,9,15,23,-1021
953,10.968452,3,6,10,13,25,-1024
954,10.980017,2,5,9,10,25,-1022
955,10.991566,2,7,8,13,28,-1022
956,11.00313,3,7,9,15,26,-1022
957,11.014698,2,6,9,11,29,-1022
958,11.026286,2,6,8,9,27,-1020
959,11.037892,2,6,9,11,23,-1024
960,11.049566,2,6,10,11,20,-1017
961,11.061213,2,6,9,12,25,-1021
962,11.072921,2,6,8,15,24,-1018
963,11.084577,3,6,9,15,25,-1028
964,11.096223,2,6,9,12,26,-1023
965,11.107869,3,6,9,15,24,-1024
966,11.119541,3,6,9,16,27,-1022
967,11.131187,2,6,9,10,26,-1022
968,11.142846,2,6,9,11,29,-1022
969,11.154556,3,5,9,11,24,-1022
970,11.166115,3,6,9,12,26,-1022
971,11.177675,2,6,9,14,27,-1026
972,11.189252,2,6,9,15,29,-1021
973,11.200838,2,6,9,11,25,-1023
974,11.212397,4,6,9,13,24,-1023
975,11.223951,3,6,8,14,29,-1025
976,11.235511,2,6,9,16,25,-1022
977,11.247071,3,6,10,8,26,-1028
978,11.258698,3,6,9,15,27,-1022
979,11.270352,3,6,8,16,27,-1017
980,11.28203,2,6,10,13,26,-1029
981,11.293695,2,5,8,10,27,-1020
982,11.30536,2,6,9,15,28,-1021
983,11.317054,2,6,9,14,27,-1020
984,11.328717,2,7,9,11,27,-1024
985,11.340385,3,6,8,11,23,-1023
986,11.352066,2,5,8,14,27,-1028
987,11.36372,2,6,9,17,25,-1023
988,11.375384,3,6,9,12,26,-1025
989,11.38705,3,6,9,13,25,-1021
990,11.398705,2,6,10,13,23,-1021
991,11.410356,3,6,9,13,29,-1027
992,11.42203,2,7,8,13,25,-1015
993,11.433692,3,7,9,15,26,-1019
994,11.445399,3,6,9,11,28,-1023
995,11.457087,2,6,9,12,29,-1021
996,11.468739,3,6,9,10,24,-1027
997,11.480413,3,6,9,12,23,-1025
998,11.492071,3,7,9,9,24,-1018
999,11.503724,3,6,9,13,29,-1018
1000,11.515372,2,6,9,13,23,-1022
1001,11.527027,2,6,8,10,26,-1017
1002,11.538691,2,7,9,7,24,-1020
1003,11.550335,3,6,9,13,31,-1023
1004,11.562004,2,6,9,11,24,-1022
1005,11.573687,2,6,9,10,26,-1028
1006,11.585267,3,5,9,8,25,-1020
1007,11.596831,3,6,9,12,22,-1026
1008,11.608394,2,6,9,14,25,-1016
1009,11.619938,2,6,9,11,22,-1025
1010,11.631486,2,6,9,14,26,-1027
1011,11.64304,2,5,9,13,28,-1020
1012,11.654591,2,7,9,18,26,-1016
1013,11.666163,2,6,9,14,25,-1027
1014,11.677813,2,6,9,14,24,-1020
1015,11.689479,2,6,9,13,26,-1020
1016,11.701168,2,6,9,12,20,-1024
1017,11.712835,2,6,8,15,28,-1019
1018,11.724495,2,7,9,13,26,-1025
1019,11.736162,2,7,9,17,28,-1023
1020,11.747812,2,6,9,11,28,-1020
1021,11.759461,3,6,9,14,24,-1025
1022,11.771125,2,6,9,10,21,-1029
1023,11.782785,3,5,9,11,27,-1023
1024,11.794338,3,6,10,17,26,-1024
1025,11.805905,2,6,9,13,24,-1026
1026,11.817506,2,7,8,9,24,-1029
1027,11.829075,2,6,9,17,24,-1021
1028,11.840654,2,6,9,11,28,-1022
1029,11.852234,2,6,9,16,27,-1025
1030,11.863772,2,6,9,12,27,-1022
1031,11.875317,2,7,9,11,24,-1020
1032,11.886971,1,7,9,14,23,-1024
1033,11.898617,3,6,8,12,29,-1019
1034,11.910269,2,6,9,11,24,-1026
1035,11.921957,2,5,8,12,26,-1019
1036,11.933646,2,6,10,12,24,-1022
1037,11.94531,2,5,10,13,30,-1025
1038,11.956969,3,6,8,9,26,-1025
1039,11.968636,2,5,10,11,21,-1016
1040,11.980307,2,6,9,12,26,-1024
1041,11.991957,2,5,9,13,24,-1022
1042,12.003516,2,5,9,16,26,-1026
1043,12.015066,2,5,9,12,26,-1020
1044,12.026633,2,6,9,9,25,-1016
1045,12.038232,3,6,9,15,26,-1018
1046,12.049796,3,6,9,11,25,-1023
1047,12.061381,2,6,9,15,28,-1016
1048,12.07289,3,6,9,12,29,-1018
1049,12.084433,3,6,8,13,28,-1019
1050,12.096094,2,5,9,7,25,-1018
1051,12.107737,2,6,9,12,24,-1025
1052,12.119387,3,6,9,12,26,-1024
1053,12.131058,2,5,9,14,25,-1023
1054,12.142695,2,6,9,12,26,-1025
1055,12.154344,2,6,8,13,31,-1022
1056,12.166021,3,6,9,12,24,-1025
1057,12.177708,3,6,9,14,26,-1019
1058,12.189358,3,6,8,9,26,-1023
1059,12.200891,3,5,9,17,24,-1020
1060,12.212431,2,6,8,7,24,-1019
1061,12.223977,2,6,9,13,24,-1020
1062,12.235528,2,6,9,12,27,-1024
1063,12.247094,2,6,9,10,29,-1029
1064,12.258648,2,6,8,15,22,-1022
1065,12.27023,2,6,8,12,30,-1025
1066,12.281786,2,6,8,13,29,-1019
1067,12.293379,2,5,9,18,23,-1026
1068,12.305061,3,5,9,13,27,-1023
1069,12.316724,3,6,8,13,24,-1020
1070,12.328406,2,5,10,12,23,-1024
1071,12.340073,2,5,9,15,27,-1027
1072,12.351729,2,5,9,13,26,-1014
1073,12.363398,2,6,9,16,29,-1024
1074,12.375053,2,7,9,12,29,-1025
1075,12.386721,2,7,9,13,25,-1021
1076,12.398396,2,6,9,16,24,-1023
1077,12.409984,2,6,9,15,24,-1025
1078,12.421569,2,6,9,12,26,-1022
1079,12.43314,3,6,9,14,27,-1023
1080,12.444698,2,5,9,14,25,-1021
1081,12.456256,3,5,10,7,26,-1027
1082,12.467794,2,6,10,12,26,-1024
1083,12.479345,2,6,8,9,26,-1020
1084,12.490905,3,7,9,15,27,-1015
1085,12.502521,2,6,9,11,22,-1020
1086,12.514208,2,6,9,10,23,-1021
1087,12.52589,3,6,8,12,28,-1018
1088,12.537568,2,5,9,12,24,-1023
1089,12.549254,2,6,9,12,31,-1022
1090,12.560921,2,5,9,12,24,-1021
1091,12.572568,2,6,9,12,27,-1017
1092,12.584221,2,6,9,14,23,-1021
1093,12.595857,2,6,8,11,26,-1021
1094,12.60741,2,5,8,12,21,-1022
1095,12.618993,3,5,9,9,25,-1021
1096,12.63056,2,5,8,10,28,-1023
1097,12.642108,3,5,8,15,25,-1020
1098,12.653658,2,6,9,11,27,-1021
1099,12.665205,2,6,9,11,26,-1025
1100,12.676767,2,7,8,12,25,-1015
1101,12.688346,2,6,8,13,28,-1029
1102,12.6999,3,7,9,14,25,-1018
1103,12.71153,3,6,10,10,29,-1024
1104,12.72318,3,6,9,15,26,-1024
1105,12.734835,2,6,8,12,25,-1023
1106,12.746511,2,6,8,12,25,-1019
1107,12.758186,2,5,10,15,26,-1027
1108,12.76984,3,6,9,13,26,-1020
1109,12.781519,3,5,9,12,24,-1027
1110,12.793183,2,6,8,13,23,-1014
1111,12.804866,2,5,9,11,30,-1020
1112,12.816521,3,5,9,14,27,-1019
1113,12.828074,2,6,10,10,26,-1015
1114,12.839628,2,6,9,8,27,-1019
1115,12.851174,2,6,9,14,28,-1019
1116,12.862729,2,6,9,12,29,-1019
1117,12.87428,3,7,9,14,24,-1022
1118,12.885873,2,7,9,13,25,-1025
1119,12.897435,2,6,9,14,26,-1030
1120,12.909023,2,5,9,14,25,-1022
1121,12.920763,2,5,9,13,27,-1020
1122,12.932424,3,6,9,15,30,-1026
1123,12.944076,2,6,8,12,26,-1025
1124,12.955724,2,6,9,14,25,-1018
1125,12.96737,3,5,8,12,26,-1022
1126,12.979032,3,6,9,12,23,-1022
1127,12.990686,2,6,9,11,25,-1016
1128,13.002331,3,6,9,12,25,-1023
1129,13.014053,3,5,9,14,23,-1021
1130,13.025697,2,6,9,8,27,-1019
1131,13.037252,3,6,9,14,29,-1018
1132,13.048799,2,6,9,10,22,-1018
1133,13.06037,3,6,9,14,29,-1024
1134,13.071916,3,6,8,14,28,-1021
1135,13.083469,2,6,8,10,29,-1027
1136,13.095011,3,6,9,13,27,-1026
1137,13.106583,3,7,9,10,28,-1024
1138,13.118145,2,6,9,12,25,-1022
1139,13.129745,3,5,9,13,27,-1022
1140,13.141293,2,6,10,14,23,-1025
1141,13.152877,2,6,9,18,29,-1020
1142,13.164419,2,5,10,13,22,-1024
1143,13.175961,3,7,9,12,24,-1015
1144,13.187505,2,7,9,18,27,-1023
1145,13.199078,3,6,8,15,20,-1024
1146,13.210632,2,6,8,10,26,-1021
1147,13.222239,2,5,8,12,29,-1021
1148,13.233887,3,6,9,15,29,-1019
1149,13.24559,1,5,9,9,26,-1018
1150,13.257241,2,6,9,14,27,-1022
1151,13.268928,3,5,9,12,26,-1023
1152,13.280589,2,6,9,12,25,-1019
1153,13.29227,2,7,9,13,25,-1015
1154,13.303926,2,6,8,13,24,-1026
1155,13.315586,2,6,9,10,24,-1020
1156,13.327286,3,6,9,12,27,-1021
1157,13.338937,2,6,9,16,24,-1025
1158,13.3506,2,6,10,15,29,-1032
1159,13.36228,2,6,10,11,26,-1027
1160,13.373945,2,6,9,14,26,-1017
1161,13.385603,2,6,9,12,25,-1026
1162,13.397311,3,6,8,14,23,-1019
1163,13.408966,2,7,9,18,26,-1021
1164,13.42067,2,6,9,11,23,-1024
1165,13.432396,2,5,8,13,23,-1020
1166,13.444061,3,6,9,10,27,-1022
1167,13.455619,2,6,8,11,23,-1015
1168,13.46716,3,6,9,12,24,-1023
1169,13.478703,2,5,9,12,25,-1024
1170,13.490254,2,6,9,13,28,-1020
1171,13.501808,2,5,10,14,29,-1026
1172,13.513375,2,6,9,12,27,-1025
1173,13.524943,3,6,9,15,27,-1026
1174,13.536519,2,5,10,14,28,-1019
1175,13.548167,3,6,9,16,26,-1023
1176,13.55983,3,6,9,8,23,-1020
1177,13.571511,2,5,9,15,24,-1021
1178,13.583172,2,6,9,13,25,-1025
1179,13.594822,2,5,9,17,26,-1025
1180,13.606482,3,6,8,15,27,-1026
1181,13.618151,2,5,9,18,28,-1021
1182,13.629846,2,7,9,11,23,-1021
1183,13.641537,2,6,9,14,27,-1018
1184,13.653181,2,6,9,15,26,-1026
1185,13.664794,2,5,10,12,24,-1020
1186,13.676359,3,6,9,5,27,-1017
1187,13.687907,2,7,9,14,22,-1021
1188,13.699458,2,6,9,15,22,-1026
1189,13.711006,3,7,9,15,27,-1025
1190,13.722588,3,6,9,14,26,-1021
1191,13.734139,2,6,9,11,25,-1020
1192,13.745751,2,6,9,13,25,-1025
1193,13.757376,2,6,9,9,25,-1017
1194,13.769057,3,6,9,15,27,-1023
1195,13.780707,3,7,9,10,27,-1027
1196,13.792373,2,7,9,11,25,-1023
1197,13.804031,2,6,9,12,24,-1023
1198,13.815682,2,6,9,10,27,-1023
1199,13.827323,2,5,9,11,32,-1021
1200,13.83897,2,5,9,12,25,-1020
1201,13.850668,2,6,9,11,25,-1029
1202,13.862339,2,6,9,10,27,-1024
1203,13.873911,2,6,9,13,27,-1022
1204,13.885498,2,6,9,11,24,-1027
1205,13.897057,2,6,9,17,25,-1018
1206,13.908642,1,6,8,13,25,-1026
1207,13.920181,2,5,8,10,27,-1020
1208,13.931727,2,6,9,17,26,-1025
1209,13.943275,2,6,8,10,26,-1024
1210,13.954851,3,6,9,12,26,-1024
1211,13.966482,2,6,9,12,25,-1023
1212,13.978235,2,5,9,11,30,-1021
1213,13.989988,2,5,8,12,22,-1025
1214,14.001696,2,5,9,15,26,-1025
1215,14.013356,3,5,8,13,28,-1025
1216,14.025074,2,6,9,15,26,-1027
1217,14.036864,3,6,9,12,26,-1022
1218,14.048528,2,5,10,14,27,-1023
1219,14.060286,2,6,9,13,29,-1016
1220,14.071959,2,5,8,17,27,-1021
1221,14.083538,2,5,8,8,27,-1027
1222,14.0951,3,6,9,16,24,-1025
1223,14.106664,3,6,9,13,25,-1020
1224,14.118257,3,6,8,13,26,-1031
1225,14.12986,3,6,9,17,26,-1022
1226,14.141377,3,6,10,12,28,-1027
1227,14.152895,2,6,9,14,24,-1021
1228,14.16445,3,5,9,9,25,-1024
1229,14.176007,2,6,9,18,24,-1017
1230,14.187578,2,5,9,11,26,-1026
1231,14.199129,2,7,9,10,27,-1025
1232,14.210723,2,6,9,13,26,-1021
1233,14.222277,2,6,9,15,24,-1025
1234,14.233862,2,6,8,9,23,-1023
1235,14.245378,2,7,10,10,29,-1019
1236,14.256893,2,6,9,12,25,-1021
1237,14.268493,2,6,9,10,26,-1023
1238,14.280149,2,6,8,16,26,-1024
1239,14.291815,2,7,9,12,22,-1019
1240,14.303471,3,6,9,13,26,-1025
1241,14.315148,3,6,10,15,25,-1028
1242,14.326796,3,6,10,8,24,-1021
1243,14.33845,2,6,9,11,24,-1025
1244,14.350096,2,6,9,9,25,-1013
1245,14.361756,2,6,9,15,27,-1021
1246,14.373451,2,7,9,9,26,-1022
1247,14.385105,2,6,9,9,26,-1022
1248,14.396814,2,6,9,12,26,-1019
1249,14.408529,2,6,9,14,26,-1023
1250,14.420178,3,6,9,12,27,-1028
1251,14.431827,3,7,9,17,25,-1020
1252,14.443491,3,6,9,13,25,-1025
1253,14.455153,3,7,9,15,22,-1018
1254,14.466799,2,7,9,14,26,-1020
1255,14.478483,2,6,9,7,21,-1018
1256,14.490138,2,6,9,14,25,-1023
1257,14.501812,2,6,9,12,24,-1020
1258,14.513437,2,5,10,9,30,-1017
1259,14.525084,2,6,9,16,23,-1019
1260,14.536735,2,5,9,11,23,-1023
1261,14.5484,2,6,10,14,24,-1025
1262,14.560052,3,6,9,10,28,-1023
1263,14.571703,2,5,9,14,26,-1024
1264,14.58334,3,5,9,16,29,-1013
1265,14.5949,2,6,9,14,21,-1021
1266,14.606474,2,6,8,15,31,-1019
1267,14.618024,2,5,9,13,23,-1018
1268,14.629604,2,6,9,16,24,-1020
1269,14.641135,2,7,9,15,21,-1025
1270,14.652661,3,6,9,14,22,-1027
1271,14.664209,3,5,8,14,24,-1024
1272,14.675752,3,6,9,13,22,-1021
1273,14.687356,2,5,9,13,24,-1022
1274,14.698972,2,7,9,13,20,-1026
1275,14.710651,2,6,10,14,25,-1017
1276,14.722303,2,6,9,17,27,-1023
1277,14.733947,3,5,9,9,25,-1025
1278,14.745617,2,6,9,12,20,-1021
1279,14.757301,2,5,9,12,26,-1028
1280,14.76898,2,5,9,12,21,-1020
1281,14.780688,2,6,9,11,23,-1013
1282,14.79235,2,6,9,13,23,-1020
1283,14.804028,3,7,9,9,25,-1021
1284,14.81561,2,6,9,9,23,-1024
1285,14.827161,2,5,9,11,25,-1023
1286,14.838713,3,5,9,10,25,-1016
1287,14.850262,2,6,9,15,23,-1020
1288,14.861855,2,6,8,17,26,-1022
1289,14.873375,2,6,9,9,25,-1026
1290,14.88495,2,6,9,14,25,-1025
1291,14.896524,3,6,9,15,27,-1025
1292,14.908161,2,5,9,14,28,-1025
1293,14.919805,2,6,9,14,29,-1027
1294,14.931451,3,6,9,13,28,-1017
1295,14.943124,2,6,8,13,24,-1019
1296,14.954782,3,6,9,6,28,-1022
1297,14.966434,3,5,8,11,24,-1018
1298,14.978101,2,6,8,8,28,-1026
1299,14.989763,2,6,9,12,25,-1028
1300,15.001446,3,7,9,15,24,-1014
1301,15.013125,2,6,9,14,28,-1024
1302,15.024802,2,6,8,13,28,-1022
1303,15.036453,2,6,9,12,26,-1024
1304,15.04813,2,6,9,13,26,-1020
1305,15.059783,2,6,9,10,26,-1024
1306,15.071434,3,6,10,16,29,-1027
1307,15.083089,3,6,9,13,26,-1024
1308,15.094739,2,6,9,16,28,-1018
1309,15.106422,3,6,9,10,23,-1022
1310,15.118096,2,6,9,8,24,-1026
1311,15.129777,2,6,9,15,26,-1021
1312,15.141509,1,7,8,13,19,-1024
1313,15.153144,1,6,9,9,24,-1022
1314,15.164723,2,6,8,11,24,-1023
1315,15.176295,2,6,8,14,24,-1025
1316,15.187856,2,5,9,13,25,-1027
1317,15.199462,2,6,9,13,26,-1022
1318,15.21103,3,6,9,15,26,-1020
1319,15.222606,2,6,9,12,27,-1017
1320,15.234154,2,6,9,9,25,-1029
1321,15.245734,2,6,9,13,24,-1022
1322,15.257286,2,6,9,13,23,-1021
1323,15.268873,2,6,9,12,19,-1030
1324,15.280424,2,6,8,12,27,-1022
1325,15.291979,2,6,8,12,23,-1025
1326,15.303551,3,6,9,9,24,-1026
1327,15.315193,2,6,9,14,27,-1025
1328,15.326846,3,6,10,15,25,-1021
1329,15.338557,2,6,8,14,23,-1014
1330,15.350231,2,5,10,12,26,-1019
1331,15.361889,2,6,8,12,23,-1021
1332,15.373566,2,6,9,14,27,-1021
1333,15.38524,2,5,8,14,24,-1027
1334,15.396922,3,5,9,11,28,-1021
1335,15.408572,2,7,9,15,30,-1021
1336,15.420258,2,6,10,15,28,-1021
1337,15.431922,1,6,8,13,26,-1021
1338,15.443575,2,6,9,12,25,-1023
1339,15.455241,2,6,9,11,26,-1023
1340,15.466896,3,6,9,6,22,-1017
1341,15.478569,3,6,9,10,29,-1021
1342,15.490247,2,7,9,2,23,-1013
1343,15.501924,2,6,8,10,26,-1018
1344,15.513622,3,6,9,9,24,-1021
1345,15.525341,2,6,9,13,27,-1021
1346,15.537005,2,6,9,12,28,-1025
1347,15.548662,2,5,9,12,22,-1018
1348,15.560305,3,5,10,16,29,-1019
1349,15.571955,2,5,8,12,23,-1025
1350,15.583625,2,7,9,12,25,-1023
1351,15.595275,3,6,9,15,24,-1021
1352,15.606929,2,5,9,11,25,-1018
1353,15.618578,2,7,9,12,30,-1019
1354,15.630274,2,6,8,10,27,-1012
1355,15.641953,3,6,8,15,26,-1016
1356,15.65364,3,6,9,10,27,-1021
1357,15.665315,3,6,8,10,22,-1024
1358,15.676995,2,6,8,12,28,-1021
1359,15.688667,3,6,8,12,25,-1020
1360,15.700319,3,6,9,14,25,-1020
1361,15.711971,3,5,9,12,25,-1023
1362,15.723646,2,6,9,13,28,-1027
1363,15.735306,2,6,9,13,26,-1028
1364,15.746984,2,6,8,15,24,-1022
1365,15.758568,3,6,10,10,22,-1025
1366,15.770136,2,6,8,9,27,-1023
1367,15.781717,3,6,9,9,22,-1020
1368,15.793274,3,6,9,14,27,-1023
1369,15.80489,3,6,9,15,24,-1023
1370,15.816459,2,6,9,11,22,-1020
1371,15.82803,2,6,9,13,25,-1024
1372,15.839619,2,7,9,12,24,-1019
1373,15.851263,3,6,9,15,28,-1022
1374,15.862926,2,6,9,14,25,-1021
1375,15.874594,2,6,9,14,27,-1020
1376,15.886294,2,5,9,10,25,-1022
1377,15.89795,2,6,9,10,23,-1016
1378,15.909632,2,7,9,8,25,-1020
1379,15.921307,2,6,9,13,23,-1020
1380,15.932967,2,7,9,13,23,-1022
1381,15.944676,3,6,9,13,26,-1019
1382,15.95635,3,6,9,12,26,-1017
1383,15.967961,2,6,9,12,24,-1021
1384,15.979518,3,6,9,11,28,-1014
1385,15.991093,2,7,9,11,26,-1029
1386,16.002634,2,6,9,11,27,-1025
1387,16.014173,3,6,9,11,28,-1020
1388,16.025742,2,6,9,9,24,-1017
1389,16.037314,2,6,9,13,27,-1026
1390,16.048899,2,6,9,12,28,-1018
1391,16.060522,2,6,9,12,25,-1024
1392,16.072182,2,6,8,10,25,-1021
1393,16.083861,3,6,8,15,24,-1023
1394,16.095521,3,6,9,17,25,-1029
1395,16.107168,2,6,9,11,25,-1016
1396,16.118832,2,5,8,12,26,-1025
1397,16.130505,2,6,9,13,25,-1016
1398,16.142202,3,6,9,11,25,-1027
1399,16.15387,2,6,9,12,23,-1022
1400,16.165565,2,6,9,12,25,-1018
1401,16.177136,2,7,10,14,24,-1025
1402,16.188693,2,5,9,11,29,-1023
1403,16.200245,2,6,8,10,20,-1026
1404,16.211795,3,6,9,11,21,-1023
1405,16.223388,2,6,8,12,25,-1027
1406,16.234974,2,6,9,12,24,-1017
1407,16.246556,3,6,9,16,24,-1027
1408,16.258141,2,5,9,7,25,-1027
1409,16.2698,3,6,9,14,21,-1021
1410,16.281434,2,6,9,11,28,-1023
1411,16.293103,2,7,9,14,28,-1022
1412,16.30479,2,6,9,12,26,-1021
1413,16.316443,3,6,9,11,24,-1024
1414,16.328112,2,6,9,11,24,-1013
1415,16.339786,1,6,9,10,26,-1019
1416,16.351434,2,6,8,11,25,-1024
1417,16.363104,2,6,9,11,26,-1018
1418,16.374791,2,6,10,12,25,-1025
1419,16.386362,2,6,8,11,25,-1029
1420,16.397956,3,6,8,16,24,-1023
1421,16.409515,2,6,8,12,30,-1020
1422,16.421092,2,7,9,13,30,-1022
1423,16.432644,2,6,9,10,26,-1017
1424,16.444186,3,6,9,13,25,-1023
1425,16.45573,2,6,9,14,29,-1023
1426,16.467305,2,6,10,9,28,-1017
1427,16.478926,2,6,9,11,26,-1019
1428,16.490591,2,6,9,8,26,-1023
1429,16.502254,2,6,8,14,26,-1019
1430,16.513941,3,6,9,10,25,-1019
1431,16.525616,3,6,9,11,27,-1023
1432,16.537297,2,6,9,12,28,-1024
1433,16.548921,2,6,9,15,28,-1024
1434,16.560574,2,6,8,13,26,-1023
1435,16.572235,3,6,8,17,25,-1019
1436,16.583909,2,6,8,16,23,-1025
1437,16.595469,2,6,9,8,26,-1026
1438,16.607016,2,6,9,14,21,-1020
1439,16.618578,3,6,9,14,26,-1022
1440,16.630154,2,6,8,14,28,-1025
1441,16.641725,3,6,10,17,23,-1018
1442,16.65328,3,7,9,12,27,-1023
1443,16.664834,2,6,9,8,27,-1017
1444,16.676392,3,6,9,11,25,-1021
1445,16.688012,2,6,9,10,25,-1026
1446,16.699669,2,6,9,12,26,-1017
1447,16.711349,2,7,8,12,27,-1026
1448,16.723006,2,6,9,10,26,-1023
1449,16.734664,2,6,9,14,29,-1018
1450,16.746325,2,6,9,18,26,-1026
1451,16.757948,2,6,9,13,23,-1023
1452,16.769619,2,6,9,14,26,-1024
1453,16.781318,2,6,8,8,25,-1023
1454,16.792972,2,6,9,11,28,-1019
1455,16.804572,2,6,9,8,25,-1024
1456,16.816133,2,5,9,15,24,-1024
1457,16.827708,2,7,9,13,29,-1028
1458,16.839256,2,6,8,9,23,-1020
1459,16.850811,2,6,9,15,25,-1021
1460,16.862363,2,6,9,13,28,-1022
1461,16.873941,2,7,9,11,28,-1019
1462,16.88551,2,6,10,13,26,-1022
1463,16.897198,2,6,8,9,25,-1021
1464,16.908898,2,6,9,16,29,-1022
1465,16.920549,2,6,9,13,25,-1020
1466,16.932186,2,6,9,11,24,-1019
1467,16.943832,2,6,9,11,25,-1018
1468,16.955514,2,6,9,9,24,-1022
1469,16.967159,1,6,9,14,21,-1016
1470,16.978818,2,6,9,14,24,-1024
1471,16.990524,2,6,9,15,24,-1022
1472,17.002278,3,6,9,14,26,-1020
1473,17.013947,2,5,8,14,26,-1017
1474,17.025634,3,6,9,11,25,-1026
1475,17.037309,2,7,9,11,27,-1018
1476,17.048972,3,6,9,14,24,-1019
1477,17.060654,2,6,9,10,25,-1029
1478,17.072312,2,6,9,16,26,-1025
1479,17.08396,3,6,9,10,25,-1017
1480,17.095715,2,5,9,15,26,-1026
1481,17.107341,2,6,9,15,22,-1024
1482,17.118902,2,6,9,11,28,-1019
1483,17.130459,3,6,10,11,24,-1019
1484,17.142037,3,6,9,11,24,-1022
1485,17.153609,3,6,9,14,25,-1027
1486,17.165204,2,6,9,15,23,-1013
1487,17.176771,3,6,9,15,24,-1013
1488,17.188332,2,6,9,12,27,-1015
1489,17.19989,2,6,8,15,25,-1020
1490,17.211543,2,6,9,11,25,-1020
1491,17.223232,2,6,9,11,22,-1019
1492,17.234891,2,6,8,12,26,-1021
1493,17.246551,2,7,9,11,23,-1026
1494,17.258244,3,6,9,14,22,-1026
1495,17.269925,2,6,9,13,30,-1022
1496,17.281593,2,6,9,12,25,-1024
1497,17.293305,3,6,9,13,24,-1020
1498,17.304982,3,6,9,8,22,-1021
1499,17.316658,2,7,9,12,24,-1021
1500,17.32822,3,6,9,10,26,-1031
1501,17.339767,2,6,8,14,24,-1017
1502,17.351321,3,6,8,12,28,-1025
1503,17.36287,2,6,9,11,28,-1023
1504,17.374524,2,6,9,11,27,-1019
1505,17.386211,3,6,8,11,25,-1023
1506,17.397803,2,6,9,15,25,-1021
1507,17.409391,3,6,9,13,21,-1026
1508,17.421068,2,6,8,12,26,-1023
1509,17.432773,2,5,9,1,27,-1023
1510,17.444423,3,7,9,12,27,-1022
1511,17.456099,2,6,9,10,26,-1018
1512,17.467756,3,6,9,10,28,-1019
1513,17.479405,2,5,9,18,24,-1026
1514,17.491059,3,6,8,12,24,-1024
1515,17.502743,3,6,9,13,25,-1024
1516,17.514406,2,5,9,17,27,-1020
1517,17.525986,3,6,8,13,26,-1019
1518,17.537578,2,6,9,9,22,-1020
1519,17.549137,2,6,9,15,26,-1019
1520,17.56071,2,6,9,14,25,-1023
1521,17.572251,2,6,9,10,24,-1027
1522,17.583796,3,6,9,14,25,-1020
1523,17.595349,2,6,8,12,26,-1022
1524,17.606894,3,6,9,17,28,-1028
1525,17.618456,2,6,9,13,24,-1018
1526,17.630115,2,6,9,9,27,-1020
1527,17.641775,2,6,9,13,25,-1017
1528,17.653435,2,6,9,11,25,-1025
1529,17.665119,2,5,8,17,24,-1023
1530,17.676793,3,6,9,12,26,-1024
1531,17.688444,3,5,9,15,24,-1019
1532,17.70013,2,6,9,16,28,-1025
1533,17.711772,2,6,9,14,26,-1027
1534,17.723436,2,6,9,13,28,-1019
1535,17.735111,3,6,9,13,27,-1020
1536,17.746715,2,6,9,11,20,-1026
1537,17.758267,2,6,9,14,22,-1018
1538,17.769843,2,5,9,11,29,-1024
1539,17.781454,2,5,9,8,28,-1024
1540,17.793051,2,6,9,13,26,-1020
1541,17.804592,3,6,9,9,27,-1025
1542,17.816132,2,6,9,8,28,-1022
1543,17.827686,3,6,9,12,29,-1020
1544,17.83931,2,7,9,14,26,-1027
1545,17.850967,3,6,9,13,24,-1018
1546,17.862649,2,7,8,12,29,-1021
1547,17.874308,2,6,9,15,24,-1020
1548,17.885946,2,6,9,15,30,-1020
1549,17.897615,3,6,8,9,25,-1019
1550,17.9093,3,6,8,14,26,-1022
1551,17.920973,2,6,8,10,25,-1022
1552,17.932662,2,6,9,13,28,-1027
1553,17.94434,2,6,9,12,27,-1024
1554,17.9559,2,6,8,15,28,-1021
1555,17.967452,2,5,8,13,21,-1017
1556,17.979011,2,6,9,17,28,-1019
1557,17.990586,3,6,9,14,22,-1026
1558,18.00214,2,6,8,11,25,-1029
1559,18.013707,2,6,9,15,24,-1028
1560,18.025284,2,6,9,14,26,-1014
1561,18.036848,3,6,9,15,27,-1027
1562,18.048532,2,7,9,16,25,-1019
1563,18.06024,3,6,9,15,27,-1017
1564,18.07189,2,6,9,8,23,-1020
1565,18.083545,2,5,9,11,23,-1022
1566,18.09522,2,6,9,12,24,-1024
1567,18.106907,2,6,9,16,25,-1025
1568,18.118582,2,6,8,12,26,-1025
1569,18.130258,3,6,9,13,27,-1022
1570,18.141957,2,6,9,14,22,-1019
1571,18.153654,2,6,8,14,29,-1029
1572,18.165217,2,6,8,13,29,-1020
1573,18.176811,3,6,9,13,26,-1023
1574,18.188373,2,6,9,15,30,-1021
1575,18.199948,2,6,9,14,27,-1018
1576,18.211503,2,6,9,13,26,-1021
1577,18.223075,3,6,9,15,24,-1021
1578,18.234615,3,6,9,14,28,-1021
1579,18.24617,3,6,8,13,25,-1021
1580,18.257825,2,7,9,14,26,-1020
1581,18.269507,2,6,9,14,28,-1023
1582,18.28118,3,6,10,11,23,-1023
1583,18.292862,2,7,9,10,24,-1025
1584,18.304507,2,7,9,12,25,-1026
1585,18.316163,2,7,8,13,27,-1018
1586,18.327833,3,6,9,15,23,-1023
1587,18.339492,2,6,10,13,27,-1021
1588,18.351185,1,6,9,17,26,-1022
1589,18.362873,2,6,9,7,23,-1019
1590,18.37447,2,6,10,11,20,-1024
1591,18.386112,2,6,9,9,26,-1023
1592,18.397688,3,7,9,13,21,-1022
1593,18.409268,2,6,9,13,26,-1024
1594,18.420834,2,7,9,11,24,-1024
1595,18.432385,2,5,8,14,24,-1019
1596,18.443932,2,6,8,16,24,-1019
1597,18.455496,2,6,9,15,25,-1023
1598,18.467166,2,6,9,15,25,-1024
1599,18.478888,1,7,9,14,26,-1022
1600,18.490553,2,6,9,14,29,-1024
1601,18.502239,2,6,9,13,25,-1022
1602,18.513924,2,6,9,14,23,-1026
1603,18.525588,2,6,9,11,24,-1025
1604,18.537281,3,5,9,12,24,-1019
1605,18.548921,3,6,8,14,23,-1023
1606,18.560579,3,6,9,15,21,-1029
1607,18.572251,2,6,9,11,23,-1018
1608,18.583817,2,6,9,13,25,-1028
1609,18.595368,2,6,9,12,24,-1021
1610,18.606924,2,6,9,13,23,-1019
1611,18.618474,2,6,9,15,24,-1026
1612,18.633024,2,6,9,13,24,-1021
1613,18.64595,0,8,5,13,27,-1018
1614,18.661878,4,3,12,12,26,-1022
1615,18.677602,2,6,9,12,23,-1026
1616,18.689208,2,6,10,15,23,-1023
1617,18.700712,2,5,9,10,27,-1022
1618,18.712136,3,5,9,11,27,-1021
1619,18.723558,2,6,9,7,25,-1020
1620,18.734963,2,6,9,15,25,-1021
1621,18.746374,2,6,9,12,26,-1025
1622,18.757778,2,5,9,14,28,-1028
1623,18.769269,2,6,9,15,24,-1021
1624,18.780781,2,6,10,14,27,-1018
1625,18.792258,3,6,9,8,23,-1029
1626,18.803722,2,5,9,10,22,-1023
1627,18.81519,2,6,9,12,23,-1018
1628,18.826663,3,6,10,13,27,-1024
1629,18.838132,2,6,8,13,28,-1021
1630,18.849616,3,6,9,8,26,-1020
1631,18.861104,3,7,9,13,23,-1023
1632,18.872644,3,6,8,11,24,-1020
1633,18.884295,2,6,8,11,24,-1018
1634,18.89596,2,6,9,12,27,-1023
1635,18.907631,2,6,9,12,23,-1031
1636,18.919289,2,6,8,14,27,-1024
1637,18.930944,2,5,9,11,26,-1027
1638,18.942575,2,6,9,15,26,-1024
1639,18.954242,2,6,9,13,25,-1023
1640,18.965948,2,6,9,14,23,-1018
1641,18.977618,3,6,9,16,25,-1021
1642,18.989289,2,6,9,13,26,-1016
1643,19.00097,3,6,9,10,23,-1022
1644,19.012653,2,6,8,15,26,-1025
1645,19.024327,2,5,9,15,23,-1023
1646,19.035988,2,6,9,13,29,-1019
1647,19.047644,2,6,9,12,24,-1030
1648,19.059294,3,6,9,10,28,-1021
1649,19.070964,2,6,9,13,25,-1023
1650,19.082616,2,6,9,13,26,-1018
1651,19.094191,2,7,9,10,24,-1020
1652,19.105746,2,6,9,14,26,-1021
1653,19.117298,2,6,9,10,25,-1021
1654,19.12887,2,6,9,14,24,-1017
1655,19.140415,3,6,9,14,25,-1020
1656,19.15196,2,6,9,11,24,-1022
1657,19.163538,2,6,10,14,27,-1026
1658,19.175103,2,6,9,14,24,-1022
1659,19.186767,3,6,9,14,24,-1025
1660,19.198608,3,6,9,11,30,-1028
1661,19.210271,3,6,9,16,26,-1021
1662,19.221968,2,7,9,11,27,-1027
1663,19.23367,2,7,9,15,26,-1023
1664,19.245349,2,6,8,11,24,-1026
1665,19.257059,2,6,9,13,27,-1025
1666,19.268733,3,6,9,14,27,-1029
1667,19.280405,3,5,9,12,23,-1023
1668,19.292055,3,6,9,14,27,-1019
1669,19.303707,2,6,9,10,24,-1020
1670,19.315372,3,6,9,11,27,-1023
1671,19.327018,2,6,10,14,25,-1023
1672,19.338664,2,6,10,13,22,-1022
1673,19.350329,2,6,9,14,24,-1023
1674,19.362007,2,6,9,15,24,-1019
1675,19.37368,2,5,9,8,25,-1021
1676,19.385433,2,6,9,13,27,-1018
1677,19.397104,2,6,9,14,25,-1021
1678,19.40865,1,6,9,12,22,-1023
1679,19.420205,2,7,9,17,26,-1017
1680,19.431784,3,6,10,13,27,-1020
1681,19.443335,2,6,9,13,26,-1020
1682,19.454879,2,6,9,8,22,-1022
1683,19.466427,2,6,9,10,22,-1018
1684,19.477986,3,6,9,12,29,-1028
1685,19.489572,3,6,9,13,26,-1023
1686,19.501267,2,6,11,10,24,-1022
1687,19.512923,3,5,9,12,27,-1018
1688,19.524589,3,6,9,13,27,-1022
1689,19.53624,2,6,9,13,26,-1022
1690,19.547894,2,6,9,9,27,-1019
1691,19.559538,2,6,9,14,28,-1025
1692,19.571183,2,5,9,14,20,-1020
1693,19.582854,2,6,9,14,28,-1025
1694,19.594511,2,6,9,13,28,-1025
1695,19.606233,3,6,9,14,26,-1024
1696,19.617817,2,6,9,12,30,-1020
1697,19.629401,2,6,9,13,27,-1027
1698,19.640964,2,7,9,16,25,-1020
1699,19.652514,2,6,9,13,27,-1027
1700,19.664077,2,6,10,13,25,-1022
1701,19.675674,2,6,9,12,30,-1022
1702,19.687231,2,6,9,11,23,-1028
1703,19.698801,3,6,10,13,24,-1025
1704,19.710479,1,6,9,13,25,-1017
1705,19.722136,2,6,8,11,23,-1025
1706,19.733831,2,5,8,17,22,-1031
1707,19.745504,2,5,8,15,24,-1016
1708,19.757199,3,6,10,13,19,-1012
1709,19.768894,2,5,9,13,24,-1022
1710,19.780552,3,6,9,13,25,-1024
1711,19.792229,3,6,9,13,26,-1025
1712,19.803872,3,6,9,9,24,-1029
1713,19.815447,3,6,9,16,26,-1016
1714,19.827004,2,5,9,13,22,-1025
1715,19.838566,2,5,9,16,29,-1023
1716,19.850132,2,6,9,14,24,-1022
1717,19.861689,2,6,9,14,27,-1019
1718,19.873257,2,6,9,16,25,-1026
1719,19.884816,3,6,9,13,23,-1021
1720,19.896389,2,6,10,15,27,-1020
1721,19.907955,2,6,9,14,28,-1021
1722,19.919607,3,6,9,11,27,-1021
1723,19.931272,2,7,9,13,27,-1021
1724,19.942925,2,6,9,12,25,-1024
1725,19.954604,2,5,9,13,27,-1019
1726,19.966256,2,6,9,13,26,-1020
1727,19.978063,3,5,8,16,24,-1022
1728,19.990213,2,6,8,14,27,-1024
1729,20.003042,3,6,9,13,27,-1025
1730,20.014853,3,7,8,12,29,-1023
1731,20.026396,3,6,9,9,22,-1029
1732,20.037896,2,6,8,17,26,-1014
1733,20.049292,2,6,9,10,24,-1022
1734,20.060699,2,6,9,12,24,-1020
1735,20.072105,2,6,9,12,28,-1026
1736,20.083501,2,6,9,12,24,-1024
1737,20.094904,3,7,8,12,23,-1026
1738,20.10631,2,6,9,14,27,-1016
1739,20.117797,2,6,10,11,23,-1020
1740,20.129341,3,5,9,13,24,-1022
1741,20.140898,2,6,9,14,23,-1019
1742,20.152455,2,6,10,12,23,-1017
1743,20.164007,2,7,9,13,26,-1022
1744,20.175563,2,7,9,11,24,-1019
1745,20.187166,2,6,8,11,24,-1017
1746,20.19872,2,6,9,12,27,-1025
1747,20.210305,2,6,9,10,22,-1022
1748,20.222002,2,6,9,12,23,-1018
1749,20.233693,2,6,9,12,27,-1026
1750,20.245379,3,5,8,13,27,-1020
1751,20.257067,3,7,9,11,27,-1023
1752,20.268744,3,7,9,15,27,-1018
1753,20.280395,2,5,9,12,23,-1020
1754,20.292061,3,5,10,11,25,-1017
1755,20.303743,2,5,9,9,27,-1023
1756,20.315389,2,7,9,12,24,-1016
1757,20.327062,2,6,9,13,26,-1020
1758,20.338774,2,7,9,9,27,-1019
1759,20.350327,2,5,9,16,26,-1020
1760,20.361856,2,6,8,12,24,-1018
1761,20.37343,3,7,8,10,26,-1020
1762,20.385013,3,7,10,16,29,-1018
1763,20.396565,2,6,9,15,24,-1023
1764,20.408151,2,5,8,8,27,-1023
1765,20.419704,2,6,9,14,26,-1023
1766,20.431307,2,6,9,14,25,-1021
1767,20.442955,2,5,10,11,26,-1019
1768,20.454699,2,6,9,14,28,-1016
1769,20.466363,3,6,8,13,23,-1018
1770,20.478023,3,6,9,14,28,-1021
1771,20.489713,3,5,9,11,26,-1019
1772,20.50136,3,6,9,11,29,-1026
1773,20.513048,2,6,9,12,30,-1021
1774,20.524735,2,5,9,11,28,-1027
1775,20.5364,2,6,9,11,22,-1025
1776,20.548108,2,6,9,14,26,-1023
1777,20.559679,2,7,9,14,20,-1024
1778,20.571224,2,5,9,13,26,-1017
1779,20.582783,2,6,9,9,27,-1019
1780,20.594333,1,6,9,13,24,-1018
1781,20.605857,2,6,9,11,23,-1021
1782,20.617374,3,7,9,12,23,-1026
1783,20.628882,3,5,10,13,27,-1021
1784,20.640446,2,6,9,13,27,-1023
1785,20.652097,2,6,9,14,25,-1027
1786,20.663748,3,6,9,12,23,-1019
1787,20.675402,3,6,9,12,27,-1025
1788,20.687043,3,6,9,14,29,-1016
1789,20.69871,3,6,9,13,27,-1020
1790,20.71037,1,6,9,15,25,-1022
1791,20.722014,1,6,9,8,24,-1026
1792,20.733736,3,5,9,10,27,-1014
1793,20.745493,2,6,8,12,26,-1012
1794,20.757172,3,6,9,7,25,-1021
1795,20.768853,2,6,9,13,31,-1015
1796,20.7805,3,5,9,12,24,-1021
1797,20.792155,2,6,8,16,27,-1018
1798,20.803837,3,7,9,14,28,-1029
1799,20.815483,2,6,9,10,24,-1025
1800,20.827136,2,6,8,13,24,-1028
1801,20.838829,2,6,9,14,24,-1020
1802,20.850489,2,6,9,13,26,-1019
1803,20.862153,2,6,9,12,25,-1022
1804,20.873739,2,6,8,16,27,-1026
1805,20.885306,2,7,8,14,27,-1026
1806,20.896879,3,6,8,12,26,-1024
1807,20.908439,2,6,8,11,25,-1023
1808,20.919989,2,6,9,15,29,-1023
1809,20.93154,3,6,9,8,24,-1031
1810,20.943096,2,6,10,12,27,-1018
1811,20.954695,2,6,9,13,28,-1016
1812,20.966383,3,6,9,11,25,-1028
1813,20.978095,1,6,9,8,26,-1019
1814,20.98976,2,6,8,13,29,-1020
1815,21.001415,2,7,9,14,24,-1022
1816,21.013105,2,6,9,13,22,-1018
1817,21.024786,2,6,9,13,23,-1029
1818,21.036438,2,5,9,14,23,-1025
1819,21.048097,2,6,9,10,26,-1022
1820,21.059765,2,6,8,11,26,-1019
1821,21.071419,2,7,9,13,23,-1023
1822,21.082973,2,6,9,14,27,-1024
1823,21.094561,3,6,9,13,25,-1016
1824,21.106131,3,6,10,13,27,-1023
1825,21.117685,3,6,8,7,25,-1018
1826,21.129271,3,6,9,15,25,-1027
1827,21.140825,3,6,9,12,24,-1028
1828,21.15241,3,6,9,14,22,-1017
1829,21.163965,2,7,9,11,26,-1019
1830,21.175593,3,6,10,13,28,-1025
1831,21.187242,2,6,9,8,30,-1022
1832,21.198895,3,6,9,14,22,-1021
1833,21.210571,2,6,8,9,26,-1025
1834,21.222225,3,6,9,11,28,-1025
1835,21.233887,2,6,8,13,25,-1013
1836,21.245653,2,6,9,12,25,-1019
1837,21.25734,3,7,9,14,21,-1018
1838,21.269012,2,6,9,14,27,-1026
1839,21.280719,2,6,9,11,22,-1023
1840,21.292367,2,5,9,15,28,-1023
1841,21.304019,2,5,9,12,26,-1028
1842,21.3157,2,6,9,12,25,-1020
1843,21.327358,3,6,9,12,23,-1024
1844,21.339044,3,6,10,10,25,-1019
1845,21.350726,2,6,9,14,25,-1021
1846,21.362372,2,6,8,15,22,-1028
1847,21.374106,2,6,8,15,25,-1022
1848,21.385766,2,6,9,14,26,-1020
1849,21.397361,3,7,9,8,26,-1020
1850,21.408894,3,6,9,11,23,-1023
1851,21.420442,2,6,9,17,25,-1022
1852,21.431987,2,6,8,14,23,-1024
1853,21.443532,2,6,9,10,30,-1024
1854,21.455076,3,6,10,13,24,-1021
1855,21.466622,2,7,9,11,28,-1020
1856,21.478206,2,6,9,14,22,-1020
1857,21.489848,2,6,9,13,26,-1023
1858,21.501501,1,7,8,12,23,-1027
1859,21.51317,2,6,9,15,28,-1020
1860,21.524848,3,5,10,15,28,-1021
1861,21.536492,2,7,9,18,23,-1017
1862,21.548141,3,6,9,9,24,-1021
1863,21.559813,2,6,9,14,24,-1021
1864,21.571471,2,6,9,15,25,-1031
1865,21.583135,2,6,9,13,21,-1020
1866,21.594814,3,6,8,12,26,-1021
1867,21.606362,3,6,9,14,28,-1022
1868,21.617922,3,6,9,11,23,-1020
1869,21.629499,3,6,9,12,27,-1018
1870,21.641058,2,6,9,10,28,-1026
1871,21.652659,2,6,9,12,23,-1011
1872,21.664215,2,6,9,17,28,-1020
1873,21.675786,2,6,9,13,24,-1021
1874,21.687342,3,5,8,12,24,-1025
1875,21.698971,2,6,9,11,22,-1018
1876,21.710618,2,6,9,13,23,-1022
1877,21.722275,2,6,9,8,24,-1023
1878,21.733969,2,6,9,11,28,-1018
1879,21.745617,2,6,9,17,26,-1025
1880,21.757322,2,5,8,14,29,-1021
1881,21.768984,2,6,9,11,29,-1019
1882,21.780668,3,5,8,16,28,-1022
1883,21.792334,2,6,9,12,20,-1026
1884,21.803917,3,6,8,14,28,-1027
1885,21.815471,3,6,9,10,25,-1024
1886,21.827076,2,7,9,8,27,-1017
1887,21.838613,2,6,9,14,26,-1024
1888,21.850179,3,6,8,14,29,-1028
1889,21.861734,3,6,9,14,26,-1029
1890,21.873291,3,6,9,14,22,-1024
1891,21.884889,2,6,9,12,28,-1024
1892,21.896452,2,6,10,13,24,-1014
1893,21.908094,3,6,9,13,26,-1020
1894,21.919761,2,5,9,11,24,-1024
1895,21.931411,3,6,9,15,25,-1020
1896,21.943094,3,6,9,11,27,-1018
1897,21.954761,3,6,9,9,27,-1031
1898,21.966419,2,6,9,11,29,-1021
1899,21.978096,2,6,9,16,27,-1019
1900,21.989773,2,6,9,11,25,-1025
1901,22.001453,2,7,9,13,22,-1019
1902,22.013156,2,6,10,16,28,-1016
1903,22.024713,3,6,10,16,27,-1020
1904,22.036272,2,6,9,9,27,-1019
1905,22.047818,2,5,9,11,20,-1023
1906,22.05937,3,5,9,12,23,-1023
1907,22.070911,2,6,9,10,27,-1020
1908,22.08246,2,5,9,12,26,-1024
1909,22.094036,2,7,9,14,24,-1021
1910,22.105623,2,6,9,12,21,-1017
1911,22.117244,2,6,9,13,28,-1022
1912,22.128931,3,5,9,11,25,-1026
1913,22.140589,3,6,9,11,26,-1017
1914,22.152236,2,6,9,11,23,-1020
1915,22.163889,2,7,8,11,27,-1023
1916,22.175529,2,6,9,9,25,-1020
1917,22.187175,2,7,9,12,24,-1023
1918,22.19884,2,6,9,13,27,-1019
1919,22.210497,2,6,9,16,25,-1020
1920,22.222232,2,6,9,14,25,-1021
1921,22.233795,3,6,9,14,24,-1027
1922,22.245367,3,5,8,10,21,-1018
1923,22.256894,3,6,9,16,24,-1026
1924,22.268454,2,6,9,10,27,-1025
1925,22.280036,2,6,8,13,24,-1024
1926,22.291587,2,6,9,10,26,-1024
1927,22.303156,3,6,8,10,24,-1027
1928,22.314729,2,6,9,12,27,-1029
1929,22.326354,3,6,10,15,26,-1025
1930,22.33801,3,6,9,14,26,-1020
1931,22.349678,3,6,9,15,27,-1019
1932,22.361354,3,5,9,8,26,-1022
1933,22.373033,3,6,9,14,30,-1017
1934,22.384661,2,5,9,12,24,-1018
1935,22.396333,3,6,8,10,26,-1027
1936,22.407981,2,6,9,10,24,-1017
1937,22.419642,3,6,9,14,24,-1019
1938,22.431323,3,7,9,11,25,-1019
1939,22.442897,2,7,8,10,23,-1023
1940,22.454453,2,7,9,14,34,-1026
1941,22.466012,2,5,9,16,25,-1025
1942,22.477599,3,6,9,11,30,-1021
1943,22.489152,3,6,8,10,24,-1019
1944,22.500716,3,6,9,14,30,-1021
1945,22.512289,2,7,9,14,24,-1021
1946,22.523869,2,6,9,10,26,-1023
1947,22.535495,2,6,9,13,26,-1025
1948,22.547176,2,6,9,14,24,-1023
1949,22.558831,2,6,9,10,25,-1021
1950,22.570487,2,6,9,14,24,-1018
1951,22.58214,2,6,8,12,27,-1019
1952,22.593848,2,5,9,14,26,-1018
1953,22.60551,3,6,9,12,29,-1022
1954,22.617187,2,6,9,11,26,-1023
1955,22.628853,1,7,9,13,20,-1017
1956,22.640501,1,6,10,9,24,-1019
1957,22.652059,2,6,9,11,24,-1026
1958,22.663605,1,6,9,13,25,-1034
1959,22.675151,2,6,9,14,26,-1019
1960,22.686702,2,6,9,16,27,-1021
1961,22.698275,3,6,9,15,23,-1025
1962,22.709853,2,6,9,8,30,-1019
1963,22.721392,3,5,9,15,27,-1021
1964,22.73295,2,6,9,16,28,-1022
1965,22.744577,2,5,9,11,25,-1018
1966,22.756237,2,6,9,13,28,-1019
1967,22.767902,2,5,9,13,24,-1021
1968,22.779566,3,6,9,12,29,-1015
1969,22.791233,2,7,9,11,25,-1018
1970,22.802878,2,6,9,12,25,-1024
1971,22.814586,2,6,9,16,24,-1021
1972,22.826253,3,7,9,16,25,-1021
1973,22.837938,3,6,9,12,31,-1026
1974,22.849533,3,6,9,13,24,-1021
1975,22.861075,3,7,9,13,23,-1020
1976,22.872639,2,6,9,12,26,-1024
1977,22.884187,2,6,9,11,27,-1022
1978,22.895731,2,6,9,15,23,-1025
1979,22.907279,2,7,9,11,28,-1024
1980,22.918836,3,6,9,14,26,-1025
1981,22.930419,3,5,8,12,25,-1017
1982,22.942011,2,7,9,17,26,-1024
1983,22.95363,2,7,9,10,25,-1020
1984,22.965336,2,6,9,14,26,-1019
1985,22.976999,2,6,9,16,21,-1024
1986,22.988669,2,6,8,11,27,-1018
1987,23.000331,2,5,9,8,24,-1015
1988,23.011987,2,6,8,12,26,-1021
1989,23.023654,2,6,9,10,25,-1024
1990,23.035333,3,5,9,13,26,-1014
1991,23.047001,2,6,8,12,27,-1021
1992,23.058657,2,5,9,14,29,-1018
1993,23.070249,2,6,9,15,26,-1021
1994,23.081805,2,6,8,15,25,-1019
1995,23.09339,2,6,9,15,24,-1027
1996,23.10494,3,6,9,11,22,-1021
1997,23.116485,2,6,8,13,28,-1027
1998,23.128038,2,6,9,11,28,-1018
1999,23.13958,2,6,9,13,25,-1020
