sample,t_s,gyro_x,gyro_y,gyro_z,accel_x,accel_y,accel_z
0,1.3e-05,0,0,0,-1,0,-1026
1,0.011242,1,-1,0,-4,2,-1025
2,0.022468,1,0,0,-4,-1,-1028
3,0.033668,0,0,1,-1,3,-1025
4,0.044854,0,0,0,-2,5,-1023
5,0.056037,0,0,1,-1,-1,-1023
6,0.067224,0,-1,0,-3,0,-1021
7,0.078406,1,-1,1,2,-1,-1022
8,0.089595,0,0,0,0,1,-1017
9,0.100783,0,-1,1,-1,-3,-1022
10,0.111967,0,-1,-1,-1,1,-1028
11,0.123156,0,-1,0,-2,0,-1021
12,0.134338,-1,-1,1,-4,0,-1027
13,0.145531,0,-1,0,4,6,-1022
14,0.156719,1,-1,0,-1,2,-1027
15,0.167906,0,0,0,1,-1,-1024
16,0.179101,0,0,0,-2,-1,-1021
17,0.190287,1,0,0,3,5,-1029
18,0.201482,0,1,0,-5,-1,-1021
19,0.212673,0,1,0,-1,2,-1025
20,0.223856,0,0,0,4,3,-1024
21,0.235042,0,-1,0,4,0,-1025
22,0.246232,0,0,0,-2,1,-1028
23,0.257412,-1,0,0,1,1,-1033
24,0.268606,-1,-1,0,1,1,-1027
25,0.279793,0,-1,0,0,1,-1024
26,0.290977,-1,-2,0,2,0,-1021
27,0.302153,0,0,1,-1,3,-1023
28,0.313347,0,0,0,5,1,-1022
29,0.324531,0,-1,-1,0,-5,-1024
30,0.335719,-1,-2,0,-2,3,-1022
31,0.346904,0,-2,1,-1,0,-1030
32,0.358092,0,-2,0,0,2,-1020
33,0.369283,0,-1,0,6,1,-1025
34,0.380467,0,-1,0,-3,-2,-1021
35,0.391655,0,-1,0,-1,2,-1017
36,0.402837,0,-2,0,-3,-1,-1024
37,0.414028,0,-2,0,-4,3,-1023
38,0.425228,0,-1,0,-1,0,-1023
39,0.436412,1,1,0,4,1,-1025
40,0.447597,0,2,0,-3,0,-1027
41,0.458784,1,1,0,3,2,-1018
42,0.469975,1,-1,0,0,3,-1022
43,0.48116,0,0,0,0,0,-1025
44,0.492346,1,2,-1,3,6,-1032
45,0.503537,0,1,0,-2,2,-1024
46,0.514722,1,0,1,0,1,-1023
47,0.525912,0,0,0,-4,1,-1024
48,0.537099,0,0,0,2,3,-1024
49,0.548286,0,-1,1,1,-1,-1032
50,0.559466,0,0,0,-4,0,-1026
51,0.570651,0,1,0,2,4,-1029
52,0.581875,1,-1,0,-5,0,-1022
53,0.593166,0,0,0,0,-2,-1025
54,0.604362,0,-1,0,-1,1,-1021
55,0.615551,0,-1,0,2,2,-1028
56,0.626739,0,-1,0,0,3,-1025
57,0.637925,-1,-1,0,1,-1,-1011
58,0.649111,0,-1,0,0,1,-1019
59,0.660295,0,-2,-1,-4,3,-1026
60,0.671481,0,-1,-1,-2,3,-1021
61,0.682664,0,-1,0,5,1,-1023
62,0.69385,0,-1,0,0,-1,-1021
63,0.705037,0,-2,-1,1,-3,-1022
64,0.71622,0,-1,1,-6,1,-1025
65,0.727408,0,-1,0,1,2,-1024
66,0.738593,0,0,0,0,4,-1025
67,0.749779,0,0,1,2,0,-1017
68,0.760964,0,-2,0,-7,2,-1029
69,0.772152,0,-1,-1,-1,-1,-1023
70,0.783344,1,-1,0,-4,2,-1027
71,0.794537,1,-1,-1,-3,0,-1025
72,0.805727,1,0,0,1,3,-1026
73,0.816913,1,1,0,0,1,-1023
74,0.828097,1,1,-1,-4,3,-1021
75,0.839282,0,0,0,-4,3,-1026
76,0.850467,0,1,0,-4,2,-1025
77,0.861665,0,0,0,1,3,-1025
78,0.872848,0,1,0,1,-1,-1025
79,0.884032,0,0,0,-4,-3,-1019
80,0.89522,0,1,0,1,4,-1027
81,0.906403,0,0,0,0,1,-1030
82,0.917601,0,0,0,0,-4,-1029
83,0.928792,1,-1,-1,2,-2,-1027
84,0.939975,1,0,-1,-1,1,-1024
85,0.951161,0,0,-1,-3,-1,-1026
86,0.962345,1,-1,-1,-2,2,-1025
87,0.973536,0,-1,0,2,2,-1026
88,0.984722,0,-2,-1,-4,4,-1027
89,0.995909,0,0,-1,-2,0,-1025
90,1.007092,0,-1,0,1,2,-1028
91,1.01831,0,-1,0,-2,-1,-1022
92,1.0295,0,-1,0,1,-1,-1029
93,1.04069,0,-2,0,1,0,-1026
94,1.051885,1,0,0,-3,1,-1030
95,1.063071,1,0,-1,-1,4,-1031
96,1.074269,0,1,1,-1,4,-1026
97,1.085465,0,0,1,-1,0,-1024
98,1.096652,0,-1,0,0,-2,-1024
99,1.107836,0,-1,0,-1,0,-1020
100,1.119026,0,-1,-1,1,-1,-1022
101,1.130212,0,-3,-1,1,2,-1029
102,1.14141,0,-1,-1,2,1,-1021
103,1.152593,1,0,0,0,-1,-1027
104,1.163775,1,-1,0,-1,-1,-1024
105,1.174961,0,0,0,-3,3,-1021
106,1.186153,0,1,-2,1,0,-1026
107,1.197347,1,0,0,2,0,-1027
108,1.208531,0,0,0,-2,1,-1027
109,1.219721,1,1,0,-3,2,-1018
110,1.230908,0,0,0,0,2,-1021
111,1.242096,0,0,0,-5,-5,-1014
112,1.253286,0,0,0,-1,0,-1022
113,1.264467,0,0,1,4,1,-1023
114,1.275651,0,0,0,0,0,-1027
115,1.286835,0,0,0,3,2,-1032
116,1.298022,1,1,0,-3,2,-1025
117,1.309224,0,1,0,-3,3,-1025
118,1.320408,1,0,0,0,-1,-1023
119,1.331591,0,0,0,4,2,-1025
120,1.342782,0,-1,0,-2,0,-1026
121,1.353968,0,-2,-1,0,1,-1030
122,1.365157,1,-1,-1,-1,2,-1020
123,1.376343,0,0,0,-4,3,-1023
124,1.387528,1,0,-1,-3,0,-1017
125,1.398716,0,-1,-1,3,3,-1028
126,1.409905,0,0,0,2,2,-1024
127,1.421088,1,1,-1,-2,4,-1017
128,1.432274,0,0,0,1,2,-1032
129,1.44346,1,0,0,0,-1,-1018
130,1.454645,0,1,0,-3,2,-1027
131,1.465833,0,1,-1,2,1,-1027
132,1.477021,0,1,0,-3,1,-1027
133,1.488206,1,-1,0,1,3,-1026
134,1.499391,0,0,-1,0,3,-1028
135,1.510576,1,1,-1,-2,-4,-1028
136,1.521781,0,1,-1,-2,3,-1022
137,1.532971,1,-1,0,1,-4,-1024
138,1.544156,0,-1,0,-1,1,-1024
139,1.55534,0,-1,1,-1,-2,-1023
140,1.566523,0,-1,1,2,1,-1024
141,1.577714,1,-1,0,1,-4,-1026
142,1.588906,0,-1,0,1,0,-1022
143,1.600087,0,-1,0,-2,-2,-1024
144,1.611273,0,0,0,0,3,-1026
145,1.622459,-1,-1,1,-2,-2,-1025
146,1.633653,0,-1,0,-3,1,-1025
147,1.64484,0,0,0,0,-2,-1025
148,1.656022,1,-1,0,-2,1,-1026
149,1.667214,0,0,0,-2,1,-1029
150,1.678414,1,0,0,3,-1,-1023
151,1.689682,1,0,1,-2,-3,-1031
152,1.70088,0,1,0,-3,2,-1021
153,1.712071,1,0,0,-1,-1,-1024
154,1.723269,1,2,0,-7,-2,-1019
155,1.734455,0,1,0,-2,1,-1027
156,1.745648,0,0,1,3,1,-1026
157,1.756832,0,0,1,-1,1,-1020
158,1.768017,0,-1,0,-2,0,-1022
159,1.779202,0,-1,0,-2,2,-1025
160,1.790385,0,0,0,3,2,-1027
161,1.801591,0,0,1,2,4,-1024
162,1.812782,0,0,1,0,2,-1027
163,1.823967,1,2,0,0,1,-1022
164,1.835156,1,2,1,-1,0,-1021
165,1.846338,1,1,-1,-1,3,-1021
166,1.857531,1,1,0,-1,1,-1026
167,1.868715,0,1,0,0,-4,-1027
168,1.879901,0,1,-1,3,1,-1022
169,1.891111,0,1,0,-5,4,-1029
170,1.902298,0,0,0,1,2,-1021
171,1.913483,0,0,0,-4,-1,-1023
172,1.924665,1,-1,0,1,1,-1030
173,1.935848,1,-2,0,-2,-2,-1020
174,1.947032,0,-1,0,0,2,-1021
175,1.958217,0,-1,0,0,3,-1026
176,1.969412,0,0,-1,-2,0,-1024
177,1.980599,0,0,-1,0,2,-1022
178,1.991781,0,0,-1,-4,5,-1023
179,2.002967,0,-1,-1,1,0,-1023
180,2.014154,1,0,-1,0,-1,-1025
181,2.025345,1,-1,0,-2,0,-1025
182,2.036533,1,1,0,6,4,-1023
183,2.047734,0,0,1,0,4,-1019
184,2.058923,0,-1,1,0,-1,-1028
185,2.070165,0,-1,0,0,-1,-1026
186,2.08136,0,1,0,3,1,-1024
187,2.092545,0,1,0,1,2,-1019
188,2.103728,1,1,0,-1,3,-1021
189,2.11491,1,1,-1,-2,1,-1025
190,2.126096,1,1,-1,1,2,-1022
191,2.137283,0,2,0,0,1,-1025
192,2.148465,1,2,-1,-2,-2,-1023
193,2.159648,1,2,-1,0,1,-1027
194,2.170835,0,1,-1,-1,1,-1026
195,2.182021,1,1,-1,0,-1,-1025
196,2.193225,1,1,-1,0,3,-1025
197,2.204409,0,-1,1,1,3,-1023
198,2.215593,0,-1,1,-1,2,-1025
199,2.226775,0,0,0,-2,-3,-1027
200,2.237986,0,0,0,-5,-2,-1030
201,2.249173,0,1,-1,-2,-4,-1030
202,2.260355,0,0,-1,0,0,-1025
203,2.271537,0,-1,0,-2,0,-1026
204,2.282718,0,0,-1,0,-3,-1024
205,2.293902,1,-1,0,-1,-1,-1023
206,2.305084,1,-1,0,2,-1,-1031
207,2.316267,1,0,0,-5,3,-1026
208,2.327454,0,0,0,1,1,-1023
209,2.338639,0,0,0,5,-1,-1027
210,2.349781,0,0,0,-1,1,-1029
211,2.360965,1,1,0,2,1,-1026
212,2.372148,1,0,1,0,2,-1021
213,2.383333,0,0,1,0,-1,-1016
214,2.394516,1,1,0,1,4,-1021
215,2.405707,1,1,1,-4,-2,-1023
216,2.416899,1,1,-1,-2,-2,-1029
217,2.428082,0,0,0,1,1,-1029
218,2.439271,0,-1,1,2,-2,-1030
219,2.450454,0,0,0,0,1,-1027
220,2.461645,0,0,0,-1,0,-1028
221,2.472829,0,0,0,2,3,-1026
222,2.484013,0,0,0,-2,0,-1023
223,2.495207,0,0,0,-2,3,-1026
224,2.506392,0,0,0,2,-3,-1024
225,2.517601,0,0,0,0,1,-1024
226,2.528786,1,2,0,1,4,-1026
227,2.53997,1,2,0,0,-5,-1022
228,2.551159,1,1,1,1,0,-1026
229,2.562343,0,1,1,-3,1,-1025
230,2.57353,0,1,0,0,0,-1023
231,2.584715,0,2,0,-1,3,-1030
232,2.595915,0,2,1,-2,1,-1018
233,2.607104,0,0,-1,0,0,-1020
234,2.61829,0,-2,0,1,1,-1025
235,2.629474,0,-2,-1,-1,5,-1022
236,2.640661,0,-2,0,3,2,-1025
237,2.651844,0,-2,0,-4,3,-1022
238,2.663028,0,0,0,2,4,-1020
239,2.674214,0,-2,0,2,-1,-1025
240,2.685413,0,-1,0,0,0,-1027
241,2.696599,0,-1,-1,1,-2,-1029
242,2.707782,1,0,0,2,1,-1029
243,2.718968,0,0,-1,-3,-1,-1024
244,2.730153,1,0,0,-4,3,-1021
245,2.741345,0,-1,-1,0,0,-1025
246,2.75253,0,0,0,1,4,-1024
247,2.763714,0,0,-1,-2,2,-1019
248,2.774897,0,0,0,2,-1,-1025
249,2.786084,0,-1,0,1,-1,-1025
250,2.797227,0,-1,-1,1,0,-1031
251,2.808412,0,-1,-1,-2,2,-1029
252,2.819596,1,0,0,3,-2,-1023
253,2.830779,0,-1,-1,-2,-3,-1023
254,2.841963,0,-1,0,-2,-3,-1025
255,2.853147,0,-1,1,-2,2,-1026
256,2.864332,1,0,0,-3,-1,-1022
257,2.875516,1,0,0,-1,-4,-1020
258,2.886702,0,1,1,-2,2,-1023
259,2.897891,0,-1,1,1,0,-1019
260,2.909075,0,0,0,0,0,-1026
261,2.920262,0,1,-1,1,1,-1024
262,2.931458,0,0,-1,1,4,-1033
263,2.942641,0,-1,-1,3,-1,-1027
264,2.953839,-1,-2,-1,2,2,-1026
265,2.965023,0,-1,-2,3,1,-1031
266,2.976207,0,0,-1,-2,1,-1022
267,2.98739,1,-1,0,2,4,-1027
268,2.998576,1,0,-1,-1,-1,-1023
269,3.009775,0,1,0,-2,2,-1033
270,3.020958,1,2,0,-4,2,-1026
271,3.03214,0,0,-1,-1,0,-1030
272,3.043324,0,1,-2,-2,0,-1020
273,3.054511,0,0,-1,-1,-4,-1030
274,3.065704,0,1,-1,2,2,-1023
275,3.076886,0,0,0,-2,3,-1025
276,3.088075,0,0,0,-6,-2,-1025
277,3.099267,0,0,-1,1,-1,-1019
278,3.110453,-1,0,0,3,0,-1028
279,3.121599,0,0,0,-4,-3,-1026
280,3.132783,0,0,0,-2,0,-1026
281,3.14397,1,0,0,-6,2,-1025
282,3.155155,1,0,1,-2,4,-1025
283,3.166341,0,1,0,0,0,-1024
284,3.177532,0,0,0,3,-1,-1023
285,3.188716,0,0,0,3,0,-1025
286,3.199899,0,0,-1,-1,0,-1024
287,3.211085,0,2,0,-1,1,-1022
288,3.222271,0,1,1,1,1,-1025
289,3.233458,1,1,0,-1,-1,-1029
290,3.244642,1,0,0,0,2,-1025
291,3.255825,0,0,0,2,-2,-1020
292,3.267011,0,2,0,-1,0,-1025
293,3.278195,0,2,1,-2,1,-1030
294,3.289382,1,2,0,1,2,-1021
295,3.300563,1,1,0,-1,3,-1028
296,3.311776,1,0,-1,-2,1,-1025
297,3.323035,1,0,0,-1,-1,-1025
298,3.334233,0,1,0,-2,-2,-1022
299,3.345412,0,0,0,-5,0,-1026
300,3.356593,1,0,0,-1,0,-1029
301,3.367775,0,-1,0,2,0,-1026
302,3.378959,0,-1,0,2,1,-1025
303,3.390171,0,-1,1,0,1,-1032
304,3.401358,1,0,0,-3,-2,-1024
305,3.412539,0,0,0,-2,0,-1021
306,3.423725,1,1,0,0,0,-1031
307,3.434908,1,1,0,0,3,-1024
308,3.446094,1,1,0,-1,-2,-1020
309,3.457283,0,0,0,-3,2,-1027
310,3.468466,0,0,0,-2,2,-1027
311,3.479649,0,1,0,0,-2,-1024
312,3.490831,0,0,0,0,2,-1028
313,3.502018,0,0,0,-4,1,-1025
314,3.513201,0,1,0,-4,1,-1032
315,3.524385,0,0,-1,1,0,-1023
316,3.535569,0,0,0,-3,0,-1025
317,3.546755,0,0,-1,0,3,-1025
318,3.557942,0,0,-1,2,-1,-1018
319,3.569129,0,0,-1,1,2,-1027
320,3.58032,0,0,-1,-4,1,-1022
321,3.591502,0,1,0,3,1,-1022
322,3.602691,1,0,-1,1,0,-1027
323,3.613888,0,1,0,-3,0,-1026
324,3.62507,1,0,0,-1,-2,-1024
325,3.636256,0,1,0,0,1,-1028
326,3.647443,1,2,1,0,-2,-1025
327,3.65863,1,1,0,3,-3,-1023
328,3.669804,0,0,0,0,-1,-1027
329,3.680989,0,0,0,0,0,-1024
330,3.692174,0,1,0,-1,-1,-1032
331,3.703356,0,1,1,-1,1,-1029
332,3.714537,0,-1,-1,0,2,-1027
333,3.725724,0,0,0,0,-1,-1026
334,3.736905,0,-1,0,-1,-1,-1022
335,3.74809,0,-2,0,3,1,-1027
336,3.759273,0,-1,-1,-3,-4,-1024
337,3.770456,0,0,0,1,-1,-1020
338,3.781642,0,0,0,-4,5,-1023
339,3.792825,0,-1,0,-1,1,-1027
340,3.804008,1,0,0,0,1,-1023
341,3.815195,1,0,0,2,-3,-1018
342,3.826377,1,1,0,-3,-3,-1031
343,3.837567,0,1,0,-2,4,-1027
344,3.848751,0,0,0,3,6,-1025
345,3.859933,0,0,0,-3,0,-1027
346,3.871137,0,0,0,0,3,-1026
347,3.882336,1,0,0,-3,2,-1032
348,3.893531,0,1,0,-3,-2,-1024
349,3.904712,0,1,1,-2,-2,-1026
350,3.915894,0,1,0,0,-1,-1027
351,3.927074,0,0,0,1,-2,-1025
352,3.938266,0,0,-1,1,-1,-1023
353,3.949415,1,0,-1,2,0,-1029
354,3.960605,0,1,0,0,-2,-1023
355,3.972184,0,0,1,0,1,-1029
356,3.983868,1,1,0,2,0,-1017
357,3.995532,0,1,-1,-1,2,-1024
358,4.007186,0,0,0,0,0,-1031
359,4.018853,0,0,-1,-3,4,-1020
360,4.030557,0,0,0,1,-4,-1022
361,4.042209,0,0,0,-1,-6,-1030
362,4.053906,0,0,0,5,1,-1027
363,4.065551,0,0,0,-3,0,-1024
364,4.077266,1,0,1,5,3,-1022
365,4.088854,0,0,-1,-3,2,-1024
366,4.100405,0,0,0,-1,-1,-1025
367,4.11198,1,0,0,-2,2,-1025
368,4.123537,1,1,0,-1,-1,-1026
369,4.1351,1,0,0,-1,-1,-1026
370,4.14665,1,0,0,-3,2,-1030
371,4.158224,0,0,0,0,-2,-1032
372,4.169808,1,0,0,-4,3,-1023
373,4.181442,0,0,0,3,-3,-1027
374,4.19312,0,0,0,-1,2,-1023
375,4.204773,-1,0,0,1,1,-1023
376,4.216425,0,0,0,1,1,-1020
377,4.228091,0,0,0,-1,-3,-1028
378,4.239761,0,1,0,-3,0,-1023
379,4.251418,0,0,0,0,-1,-1024
380,4.26307,0,-1,0,4,0,-1023
381,4.274757,0,1,-1,0,0,-1023
382,4.286433,0,0,1,-1,4,-1028
383,4.298106,0,0,0,2,-1,-1022
384,4.309787,0,-1,-1,3,1,-1033
385,4.321445,0,1,0,0,-2,-1020
386,4.33312,0,0,0,3,1,-1024
387,4.344775,0,0,0,-4,-1,-1029
388,4.356482,0,-1,-1,1,1,-1033
389,4.368151,0,0,-1,-4,4,-1030
390,4.379859,1,-1,0,-1,1,-1020
391,4.391526,0,0,0,-2,0,-1018
392,4.403113,1,0,0,0,-3,-1020
393,4.414669,1,0,0,-2,4,-1026
394,4.426228,0,0,0,-1,0,-1021
395,4.437815,0,0,0,-3,2,-1022
396,4.449384,0,0,0,-1,2,-1028
397,4.460963,0,0,-1,1,0,-1022
398,4.472508,0,0,0,-1,0,-1021
399,4.484067,0,0,0,2,2,-1022
400,4.495662,0,1,0,-1,-1,-1027
401,4.507361,1,0,-1,3,-1,-1022
402,4.519028,0,0,-1,-5,2,-1024
403,4.530708,0,-1,0,3,2,-1022
404,4.542369,0,0,0,-2,-2,-1034
405,4.554052,1,0,0,4,0,-1026
406,4.565699,1,0,-1,4,-2,-1020
407,4.577397,0,0,-1,0,1,-1021
408,4.589042,1,0,0,0,-1,-1023
409,4.60061,1,0,0,2,-1,-1022
410,4.612206,1,0,0,1,-2,-1023
411,4.623755,0,0,0,-1,0,-1029
412,4.635327,1,0,0,-5,-1,-1027
413,4.646882,0,0,0,-4,-1,-1029
414,4.65847,1,-1,0,0,-3,-1028
415,4.670029,0,1,0,-6,3,-1027
416,4.681594,0,1,0,0,0,-1026
417,4.693148,0,0,0,4,-2,-1026
418,4.704778,0,1,0,4,3,-1023
419,4.716431,0,0,0,0,2,-1024
420,4.728087,1,-1,-1,4,0,-1024
421,4.739782,1,0,-1,2,-7,-1028
422,4.751425,0,0,0,1,3,-1030
423,4.763078,1,0,-1,-2,-2,-1025
424,4.774788,0,0,0,-2,2,-1024
425,4.786444,0,0,1,-7,1,-1024
426,4.798127,0,0,-1,-4,3,-1026
427,4.809788,1,0,0,-3,2,-1025
428,4.82135,0,0,0,-4,6,-1030
429,4.832897,0,0,0,1,0,-1023
430,4.844476,0,0,0,-1,-2,-1028
431,4.856049,0,0,1,-1,4,-1025
432,4.867604,0,0,0,-3,2,-1026
433,4.879172,0,-1,0,2,3,-1026
434,4.890725,0,0,0,0,0,-1021
435,4.902289,0,0,0,-4,2,-1030
436,4.913927,0,0,0,1,3,-1018
437,4.925593,0,0,1,-2,-3,-1023
438,4.937278,0,0,-1,-2,2,-1025
439,4.948926,0,-1,0,2,-4,-1029
440,4.960592,0,1,-1,1,-1,-1027
441,4.972272,0,0,0,-2,-1,-1023
442,4.983919,0,0,0,-3,-1,-1029
443,4.995572,1,0,0,1,0,-1027
444,5.007283,1,0,0,1,-1,-1027
445,5.018938,0,1,0,1,0,-1027
446,5.030479,0,0,-1,-3,-5,-1025
447,5.042052,0,0,0,0,-1,-1027
448,5.053632,0,0,0,-2,-2,-1024
449,5.065246,0,0,0,-2,-1,-1026
450,5.076825,0,0,0,2,-1,-1020
451,5.088373,0,0,0,-1,-3,-1026
452,5.099926,0,1,0,1,0,-1023
453,5.111488,0,0,0,4,0,-1025
454,5.123133,1,0,1,-3,0,-1019
455,5.134855,0,-1,0,-1,-3,-1023
456,5.146558,0,0,0,-3,0,-1024
457,5.158215,0,0,-1,-1,0,-1022
458,5.16991,1,0,0,-2,-1,-1029
459,5.181579,0,0,0,2,4,-1025
460,5.193271,0,0,0,-1,2,-1028
461,5.204925,0,-1,0,1,-1,-1022
462,5.216617,0,0,-1,0,2,-1030
463,5.228285,0,0,-1,4,-2,-1021
464,5.239846,1,1,0,-2,-1,-1032
465,5.25146,1,1,0,-1,6,-1026
466,5.263019,0,0,-1,1,-1,-1024
467,5.274591,1,0,0,-3,0,-1020
468,5.286148,1,0,0,2,3,-1026
469,5.297733,0,0,0,-2,2,-1029
470,5.309263,0,0,0,6,0,-1026
471,5.320846,0,0,0,-1,0,-1022
472,5.332525,1,0,0,2,4,-1024
473,5.344197,0,0,0,-2,2,-1022
474,5.355867,0,0,1,-2,1,-1026
475,5.367526,-1,1,1,-2,0,-1019
476,5.37919,0,0,0,0,4,-1023
477,5.39087,0,0,0,-3,-2,-1028
478,5.402556,0,1,0,-2,-2,-1024
479,5.414208,0,0,0,2,-2,-1024
480,5.425926,0,0,0,2,2,-1027
481,5.437588,1,0,0,-2,2,-1026
482,5.449139,0,0,0,-2,0,-1024
483,5.460697,1,0,0,-1,-2,-1022
484,5.472244,0,0,0,-2,-1,-1023
485,5.483807,1,0,0,0,1,-1028
486,5.495363,0,0,0,-1,-1,-1026
487,5.506986,0,0,0,-1,-1,-1029
488,5.518568,0,0,0,-1,2,-1030
489,5.530211,0,0,1,1,-1,-1030
490,5.54185,0,-1,1,4,-3,-1026
491,5.553532,0,0,0,1,-2,-1030
492,5.565205,0,0,0,2,-2,-1024
493,5.576874,1,-1,1,-1,2,-1020
494,5.588532,1,0,0,2,-1,-1022
495,5.600204,1,0,0,-4,2,-1023
496,5.611875,0,1,0,1,1,-1028
497,5.623533,1,0,0,-5,1,-1026
498,5.635218,0,0,0,0,-1,-1026
499,5.646886,0,0,0,-2,0,-1027
500,5.658474,0,0,0,-3,2,-1024
501,5.67005,0,0,0,-3,-1,-1026
502,5.681627,1,0,0,0,-2,-1025
503,5.693193,0,0,0,0,3,-1029
504,5.704748,0,0,0,0,0,-1023
505,5.716295,0,0,0,-5,0,-1022
506,5.727848,1,0,-1,0,-1,-1024
507,5.739473,0,0,0,-1,2,-1018
508,5.751129,0,0,0,-2,3,-1027
509,5.762849,0,0,0,-3,-1,-1023
510,5.774527,0,0,0,1,-1,-1029
511,5.786205,0,-1,0,-2,1,-1023
512,5.797908,0,1,0,-4,-4,-1026
513,5.809535,0,0,0,-2,4,-1028
514,5.821237,0,0,0,1,1,-1024
515,5.832887,0,0,0,-2,-1,-1025
516,5.844554,0,0,0,-2,0,-1022
517,5.856231,1,0,0,2,2,-1023
518,5.867823,0,0,-1,-2,-1,-1027
519,5.879388,0,0,0,0,2,-1034
520,5.890946,0,1,0,1,-1,-1025
521,5.902479,0,1,0,2,3,-1022
522,5.91407,0,1,0,3,0,-1026
523,5.92563,0,0,0,-1,1,-1027
524,5.93718,0,0,0,-4,3,-1020
525,5.948739,0,0,0,2,0,-1023
526,5.960359,0,0,0,-1,-2,-1025
527,5.972025,1,1,0,-1,-1,-1032
528,5.983713,0,0,0,-1,-1,-1020
529,5.995379,0,0,0,-1,1,-1026
530,6.00704,0,0,0,-3,2,-1026
531,6.018738,0,0,1,-2,1,-1026
532,6.030414,0,0,0,0,-1,-1027
533,6.04205,0,0,0,-1,-1,-1019
534,6.053742,-1,0,-1,-3,-4,-1022
535,6.065421,0,0,-1,0,0,-1023
536,6.076989,1,1,0,0,4,-1023
537,6.088571,0,-1,0,2,-1,-1024
538,6.100124,0,-1,0,0,1,-1025
539,6.111695,0,0,-1,-2,-1,-1023
540,6.123233,0,0,0,-1,3,-1027
541,6.134775,1,-1,0,3,-1,-1027
542,6.146351,0,0,-1,-1,3,-1026
543,6.157915,1,0,0,-1,-1,-1023
544,6.169578,1,0,0,-1,-2,-1019
545,6.181264,1,0,0,-2,-1,-1023
546,6.192917,0,1,0,-1,2,-1022
547,6.204561,0,0,-1,0,1,-1022
548,6.216209,0,-1,0,3,2,-1021
549,6.227875,0,0,0,1,-4,-1022
550,6.239529,0,-1,-1,1,-1,-1023
551,6.251206,0,0,0,-2,1,-1022
552,6.262869,0,-1,0,-2,4,-1020
553,6.274451,0,0,0,-1,1,-1026
554,6.285991,0,0,0,2,1,-1022
555,6.297569,1,1,-1,1,0,-1021
556,6.309115,0,0,-1,3,1,-1028
557,6.320698,1,0,0,-1,-1,-1021
558,6.332237,0,0,-1,0,1,-1024
559,6.343789,0,0,0,1,0,-1027
560,6.355351,1,0,0,-1,4,-1022
561,6.366976,1,1,0,0,1,-1023
562,6.37864,0,0,0,-2,4,-1024
563,6.39031,1,0,0,2,-1,-1026
564,6.401982,0,0,-1,1,-1,-1024
565,6.413658,0,-1,0,-1,0,-1022
566,6.425275,0,0,0,-2,-1,-1022
567,6.436921,1,0,1,-2,0,-1033
568,6.448589,0,0,0,-1,0,-1021
569,6.460256,0,0,-1,1,1,-1019
570,6.471912,0,1,-1,-2,-2,-1031
571,6.483477,0,1,0,0,-2,-1027
572,6.495025,0,0,0,1,1,-1023
573,6.506595,0,0,0,-3,0,-1023
574,6.518229,0,0,0,-3,3,-1033
575,6.529818,1,-1,0,1,0,-1027
576,6.541386,0,0,0,-2,-1,-1021
577,6.552963,0,0,0,-3,0,-1027
578,6.564535,0,-1,0,0,-2,-1019
579,6.576151,1,1,-1,-2,-1,-1029
580,6.587819,0,0,1,0,3,-1026
581,6.599479,0,-1,0,-1,0,-1025
582,6.611135,0,0,0,2,3,-1028
583,6.622869,0,0,0,3,0,-1021
584,6.634549,0,1,0,1,-2,-1022
585,6.646247,0,-1,0,0,1,-1029
586,6.657927,0,0,0,1,-2,-1025
587,6.669609,0,1,0,1,0,-1025
588,6.681265,0,1,0,-1,5,-1023
589,6.692917,-1,0,0,-1,3,-1027
590,6.704587,1,0,0,-6,-1,-1029
591,6.716265,0,0,0,0,-3,-1026
592,6.727919,0,0,0,-2,3,-1024
593,6.739582,0,0,-1,-4,3,-1020
594,6.751257,0,0,0,-2,2,-1028
595,6.762907,0,0,0,1,1,-1023
596,6.774593,0,0,-1,1,1,-1022
597,6.786276,0,0,0,-1,-1,-1031
598,6.797865,1,0,0,-2,1,-1028
599,6.809452,0,0,0,2,0,-1028
600,6.821039,1,1,0,1,1,-1028
601,6.832593,0,0,0,-2,2,-1025
602,6.844181,1,0,0,2,0,-1024
603,6.855726,-1,0,0,1,1,-1024
604,6.867273,0,0,0,-1,-4,-1029
605,6.878846,0,0,1,-2,0,-1022
606,6.890477,0,1,-1,-4,-2,-1030
607,6.902171,0,0,0,0,-3,-1023
608,6.913857,0,0,0,-1,-1,-1026
609,6.925528,0,0,-1,-3,-1,-1031
610,6.93719,0,-1,0,1,2,-1021
611,6.948844,0,0,0,3,3,-1025
612,6.9605,0,0,0,2,-1,-1021
613,6.972156,0,-1,-1,-1,0,-1022
614,6.983813,0,0,0,-5,-2,-1025
615,6.995501,0,0,1,-2,2,-1024
616,7.007077,0,0,0,-1,-1,-1029
617,7.018664,0,1,1,-6,1,-1027
618,7.030232,0,0,0,1,-3,-1021
619,7.041821,0,1,0,-2,0,-1023
620,7.053383,0,0,0,-3,0,-1024
621,7.064943,0,-1,-1,-3,-1,-1030
622,7.076503,0,0,-1,-1,1,-1025
623,7.088065,1,1,-1,-2,-2,-1028
624,7.099764,0,1,0,-2,-2,-1025
625,7.111436,0,0,0,1,-1,-1029
626,7.12311,0,-1,0,1,2,-1029
627,7.134772,0,-1,0,-3,0,-1023
628,7.146452,0,0,0,0,-4,-1027
629,7.158119,0,1,0,-3,2,-1030
630,7.169792,0,0,1,2,1,-1025
631,7.181477,0,0,0,1,-1,-1026
632,7.193153,0,0,0,3,4,-1024
633,7.20481,0,0,0,0,-3,-1025
634,7.216375,1,-1,0,-2,0,-1029
635,7.227946,0,-1,0,-2,0,-1025
636,7.2395,0,0,0,1,4,-1024
637,7.251073,0,0,0,2,1,-1027
638,7.262623,1,0,0,-1,-5,-1024
639,7.274186,-1,0,0,-1,-1,-1024
640,7.285748,0,1,0,0,-1,-1027
641,7.297348,1,0,0,0,-1,-1023
642,7.308997,0,0,-1,2,-3,-1027
643,7.320662,0,0,0,3,5,-1024
644,7.332328,0,0,0,-2,-1,-1030
645,7.343993,0,0,0,1,1,-1030
646,7.35565,0,0,0,-2,4,-1020
647,7.367334,0,1,0,1,1,-1022
648,7.378995,0,1,0,2,-1,-1021
649,7.390726,0,0,0,3,1,-1026
650,7.402397,1,0,0,-2,0,-1019
651,7.414079,0,0,0,1,0,-1025
652,7.425643,1,0,0,3,0,-1022
653,7.43719,1,-1,-1,0,3,-1027
654,7.448732,0,0,0,2,3,-1023
655,7.460273,1,1,0,-1,-1,-1034
656,7.471825,1,0,-1,-1,3,-1024
657,7.483368,0,0,1,-1,1,-1026
658,7.494911,1,0,0,-1,-3,-1027
659,7.506472,-1,-1,0,-3,0,-1025
660,7.518164,0,0,-1,2,0,-1023
661,7.529838,1,1,0,-2,1,-1029
662,7.54152,0,0,0,0,1,-1020
663,7.553169,1,0,0,-3,0,-1022
664,7.564844,0,-1,0,-2,3,-1027
665,7.576494,1,0,0,-2,0,-1026
666,7.588145,0,0,-1,-3,2,-1025
667,7.599807,1,0,-1,-2,0,-1021
668,7.611474,0,1,0,2,4,-1025
669,7.623054,0,0,0,0,2,-1025
670,7.634614,1,0,0,-1,-2,-1026
671,7.646183,0,1,0,-3,1,-1023
672,7.657748,1,0,1,1,0,-1025
673,7.66931,0,0,1,-1,4,-1028
674,7.680869,0,1,1,-1,1,-1028
675,7.692652,1,0,0,3,6,-1022
676,7.704387,1,0,0,1,5,-1031
677,7.715947,0,0,0,0,0,-1033
678,7.727521,0,0,0,2,2,-1027
679,7.739112,0,0,0,2,-1,-1021
680,7.750688,0,0,0,-2,3,-1024
681,7.76223,0,-1,1,5,2,-1017
682,7.773805,0,0,1,0,-1,-1025
683,7.785386,0,0,0,0,-2,-1020
684,7.796963,1,1,0,-5,-1,-1023
685,7.808554,-1,0,0,0,4,-1026
686,7.820255,0,0,0,-5,4,-1028
687,7.831936,1,0,0,2,-2,-1029
688,7.843615,0,0,-1,2,0,-1025
689,7.855271,0,0,-1,0,-1,-1022
690,7.866936,1,-1,0,-3,-1,-1027
691,7.878608,0,0,0,-6,2,-1023
692,7.890291,0,1,0,2,-3,-1025
693,7.901968,0,0,0,3,-2,-1025
694,7.913656,0,0,0,-1,5,-1023
695,7.925353,0,0,0,0,-4,-1024
696,7.936937,0,1,0,0,-2,-1026
697,7.948492,1,0,0,-3,0,-1027
698,7.96006,-1,0,1,2,1,-1026
699,7.971613,0,1,-1,-2,1,-1024
700,7.983174,0,0,0,1,2,-1020
701,7.994726,0,0,0,1,2,-1021
702,8.006279,0,0,0,-1,4,-1024
703,8.017882,0,1,0,2,1,-1028
704,8.029531,1,0,0,-2,4,-1028
705,8.041262,0,0,0,0,0,-1025
706,8.052912,0,0,0,-1,4,-1030
707,8.06458,0,0,0,-3,1,-1027
708,8.076252,0,0,-1,-1,-2,-1022
709,8.087903,0,0,0,-2,1,-1025
710,8.099603,0,-1,0,-3,-1,-1023
711,8.111265,0,-1,-1,-3,3,-1028
712,8.122928,1,0,0,-2,1,-1030
713,8.134606,0,0,0,-1,2,-1022
714,8.146183,0,-1,0,1,0,-1031
715,8.157753,0,-1,0,1,-1,-1028
716,8.16931,1,-1,0,-2,1,-1022
717,8.18086,1,-1,0,-2,0,-1026
718,8.192406,1,0,-1,-1,0,-1022
719,8.203952,0,0,0,0,-2,-1025
720,8.215591,0,0,0,3,5,-1029
721,8.227215,0,0,0,0,-5,-1024
722,8.23885,1,-1,0,-4,-2,-1027
723,8.250544,1,0,0,1,-1,-1024
724,8.262198,0,0,0,1,-3,-1022
725,8.273901,0,1,0,-1,2,-1026
726,8.285611,0,0,0,-1,4,-1028
727,8.297274,0,0,0,4,2,-1025
728,8.308973,0,-1,0,2,-2,-1028
729,8.320613,1,0,0,-4,1,-1021
730,8.332275,1,0,0,-1,3,-1020
731,8.343944,1,0,1,-3,2,-1028
732,8.355541,0,0,-1,2,3,-1027
733,8.367139,0,0,0,-2,-1,-1026
734,8.378841,0,0,0,-1,-1,-1024
735,8.390427,0,0,0,1,-4,-1031
736,8.401979,1,-1,0,0,2,-1023
737,8.413562,0,1,-1,-2,2,-1025
738,8.425099,0,0,0,3,1,-1027
739,8.436674,0,-1,0,-3,-1,-1029
740,8.448354,0,0,1,-1,2,-1031
741,8.460012,0,0,0,0,-1,-1028
742,8.471716,0,0,0,-1,-2,-1026
743,8.483371,1,0,0,0,4,-1028
744,8.495021,1,0,-1,0,1,-1027
745,8.506732,0,0,0,5,3,-1024
746,8.518421,0,0,1,-2,2,-1024
747,8.530102,0,0,-1,3,4,-1021
748,8.541788,1,1,0,-2,2,-1027
749,8.553485,0,1,-1,-2,1,-1021
750,8.565067,0,0,0,3,3,-1032
751,8.57662,0,0,-1,-3,2,-1027
752,8.588169,1,0,0,-6,1,-1023
753,8.599723,0,0,0,3,3,-1027
754,8.611298,1,0,0,2,1,-1026
755,8.622845,0,-1,0,-4,1,-1022
756,8.634421,0,0,-1,3,-2,-1023
757,8.645995,0,0,0,2,-1,-1024
758,8.657653,0,0,0,-3,-2,-1026
759,8.669276,0,0,0,2,1,-1029
760,8.680921,1,0,0,0,0,-1028
761,8.692602,0,0,1,2,2,-1029
762,8.704244,0,0,0,4,1,-1020
763,8.715893,0,0,-1,-1,1,-1027
764,8.727541,0,0,0,-1,-2,-1029
765,8.739191,0,0,1,-2,3,-1026
766,8.75087,0,0,1,2,0,-1023
767,8.762545,1,0,0,-5,2,-1024
768,8.774146,0,0,0,2,2,-1024
769,8.785728,0,0,0,-1,0,-1020
770,8.797265,0,1,-1,4,3,-1021
771,8.808823,0,0,0,1,2,-1023
772,8.820411,0,-1,0,0,3,-1027
773,8.831967,1,0,1,-1,2,-1021
774,8.843567,0,-1,0,-1,0,-1026
775,8.855118,0,0,0,5,4,-1026
776,8.866774,0,0,0,0,3,-1022
777,8.878468,0,0,-1,2,0,-1020
778,8.89013,1,1,0,0,2,-1024
779,8.901798,0,0,0,-1,-3,-1018
780,8.91346,0,0,0,-2,-1,-1025
781,8.925117,0,0,0,3,0,-1027
782,8.936773,0,0,0,0,1,-1027
783,8.94842,0,0,0,-2,-1,-1024
784,8.960095,0,0,0,2,2,-1023
785,8.971752,0,1,0,1,0,-1023
786,8.983311,0,1,-1,2,-1,-1024
787,8.994864,0,0,0,-1,2,-1030
788,9.006422,1,0,0,1,5,-1028
789,9.017984,0,1,-1,-1,-2,-1018
790,9.029506,0,0,0,-3,3,-1025
791,9.041056,0,0,0,-4,2,-1019
792,9.052603,0,0,0,0,2,-1024
793,9.064155,0,0,1,-2,-2,-1026
794,9.075815,0,0,0,4,-1,-1024
795,9.087474,0,0,0,-3,-2,-1022
796,9.099125,1,0,0,1,1,-1022
797,9.110814,1,0,-1,-4,2,-1024
798,9.122472,0,0,0,0,-1,-1024
799,9.134152,1,-1,0,3,0,-1026
800,9.145794,1,0,-1,-3,-3,-1028
801,9.157446,0,0,0,1,1,-1023
802,9.169119,0,1,0,-2,1,-1025
803,9.180769,0,-1,0,1,-3,-1027
804,9.192415,0,-1,0,-1,0,-1023
805,9.204081,1,0,1,1,-2,-1027
806,9.215756,0,0,1,-3,0,-1027
807,9.227409,0,0,-1,-2,1,-1025
808,9.239196,0,0,-1,1,1,-1020
809,9.250852,0,-1,0,-2,-1,-1027
810,9.262581,0,-1,-1,1,3,-1030
811,9.274354,1,0,-1,2,2,-1022
812,9.286032,1,0,0,2,-3,-1027
813,9.297623,0,0,0,-1,0,-1020
814,9.309187,0,-1,0,0,-1,-1028
815,9.320758,0,-1,0,0,-3,-1023
816,9.332304,1,0,0,-1,1,-1026
817,9.34385,0,0,0,1,2,-1029
818,9.355402,0,1,0,0,-4,-1022
819,9.366951,1,0,1,-2,-1,-1020
820,9.378469,1,1,0,-3,-1,-1027
821,9.390175,1,0,-1,-1,2,-1024
822,9.401952,1,0,0,-2,1,-1024
823,9.413666,0,0,0,0,0,-1026
824,9.425351,0,0,0,-2,1,-1025
825,9.437,0,0,0,-2,-1,-1031
826,9.448649,1,0,0,1,3,-1027
827,9.460332,0,0,0,3,8,-1029
828,9.471977,0,0,0,3,-4,-1024
829,9.483647,0,0,0,-1,1,-1025
830,9.495339,0,1,0,-5,-1,-1028
831,9.506936,0,1,0,-2,-2,-1029
832,9.518477,0,0,1,2,-1,-1029
833,9.53008,0,0,1,-2,-1,-1030
834,9.541646,0,0,1,-2,1,-1024
835,9.5532,0,0,1,0,0,-1021
836,9.564781,0,0,0,1,0,-1025
837,9.576332,0,0,0,2,-1,-1020
838,9.587956,1,-1,0,0,0,-1020
839,9.599594,1,0,0,1,-1,-1027
840,9.611246,0,0,-1,0,2,-1021
841,9.622895,0,0,0,2,3,-1027
842,9.634589,0,1,0,0,-3,-1022
843,9.646233,0,0,0,-3,3,-1026
844,9.657909,1,1,0,2,-2,-1026
845,9.669584,0,0,-1,1,-5,-1018
846,9.68127,0,0,0,-2,-3,-1021
847,9.692978,0,-1,0,-1,0,-1024
848,9.704683,0,0,0,-1,1,-1027
849,9.716282,0,-1,0,-1,-2,-1024
850,9.727835,1,0,0,-1,2,-1025
851,9.739389,0,0,0,-1,-1,-1022
852,9.750949,0,-1,0,0,1,-1027
853,9.762535,1,0,0,3,0,-1027
854,9.774103,0,0,-1,-3,1,-1022
855,9.785659,1,1,0,0,-2,-1028
856,9.797225,1,0,0,-1,-1,-1024
857,9.808868,1,-1,-1,0,1,-1024
858,9.820541,0,0,0,-4,-3,-1024
859,9.832195,0,0,0,-1,0,-1030
860,9.843868,1,-1,1,-3,0,-1027
861,9.85553,0,-1,0,0,-5,-1023
862,9.86718,0,0,0,4,1,-1029
863,9.878836,0,0,0,-1,3,-1031
864,9.890489,0,0,0,-4,4,-1027
865,9.902173,0,0,0,-2,-1,-1028
866,9.913852,0,0,1,3,-2,-1020
867,9.925537,0,0,0,4,2,-1024
868,9.937192,0,1,0,-1,1,-1018
869,9.948849,0,0,0,-1,-3,-1026
870,9.960526,0,1,0,0,0,-1023
871,9.972166,1,0,0,-2,1,-1027
872,9.983837,0,0,0,2,-3,-1026
873,9.995491,0,1,0,-2,-1,-1024
874,10.007198,0,0,0,0,1,-1025
875,10.018851,1,0,-1,-6,-3,-1024
876,10.030554,0,0,0,-3,1,-1026
877,10.042234,1,0,0,-3,-2,-1023
878,10.053904,1,0,0,-1,-2,-1026
879,10.065593,1,-1,1,-2,4,-1023
880,10.077272,1,0,0,1,1,-1018
881,10.088928,0,0,0,0,-2,-1022
882,10.100592,-1,0,0,2,-1,-1024
883,10.112315,0,1,0,1,1,-1018
884,10.123988,0,0,-1,1,2,-1014
885,10.135554,1,0,0,-2,1,-1023
886,10.147123,0,0,0,-1,1,-1028
887,10.158697,0,0,-1,-3,-2,-1026
888,10.170225,1,0,-1,0,0,-1025
889,10.181744,0,0,-1,-1,3,-1023
890,10.193265,0,0,0,-3,0,-1025
891,10.204813,0,1,-1,-1,-2,-1024
892,10.216369,0,0,0,-1,3,-1026
893,10.227997,0,0,0,-3,0,-1024
894,10.239651,0,1,0,-2,-2,-1025
895,10.251379,1,0,0,-3,-2,-1031
896,10.263186,0,0,0,-2,2,-1025
897,10.27484,0,0,0,0,3,-1024
898,10.286496,1,0,0,-1,-2,-1031
899,10.298193,1,-1,0,-2,1,-1024
900,10.309854,0,0,0,5,1,-1024
901,10.321547,0,0,0,-3,-3,-1025
902,10.333281,0,1,0,-6,1,-1023
903,10.344851,1,0,0,-4,-1,-1026
904,10.356411,1,0,-1,-1,1,-1022
905,10.367958,0,0,0,-2,2,-1028
906,10.379515,0,0,0,0,-2,-1028
907,10.391064,1,0,1,-3,0,-1018
908,10.402614,0,-1,0,-1,0,-1028
909,10.414179,1,-1,0,-2,-4,-1020
910,10.425757,0,0,0,2,0,-1029
911,10.437415,1,0,0,1,2,-1023
912,10.449075,0,0,0,1,-1,-1023
913,10.460722,0,0,-1,-1,-2,-1023
914,10.472377,0,0,0,2,1,-1020
915,10.484019,1,0,0,1,5,-1027
916,10.495663,0,0,0,2,0,-1023
917,10.507336,0,0,0,-2,2,-1026
918,10.518982,0,0,0,0,-1,-1028
919,10.530658,0,1,0,2,0,-1028
920,10.542295,0,0,1,-2,3,-1028
921,10.554003,0,-1,0,-5,0,-1016
922,10.565668,0,0,0,-5,-2,-1025
923,10.577347,0,1,0,0,4,-1027
924,10.589004,1,0,0,-1,-1,-1025
925,10.600654,0,0,0,0,2,-1026
926,10.612346,0,0,0,-1,0,-1019
927,10.624192,0,0,0,2,0,-1021
928,10.635842,0,0,0,-1,-3,-1025
929,10.647417,-1,0,-1,1,-3,-1021
930,10.659004,0,0,-1,-2,1,-1023
931,10.670594,-1,0,0,-2,-3,-1017
932,10.682159,1,0,0,0,-1,-1026
933,10.693728,0,1,0,-1,-1,-1024
934,10.705301,0,0,0,1,-1,-1024
935,10.716848,1,0,0,-1,-2,-1019
936,10.728397,0,0,0,1,0,-1021
937,10.739948,0,1,0,4,-1,-1020
938,10.751629,0,0,1,3,0,-1024
939,10.763297,1,0,0,-2,1,-1021
940,10.774959,0,0,0,3,1,-1021
941,10.786623,1,0,0,-1,1,-1024
942,10.798288,0,1,0,-5,2,-1025
943,10.809958,0,0,0,2,-1,-1030
944,10.821617,0,0,0,1,2,-1032
945,10.833289,1,0,0,0,-2,-1024
946,10.844956,0,0,0,1,0,-1025
947,10.856615,1,0,0,-7,-1,-1029
948,10.86826,1,1,0,0,1,-1026
949,10.879906,0,0,1,-1,2,-1018
950,10.891578,1,0,0,1,0,-1031
951,10.903228,0,0,0,-1,-2,-1019
952,10.914877,0,-1,0,1,2,-1026
953,10.926577,0,0,0,-2,2,-1019
954,10.938249,0,0,-1,2,1,-1021
955,10.949918,0,0,0,2,-1,-1028
956,10.961597,1,0,-1,-4,0,-1027
957,10.973265,1,1,0,1,1,-1023
958,10.984916,0,0,0,3,3,-1018
959,10.996587,1,0,0,5,-1,-1028
960,11.00823,0,0,0,-2,2,-1028
961,11.019877,0,1,0,-1,0,-1026
962,11.031595,1,0,-1,3,3,-1021
963,11.043267,0,0,0,-1,3,-1029
964,11.054828,0,0,0,1,1,-1026
965,11.066416,0,0,0,-3,1,-1023
966,11.078014,1,0,1,0,4,-1025
967,11.089571,0,0,1,1,4,-1028
968,11.101149,0,-1,-1,-1,4,-1020
969,11.112695,1,0,0,4,4,-1018
970,11.124234,0,0,0,-3,0,-1023
971,11.135786,1,0,0,3,3,-1025
972,11.147338,0,0,0,0,-1,-1027
973,11.158992,0,1,0,0,2,-1020
974,11.170687,0,-1,0,-2,-1,-1025
975,11.18235,0,0,1,0,-1,-1018
976,11.194022,0,0,0,3,2,-1018
977,11.20569,0,0,0,-2,2,-1029
978,11.217348,0,0,0,-1,-2,-1027
979,11.229017,0,0,0,-1,2,-1028
980,11.240715,0,0,0,0,-1,-1024
981,11.252372,1,1,0,2,0,-1031
982,11.264017,0,1,0,2,-2,-1023
983,11.275665,1,0,0,-2,-2,-1023
984,11.287437,0,1,0,-1,3,-1023
985,11.299097,0,0,0,-1,3,-1029
986,11.310747,0,0,0,0,-1,-1025
987,11.322426,0,1,0,3,1,-1018
988,11.334095,1,0,0,1,-3,-1023
989,11.345788,0,-1,1,3,0,-1019
990,11.357501,0,0,0,-2,-1,-1022
991,11.369054,0,0,0,1,2,-1025
992,11.3806,0,1,0,-5,-3,-1025
993,11.392147,0,0,0,0,2,-1026
994,11.403695,1,0,0,-4,0,-1022
995,11.415258,0,0,0,2,2,-1028
996,11.426811,0,1,-1,2,-1,-1030
997,11.438417,0,1,0,-1,-1,-1020
998,11.449998,1,1,0,-1,-1,-1022
999,11.461616,0,0,0,-3,0,-1030
1000,11.473277,0,0,0,-1,0,-1024
1001,11.48493,1,0,-1,2,-1,-1025
1002,11.496594,1,0,-1,-3,2,-1019
1003,11.508253,0,0,0,1,3,-1016
1004,11.519902,0,0,0,-2,3,-1022
1005,11.531571,1,0,0,-1,1,-1024
1006,11.543196,0,1,0,4,-1,-1021
1007,11.554858,1,-1,0,-1,-3,-1022
1008,11.566526,0,0,1,-4,2,-1022
1009,11.578116,1,1,0,-3,0,-1024
1010,11.589674,0,0,0,2,1,-1021
1011,11.601268,0,0,0,1,-2,-1027
1012,11.612819,1,0,0,2,1,-1015
1013,11.624391,0,0,0,1,-3,-1018
1014,11.635934,0,1,-1,1,3,-1030
1015,11.647487,0,0,0,1,0,-1028
1016,11.659048,0,0,1,0,-2,-1024
1017,11.670728,0,0,0,-2,-1,-1025
1018,11.682417,0,0,0,0,1,-1029
1019,11.694094,0,0,1,0,-1,-1028
1020,11.70579,0,-1,0,-2,1,-1024
1021,11.717451,1,0,0,0,0,-1025
1022,11.729152,0,-1,0,-1,0,-1030
1023,11.74082,0,-1,0,-2,0,-1025
1024,11.752475,1,0,0,0,1,-1031
1025,11.764153,0,0,0,-3,-1,-1028
1026,11.775819,0,0,0,-1,2,-1024
1027,11.78738,1,1,-1,2,0,-1028
1028,11.798945,0,0,0,0,3,-1030
1029,11.810488,0,0,0,1,1,-1027
1030,11.822039,0,0,0,4,-1,-1020
1031,11.833613,0,0,-1,4,0,-1029
1032,11.845163,0,0,0,-2,2,-1021
1033,11.856708,0,0,0,-2,-1,-1024
1034,11.86827,0,0,0,2,3,-1031
1035,11.879919,0,0,1,-1,1,-1028
1036,11.891576,0,0,0,-6,-1,-1025
1037,11.903228,0,0,0,-2,3,-1023
1038,11.914894,0,0,0,0,0,-1026
1039,11.926569,0,0,0,-1,0,-1022
1040,11.938227,0,0,-1,-1,1,-1025
1041,11.949924,0,0,0,-1,3,-1015
1042,11.961578,0,-1,0,2,0,-1026
1043,11.973267,1,0,0,0,2,-1025
1044,11.984941,0,-1,0,1,-1,-1026
1045,11.996584,-1,0,0,-1,3,-1025
1046,12.008233,0,-1,-1,-1,1,-1029
1047,12.019908,0,0,1,-3,1,-1024
1048,12.031573,0,1,1,-1,1,-1029
1049,12.043225,1,0,0,-3,4,-1029
1050,12.05487,0,0,-1,-1,3,-1028
1051,12.066567,0,0,-1,-4,3,-1025
1052,12.078296,0,0,0,0,2,-1030
1053,12.089959,0,0,-1,0,4,-1024
1054,12.101509,0,0,0,-3,2,-1027
1055,12.113066,0,-1,0,0,2,-1024
1056,12.124666,0,0,0,1,1,-1019
1057,12.136241,0,0,0,-2,0,-1020
1058,12.147787,-1,0,0,3,4,-1026
1059,12.15933,0,0,0,-3,0,-1024
1060,12.170887,0,-1,0,0,-1,-1029
1061,12.182498,0,0,0,0,3,-1021
1062,12.194135,0,0,0,1,-4,-1025
1063,12.205794,0,0,0,-4,3,-1027
1064,12.217513,0,1,0,-2,0,-1025
1065,12.22917,0,0,0,3,-1,-1022
1066,12.240824,0,0,0,-2,4,-1026
1067,12.252474,0,0,-1,-3,-2,-1031
1068,12.264114,1,-1,0,2,0,-1022
1069,12.275767,1,0,0,2,1,-1024
1070,12.287454,1,-1,0,-1,1,-1027
1071,12.299062,0,0,0,0,-3,-1022
1072,12.310729,1,0,1,-3,2,-1022
1073,12.322283,0,-1,0,-1,-1,-1029
1074,12.333866,0,1,0,0,0,-1021
1075,12.345423,1,0,0,-1,1,-1023
1076,12.356974,0,0,0,0,1,-1029
1077,12.368539,1,-1,1,1,0,-1031
1078,12.380136,0,1,0,-3,-2,-1030
1079,12.391701,0,0,0,-3,2,-1027
1080,12.403325,1,0,0,-3,-2,-1031
1081,12.414982,0,0,0,-1,1,-1032
1082,12.426632,0,0,0,-1,1,-1026
1083,12.438307,0,0,0,0,0,-1021
1084,12.449979,0,-1,0,-2,-4,-1021
1085,12.461655,1,0,-1,0,2,-1028
1086,12.473329,0,-1,1,-2,0,-1021
1087,12.484983,0,0,0,2,3,-1018
1088,12.496644,1,0,0,-2,3,-1029
1089,12.508322,0,-1,0,2,1,-1031
1090,12.519894,0,1,-1,0,-1,-1027
1091,12.531439,1,0,0,2,1,-1025
1092,12.543005,1,0,1,5,1,-1028
1093,12.554605,0,0,0,-3,5,-1027
1094,12.566163,0,1,-1,-2,3,-1021
1095,12.577746,0,0,0,-2,1,-1029
1096,12.589262,0,0,1,-5,2,-1020
1097,12.600831,0,0,0,-5,2,-1029
1098,12.612464,0,0,0,2,0,-1027
1099,12.624142,0,-1,0,-4,-3,-1025
1100,12.635819,1,1,0,-2,2,-1030
1101,12.647479,1,0,0,5,-1,-1026
1102,12.659165,1,0,0,-5,6,-1026
1103,12.670817,1,0,0,1,2,-1028
1104,12.682479,1,0,0,-5,-1,-1018
1105,12.694179,1,-1,0,-2,1,-1025
1106,12.705845,0,0,0,-2,3,-1016
1107,12.717522,0,0,0,1,2,-1030
1108,12.7291,1,0,0,-2,1,-1019
1109,12.74065,0,0,0,-3,-1,-1025
1110,12.752193,1,0,0,0,-1,-1022
1111,12.763749,1,-1,0,-1,0,-1021
1112,12.775299,0,0,0,0,3,-1022
1113,12.786848,0,1,0,-3,0,-1028
1114,12.798407,0,-1,1,-4,0,-1025
1115,12.810018,1,0,0,-1,2,-1023
1116,12.821677,0,0,0,-2,0,-1024
1117,12.833342,0,-1,0,-1,-2,-1027
1118,12.844995,0,-1,0,0,0,-1027
1119,12.856666,0,0,0,-3,4,-1024
1120,12.868321,1,-1,0,-4,1,-1029
1121,12.879964,0,-1,0,-2,1,-1026
1122,12.891619,0,0,0,1,1,-1026
1123,12.903261,1,0,1,0,1,-1025
1124,12.914932,1,0,-1,1,0,-1026
1125,12.926598,0,1,0,2,3,-1025
1126,12.938172,0,0,0,0,-3,-1024
1127,12.949761,0,-1,1,-3,3,-1027
1128,12.961315,0,0,0,-1,1,-1017
1129,12.972872,-1,0,0,1,1,-1026
1130,12.984437,0,0,-1,-1,3,-1028
1131,12.995994,0,1,-1,0,-3,-1024
1132,13.007551,1,-1,0,1,-1,-1025
1133,13.019162,0,0,0,2,1,-1025
1134,13.030852,0,0,0,-1,6,-1028
1135,13.042556,1,1,0,-1,4,-1022
1136,13.054221,1,0,-1,1,0,-1029
1137,13.065915,1,0,0,-1,3,-1026
1138,13.077585,0,0,0,-1,3,-1026
1139,13.089265,0,-1,0,3,4,-1024
1140,13.100925,0,-1,0,-1,0,-1029
1141,13.112588,0,0,-1,-3,-5,-1025
1142,13.12427,0,0,0,-1,2,-1026
1143,13.135938,1,0,0,-2,-2,-1024
1144,13.14751,0,0,0,-2,-2,-1029
1145,13.159062,0,0,-1,2,3,-1022
1146,13.170636,0,0,1,-2,2,-1023
1147,13.182201,1,0,0,-5,3,-1026
1148,13.193745,0,-1,0,1,-3,-1030
1149,13.205318,0,0,-1,1,-2,-1024
1150,13.216864,0,1,0,-4,2,-1024
1151,13.228425,0,1,0,3,-2,-1032
1152,13.240058,0,1,0,-3,2,-1030
1153,13.251708,1,0,0,0,2,-1019
1154,13.263363,1,0,1,-4,-1,-1021
1155,13.275009,0,0,0,-1,3,-1023
1156,13.286684,0,0,0,2,4,-1024
1157,13.298367,1,0,0,-3,-1,-1030
1158,13.310038,0,0,-1,1,0,-1023
1159,13.321704,0,-1,0,-3,3,-1022
1160,13.333421,0,0,0,-2,2,-1020
1161,13.34509,0,-1,0,-1,2,-1024
1162,13.356662,0,0,0,0,-2,-1025
1163,13.368246,0,0,0,0,1,-1025
1164,13.379791,0,0,0,2,0,-1030
1165,13.391344,0,0,0,3,2,-1022
1166,13.4029,1,0,-1,2,-2,-1023
1167,13.414468,1,1,0,-4,-1,-1023
1168,13.425988,1,1,0,3,-2,-1027
1169,13.437522,0,0,0,-1,-1,-1031
1170,13.449262,0,0,0,-2,3,-1022
1171,13.460939,0,-1,1,-2,2,-1026
1172,13.472586,0,0,0,1,-5,-1030
1173,13.484233,1,0,0,-3,2,-1030
1174,13.495911,0,0,0,1,-2,-1028
1175,13.507558,0,0,0,2,-1,-1024
1176,13.519208,0,0,-1,-1,1,-1026
1177,13.530861,0,0,0,4,0,-1027
1178,13.542567,0,0,1,1,-3,-1024
1179,13.554253,0,-1,0,-3,-4,-1019
1180,13.565943,1,-1,0,-4,1,-1027
1181,13.577516,0,0,0,-2,3,-1027
1182,13.589063,0,0,-1,-5,1,-1023
1183,13.60061,0,0,0,0,-1,-1026
1184,13.612162,0,1,0,0,-3,-1027
1185,13.623744,1,0,0,0,5,-1017
1186,13.635297,0,1,0,-3,-1,-1026
1187,13.646897,0,0,0,-4,1,-1022
1188,13.658573,0,-1,0,-2,1,-1024
1189,13.670278,0,1,0,-3,-1,-1021
1190,13.682051,0,0,0,1,0,-1024
1191,13.69404,0,0,0,-2,0,-1023
1192,13.705858,1,0,0,0,-1,-1016
1193,13.717528,1,0,0,-1,4,-1024
1194,13.729204,0,0,0,-3,2,-1027
1195,13.740867,0,1,1,0,0,-1019
1196,13.752634,0,0,0,2,4,-1018
1197,13.76434,1,1,0,0,-3,-1026
1198,13.775915,1,0,0,0,-1,-1022
1199,13.787488,1,0,0,-2,-1,-1027
1200,13.799054,0,1,1,-3,1,-1026
1201,13.810655,1,0,0,-1,2,-1031
1202,13.822256,1,1,0,0,2,-1021
1203,13.83382,1,-1,0,2,2,-1022
1204,13.84544,0,0,0,1,3,-1029
1205,13.857083,1,1,0,-2,3,-1031
1206,13.868731,0,-1,0,-5,1,-1019
1207,13.880393,0,0,-1,-1,1,-1030
1208,13.892066,0,0,-1,-3,3,-1023
1209,13.903724,0,0,-1,-1,3,-1022
1210,13.915378,0,-1,0,-1,0,-1027
1211,13.92705,0,0,0,-1,3,-1020
1212,13.938695,-1,0,0,-4,-5,-1023
1213,13.950349,0,0,1,-5,0,-1020
1214,13.962062,0,0,-1,-2,3,-1026
1215,13.973717,0,0,0,-1,-1,-1027
1216,13.985387,0,0,0,-2,1,-1021
1217,13.997053,0,0,0,1,-3,-1022
1218,14.008694,1,-1,0,0,-2,-1021
1219,14.020342,1,0,0,-1,-1,-1022
1220,14.032038,0,0,0,0,2,-1017
1221,14.043695,0,0,0,-4,2,-1024
1222,14.055343,0,-1,0,-2,-1,-1025
1223,14.067043,1,-1,0,0,-1,-1019
1224,14.078705,0,0,0,-2,1,-1027
1225,14.090357,1,0,0,-2,-2,-1023
1226,14.102037,0,0,-1,-3,3,-1030
1227,14.113699,0,-1,0,-4,-2,-1025
1228,14.125346,0,0,0,2,2,-1026
1229,14.136992,0,0,0,2,2,-1022
1230,14.148647,0,0,0,0,2,-1021
1231,14.160313,0,0,0,-1,2,-1020
1232,14.17203,0,0,0,-1,3,-1021
1233,14.183682,0,0,0,2,1,-1025
1234,14.195273,0,0,1,-2,1,-1029
1235,14.206884,0,0,0,-2,4,-1031
1236,14.218487,1,0,0,0,-2,-1029
1237,14.230033,0,0,-1,-2,2,-1026
1238,14.24158,0,0,0,-1,0,-1030
1239,14.253123,0,0,0,1,2,-1022
1240,14.264669,0,0,0,-3,3,-1025
1241,14.276228,-1,0,0,-1,-2,-1027
1242,14.287857,0,0,0,-2,-2,-1022
1243,14.299539,0,0,0,0,1,-1026
1244,14.3112,0,1,1,2,-3,-1030
1245,14.32285,0,0,0,-4,-3,-1024
1246,14.334553,0,0,-1,5,5,-1026
1247,14.346223,1,0,0,-5,2,-1027
1248,14.357989,0,-1,0,-2,3,-1025
1249,14.369676,0,0,0,-5,-3,-1021
1250,14.381342,1,0,0,1,-1,-1024
1251,14.393014,0,0,0,-1,-2,-1020
1252,14.404601,0,1,-1,-1,1,-1024
1253,14.41616,0,0,1,1,-3,-1021
1254,14.427742,0,0,0,4,-1,-1022
1255,14.439291,0,0,-1,-2,-2,-1019
1256,14.450869,0,0,-1,-3,2,-1025
1257,14.46242,0,0,0,1,3,-1027
1258,14.473981,0,0,0,2,4,-1022
1259,14.485517,0,0,0,0,-1,-1026
1260,14.497171,1,0,0,-1,0,-1024
1261,14.508828,1,0,0,-1,1,-1024
1262,14.520482,0,0,0,4,-3,-1017
1263,14.532162,0,0,0,-3,3,-1028
1264,14.543804,0,-1,0,-1,1,-1019
1265,14.555466,0,-1,0,2,3,-1026
1266,14.567164,0,0,0,0,-1,-1023
1267,14.578812,0,0,0,-5,5,-1026
1268,14.59051,0,-1,0,1,-3,-1023
1269,14.602178,0,0,0,0,2,-1030
1270,14.613758,0,0,0,-7,-2,-1027
1271,14.625318,0,-1,0,-1,-2,-1022
1272,14.636879,0,0,0,0,-1,-1024
1273,14.648428,0,-1,0,-4,-1,-1020
1274,14.659975,0,0,0,0,-1,-1024
1275,14.671526,0,0,0,1,3,-1027
1276,14.68307,1,0,0,-1,2,-1015
1277,14.694749,1,0,0,-1,3,-1025
1278,14.706392,0,0,0,-3,1,-1023
1279,14.718055,0,0,0,0,0,-1021
1280,14.729709,0,-1,0,0,1,-1031
1281,14.741382,1,0,0,1,-1,-1023
1282,14.753053,0,0,-1,0,-2,-1026
1283,14.764697,1,0,0,1,7,-1020
1284,14.776371,1,-1,0,1,2,-1021
1285,14.788046,1,0,-1,2,0,-1021
1286,14.799705,0,0,0,1,3,-1024
1287,14.811377,0,0,0,-4,2,-1028
1288,14.822938,0,-1,0,0,-1,-1025
1289,14.834495,1,0,0,0,0,-1020
1290,14.846049,1,0,0,-2,-1,-1021
1291,14.857626,0,-1,0,-5,-2,-1023
1292,14.869183,1,-1,0,3,-1,-1025
1293,14.880755,0,0,0,0,-2,-1028
1294,14.892297,0,0,0,-1,-2,-1024
1295,14.903855,1,0,0,-1,-1,-1028
1296,14.915476,1,1,0,1,0,-1025
1297,14.927128,1,0,0,2,1,-1028
1298,14.938807,0,-1,0,4,3,-1021
1299,14.950469,0,-1,0,1,-2,-1018
1300,14.962111,0,0,0,2,2,-1024
1301,14.973793,0,0,0,0,4,-1027
1302,14.985454,0,0,0,2,3,-1026
1303,14.997096,0,0,1,-4,-1,-1030
1304,15.008781,0,0,0,2,-3,-1021
1305,15.020434,1,-1,-1,4,0,-1027
1306,15.032,1,0,0,-4,-3,-1027
1307,15.043548,0,0,0,0,0,-1022
1308,15.0551,1,0,0,-1,4,-1020
1309,15.066653,1,0,0,-1,-3,-1026
1310,15.078245,0,0,0,-3,6,-1022
1311,15.089805,1,0,-1,0,-2,-1031
1312,15.10139,0,0,-1,2,3,-1024
1313,15.112946,0,1,-1,0,2,-1027
1314,15.124571,0,0,0,0,4,-1026
1315,15.136241,0,1,1,-1,1,-1018
1316,15.147941,0,0,0,2,-1,-1030
1317,15.159593,1,0,0,0,4,-1021
1318,15.171265,0,0,-1,2,2,-1016
1319,15.182928,0,0,0,-1,-2,-1025
1320,15.19456,1,0,1,-2,4,-1025
1321,15.20622,0,0,0,1,2,-1026
1322,15.217925,0,0,0,-5,-1,-1029
1323,15.229578,0,0,0,-1,3,-1026
1324,15.241139,0,0,0,0,2,-1025
1325,15.252688,0,1,0,-2,1,-1030
1326,15.26424,0,1,0,0,0,-1020
1327,15.275797,0,1,0,-4,-2,-1025
1328,15.287375,0,1,-1,2,-1,-1021
1329,15.298928,0,0,0,3,-1,-1022
1330,15.310481,0,0,0,-1,-2,-1025
1331,15.322038,0,0,0,0,1,-1030
1332,15.333674,0,1,0,4,-4,-1028
1333,15.345332,-1,0,-1,-1,1,-1022
1334,15.357008,0,1,-1,0,1,-1020
1335,15.368674,0,0,0,2,2,-1026
1336,15.380327,0,0,0,0,1,-1025
1337,15.391981,1,1,0,-2,0,-1024
1338,15.403636,0,1,-1,1,2,-1021
1339,15.415301,0,0,0,-1,-2,-1024
1340,15.426959,0,1,0,0,-1,-1026
1341,15.438616,0,0,0,-1,-1,-1026
1342,15.450189,0,0,0,1,0,-1029
1343,15.461753,0,0,0,2,0,-1027
1344,15.473303,0,0,0,1,2,-1026
1345,15.484861,0,0,-1,0,0,-1024
1346,15.49642,0,0,0,1,-3,-1021
1347,15.507977,0,0,0,4,0,-1024
1348,15.519555,0,0,0,2,2,-1026
1349,15.531164,0,0,0,3,3,-1021
1350,15.542792,0,0,-1,-2,0,-1027
1351,15.554465,0,0,-1,1,0,-1028
1352,15.566114,0,0,0,-2,2,-1020
1353,15.577797,0,0,-2,-3,2,-1026
1354,15.58946,0,1,0,-1,0,-1027
1355,15.601114,1,0,0,2,-2,-1023
1356,15.612786,1,0,0,-1,0,-1025
1357,15.624442,1,0,0,1,5,-1019
1358,15.636122,0,0,0,1,2,-1026
1359,15.647787,0,1,0,-2,-3,-1026
1360,15.65936,1,1,-1,-3,-1,-1017
1361,15.670941,0,0,0,0,-1,-1031
1362,15.682492,1,0,0,-1,-2,-1018
1363,15.694058,0,-1,0,1,2,-1026
1364,15.705633,0,0,0,-3,2,-1025
1365,15.717174,0,0,0,-2,1,-1025
1366,15.728734,0,1,0,2,0,-1025
1367,15.740292,0,0,0,-2,-1,-1023
1368,15.751909,0,0,-1,-3,0,-1023
1369,15.763564,1,-1,0,-1,0,-1028
1370,15.775219,1,0,0,2,-2,-1029
1371,15.786889,0,1,0,0,-2,-1028
1372,15.798556,1,0,0,0,-2,-1021
1373,15.810217,1,0,0,-1,3,-1030
1374,15.821905,0,1,-1,-2,-4,-1024
1375,15.833536,0,0,-1,-1,3,-1026
1376,15.845194,0,0,0,0,1,-1026
1377,15.856855,1,0,0,-4,-1,-1018
1378,15.868424,0,0,-1,-4,-2,-1024
1379,15.879988,-1,0,1,3,-2,-1029
1380,15.891582,0,0,0,3,0,-1019
1381,15.90317,0,1,0,-2,-2,-1029
1382,15.914745,0,0,-1,-2,3,-1024
1383,15.926299,1,0,-1,-3,0,-1021
1384,15.937876,1,0,-1,-1,-2,-1027
1385,15.949443,0,0,0,-2,0,-1028
1386,15.961096,0,1,0,0,-2,-1027
1387,15.972775,0,1,0,-1,0,-1032
1388,15.98443,1,0,-1,-2,2,-1028
1389,15.996074,0,0,0,0,1,-1026
1390,16.00773,0,1,0,3,-1,-1030
1391,16.01942,0,0,0,-3,3,-1028
1392,16.031066,0,0,0,-4,2,-1023
1393,16.042751,0,0,0,-4,-3,-1021
1394,16.054435,0,0,-1,2,-3,-1026
1395,16.065992,0,0,0,-1,0,-1026
1396,16.077596,0,0,-1,1,-1,-1025
1397,16.089152,0,0,-1,2,0,-1024
1398,16.100737,0,1,1,-3,-1,-1022
1399,16.112282,0,1,1,5,-2,-1017
1400,16.123828,0,0,0,-3,-1,-1028
1401,16.13538,0,1,0,1,2,-1023
1402,16.146946,-1,1,0,1,-1,-1022
1403,16.158551,0,0,0,-1,2,-1028
1404,16.170259,0,0,0,-3,1,-1029
1405,16.181947,1,0,0,0,-2,-1022
1406,16.193626,1,0,-1,0,2,-1027
1407,16.205277,0,1,0,-2,1,-1026
1408,16.216935,1,0,-1,3,4,-1023
1409,16.228591,0,1,0,-3,-1,-1019
1410,16.240262,0,-1,0,1,0,-1019
1411,16.251935,0,0,0,2,-4,-1022
1412,16.263631,1,0,0,0,-1,-1027
1413,16.275193,0,1,0,-4,-1,-1024
1414,16.28675,0,1,-1,2,0,-1028
1415,16.298299,1,0,-1,0,-2,-1024
1416,16.309863,1,-1,0,-2,5,-1021
1417,16.32143,1,-1,0,1,-3,-1025
1418,16.332986,1,0,0,1,2,-1028
1419,16.34454,0,0,-1,-4,0,-1025
1420,16.356111,0,0,0,2,5,-1026
1421,16.36772,1,1,0,0,0,-1029
1422,16.379391,1,0,0,-2,3,-1021
1423,16.391048,0,0,0,-1,-1,-1034
1424,16.402702,0,0,-1,1,1,-1027
1425,16.414372,1,0,0,-3,-6,-1024
1426,16.42605,0,0,0,-1,2,-1025
1427,16.4377,0,0,-1,2,1,-1025
1428,16.449344,1,0,0,-2,-3,-1021
1429,16.461007,0,1,0,0,1,-1024
1430,16.472557,0,0,0,1,1,-1025
1431,16.484101,1,1,0,3,2,-1027
1432,16.495649,-1,0,-1,-3,0,-1028
1433,16.50722,-1,-1,0,1,3,-1023
1434,16.518774,0,0,0,-1,5,-1021
1435,16.530356,0,-1,0,-4,1,-1022
1436,16.541904,0,0,-1,-3,-3,-1022
1437,16.553487,0,0,-1,1,3,-1025
1438,16.56504,0,1,-1,0,2,-1024
1439,16.57666,1,0,0,3,0,-1019
1440,16.588312,0,0,-1,0,-1,-1022
1441,16.59998,0,0,0,3,-2,-1018
1442,16.611645,0,1,0,1,0,-1022
1443,16.623305,0,0,0,5,1,-1028
1444,16.634991,0,0,-1,-2,2,-1020
1445,16.646673,1,0,-1,0,1,-1022
1446,16.658317,1,-1,0,0,1,-1023
1447,16.669992,0,0,0,1,1,-1024
1448,16.681667,0,-1,1,0,3,-1029
1449,16.693255,0,-1,0,3,0,-1027
1450,16.704843,0,0,0,-3,1,-1026
1451,16.716387,1,0,1,1,2,-1031
1452,16.727942,0,0,0,-1,0,-1022
1453,16.739493,0,0,0,-3,0,-1031
1454,16.751038,0,1,0,-2,2,-1020
1455,16.762605,0,0,-1,0,2,-1017
1456,16.774189,0,0,0,-2,1,-1032
1457,16.785796,0,-1,0,-1,-1,-1030
1458,16.797456,0,0,0,-2,-1,-1024
1459,16.809128,0,0,0,2,2,-1024
1460,16.820779,0,0,0,-1,2,-1030
1461,16.832429,1,0,0,-3,4,-1021
1462,16.844082,0,0,1,-3,-2,-1026
1463,16.855729,0,0,0,2,-1,-1029
1464,16.867387,0,0,0,-4,-2,-1030
1465,16.879035,0,0,0,1,0,-1030
1466,16.890607,0,0,1,-1,-2,-1021
1467,16.90219,0,0,0,-4,0,-1027
1468,16.913751,-1,0,1,3,4,-1016
1469,16.925305,0,0,-1,4,0,-1020
1470,16.936863,1,-1,0,0,1,-1020
1471,16.948447,0,0,-1,2,4,-1015
1472,16.960003,0,0,-1,-1,3,-1025
1473,16.971587,0,0,0,-2,1,-1023
1474,16.983167,1,0,0,-4,-2,-1021
1475,16.994794,0,1,0,2,0,-1028
1476,17.006446,0,1,0,-2,-3,-1023
1477,17.018104,0,-1,1,0,2,-1021
1478,17.029792,0,0,0,0,1,-1021
1479,17.041442,0,1,0,-4,5,-1021
1480,17.053095,0,0,0,-1,2,-1031
1481,17.064769,0,0,0,1,2,-1023
1482,17.076421,1,1,0,-1,2,-1024
1483,17.088086,0,0,0,2,-1,-1020
1484,17.099749,0,1,1,3,-1,-1026
1485,17.111304,0,0,0,-1,2,-1023
1486,17.122857,0,0,-1,4,3,-1025
1487,17.134415,0,0,0,-3,-2,-1027
1488,17.146006,1,0,0,-1,0,-1028
1489,17.157624,0,1,0,1,-2,-1028
1490,17.169195,0,0,-1,-3,1,-1025
1491,17.180745,1,-1,0,-3,1,-1031
1492,17.192346,0,0,0,0,-5,-1025
1493,17.203981,0,0,0,3,1,-1030
1494,17.215669,0,0,0,-3,-1,-1020
1495,17.227312,1,0,0,-1,-5,-1027
1496,17.238965,0,-1,0,1,-1,-1020
1497,17.250644,0,0,-1,2,-1,-1023
1498,17.262286,0,0,0,-3,1,-1022
1499,17.273956,0,0,0,1,5,-1029
1500,17.285662,1,0,0,1,-3,-1016
1501,17.297289,0,0,0,2,-2,-1019
1502,17.308949,0,0,1,0,-6,-1025
1503,17.320509,0,0,0,0,0,-1022
1504,17.332059,0,-1,0,0,2,-1027
1505,17.343612,0,0,0,2,2,-1024
1506,17.355199,0,0,0,0,-4,-1021
1507,17.366776,0,0,0,-3,3,-1026
1508,17.378351,0,0,0,1,-1,-1025
1509,17.389903,0,0,0,4,-1,-1025
1510,17.401504,0,-1,-1,0,-2,-1027
1511,17.413151,0,0,0,1,-1,-1020
1512,17.424816,0,-1,0,4,-1,-1027
1513,17.436493,1,0,0,0,-1,-1023
1514,17.448158,1,0,0,-1,3,-1028
1515,17.459813,1,0,1,1,0,-1026
1516,17.471481,0,1,0,0,1,-1021
1517,17.483134,0,0,0,3,-1,-1024
1518,17.494826,0,1,0,5,4,-1029
1519,17.506522,1,0,0,-1,1,-1023
1520,17.518191,0,1,0,-2,1,-1027
1521,17.529747,0,0,0,-1,-1,-1021
1522,17.541339,0,0,0,1,5,-1024
1523,17.552891,1,0,0,1,-1,-1031
1524,17.564437,0,0,-1,-2,0,-1022
1525,17.575984,0,0,0,-1,1,-1025
1526,17.587533,0,1,-1,-3,0,-1027
1527,17.599082,0,0,0,-2,-2,-1030
1528,17.610688,0,0,0,0,2,-1028
1529,17.622312,0,0,0,-3,4,-1024
1530,17.633998,0,0,0,1,3,-1034
1531,17.6457,0,0,0,-1,-3,-1027
1532,17.657404,-1,0,0,-2,1,-1022
1533,17.669052,1,-1,1,-1,2,-1029
1534,17.680717,0,0,0,-1,7,-1028
1535,17.692418,0,0,0,-4,1,-1026
1536,17.704097,0,0,0,0,-2,-1019
1537,17.715796,0,0,-1,-3,5,-1021
1538,17.727482,0,0,0,-2,2,-1028
1539,17.739078,0,0,0,-1,1,-1027
1540,17.750628,1,0,0,-1,-2,-1020
1541,17.762183,1,-1,0,-3,-2,-1025
1542,17.773748,0,0,-1,-2,-2,-1027
1543,17.785263,0,1,-1,-1,1,-1021
1544,17.796808,0,0,0,3,3,-1023
1545,17.808351,1,0,0,-1,0,-1023
1546,17.819926,1,-1,1,-3,-4,-1030
1547,17.83155,0,0,0,-2,1,-1026
1548,17.84322,0,0,-1,-1,1,-1031
1549,17.85489,1,1,0,-2,-1,-1025
1550,17.866561,0,0,0,2,-1,-1019
1551,17.87824,1,0,0,-2,1,-1021
1552,17.889921,0,0,0,-2,-3,-1019
1553,17.901571,0,0,0,-1,4,-1022
1554,17.91326,0,0,0,-2,2,-1016
1555,17.924921,1,1,0,-2,-1,-1024
1556,17.936589,1,-1,0,-1,-3,-1022
1557,17.948155,1,0,0,1,0,-1028
1558,17.959709,0,0,0,0,-1,-1027
1559,17.971269,1,1,0,-1,2,-1025
1560,17.98286,0,-1,0,2,0,-1021
1561,17.99444,0,1,0,-2,2,-1024
1562,18.005985,1,0,0,-2,1,-1022
1563,18.017502,1,-1,0,0,-1,-1030
1564,18.029053,1,1,0,-4,2,-1024
1565,18.040678,0,0,-1,1,2,-1026
1566,18.05233,0,1,0,3,-1,-1021
1567,18.063981,0,1,0,-1,-4,-1027
1568,18.075661,1,0,0,-2,0,-1017
1569,18.087308,0,0,0,-2,5,-1028
1570,18.098978,0,1,0,-1,3,-1021
1571,18.110685,0,0,0,1,1,-1028
1572,18.12234,0,0,0,4,4,-1028
1573,18.134069,0,1,0,-3,1,-1027
1574,18.145731,0,0,0,0,0,-1022
1575,18.157331,0,0,-1,-3,-1,-1026
1576,18.1709,1,0,-1,-3,2,-1025
1577,18.182487,0,1,-1,1,5,-1030
1578,18.194082,0,0,0,-2,-1,-1025
1579,18.205639,0,0,0,-1,0,-1026
1580,18.217195,0,-1,-1,3,0,-1031
1581,18.228743,0,0,0,-4,0,-1028
1582,18.240282,1,-1,0,1,-1,-1023
1583,18.251829,0,-1,0,-2,2,-1029
1584,18.263377,0,0,0,1,-3,-1026
1585,18.274959,0,-1,0,-2,2,-1024
1586,18.286518,0,0,1,-1,-7,-1027
1587,18.298087,0,0,0,2,-2,-1023
1588,18.309637,0,0,1,0,5,-1023
1589,18.321191,1,0,1,-2,2,-1024
1590,18.332739,1,0,0,1,1,-1022
1591,18.344292,0,0,0,-3,5,-1022
1592,18.355942,0,0,0,0,2,-1025
1593,18.367599,0,-1,0,0,1,-1025
1594,18.379277,-1,-1,0,2,0,-1035
1595,18.390936,0,0,0,0,2,-1023
1596,18.402555,1,1,0,-2,4,-1023
1597,18.414211,0,0,-1,4,1,-1019
1598,18.425919,0,1,0,1,4,-1027
1599,18.437532,0,0,0,2,0,-1027
1600,18.449193,0,0,0,-1,2,-1023
1601,18.460768,0,-1,0,0,3,-1025
1602,18.472339,0,0,1,2,-1,-1030
1603,18.483931,0,-1,0,-2,-2,-1026
1604,18.495476,1,0,0,2,1,-1024
1605,18.507016,0,1,-1,3,2,-1024
1606,18.518612,0,0,0,-1,1,-1029
1607,18.530169,1,0,1,-2,0,-1024
1608,18.541743,1,1,0,-1,3,-1024
1609,18.553355,0,0,0,-1,1,-1019
1610,18.565014,0,0,0,0,1,-1018
1611,18.576673,0,0,0,-2,1,-1026
1612,18.588323,0,0,0,-3,-1,-1024
1613,18.599981,0,0,0,-5,0,-1032
1614,18.611658,1,0,-1,-2,-1,-1026
1615,18.623313,1,0,1,0,3,-1025
1616,18.635008,0,-1,1,1,2,-1023
1617,18.646678,1,-1,0,0,2,-1018
1618,18.658312,1,1,0,2,0,-1021
1619,18.669971,0,0,1,-3,-1,-1025
1620,18.681595,0,1,0,-1,2,-1021
1621,18.693153,0,0,0,-1,1,-1022
1622,18.704723,0,0,0,0,1,-1030
1623,18.716304,1,0,0,0,-1,-1019
1624,18.727854,1,0,0,-1,0,-1026
1625,18.739415,1,0,0,1,-2,-1027
1626,18.75097,0,0,1,-1,1,-1026
1627,18.762528,1,0,0,-1,-1,-1023
1628,18.774177,1,0,0,-2,3,-1025
1629,18.785836,1,0,-1,-1,4,-1027
1630,18.797529,1,-1,-1,-4,-1,-1030
1631,18.809193,0,-1,0,2,1,-1021
1632,18.820848,1,0,0,3,2,-1030
1633,18.832514,0,0,0,-2,1,-1027
1634,18.844171,0,1,0,0,2,-1028
1635,18.855841,0,1,0,0,1,-1027
1636,18.867535,0,0,0,-4,2,-1028
1637,18.879197,0,0,0,-2,1,-1023
1638,18.890755,0,0,0,-1,4,-1023
1639,18.902309,0,0,0,0,2,-1026
1640,18.913872,1,0,0,-4,6,-1022
1641,18.925454,1,0,0,0,3,-1021
1642,18.937008,-1,0,0,-1,-1,-1025
1643,18.948584,0,0,0,1,-2,-1027
1644,18.96015,1,0,0,-3,1,-1028
1645,18.971727,0,0,0,-1,3,-1029
1646,18.98342,0,-1,-1,-1,1,-1023
1647,18.99509,0,0,0,2,3,-1023
1648,19.006752,0,0,0,-2,4,-1024
1649,19.018428,1,0,1,-1,1,-1023
1650,19.030108,0,0,0,-3,1,-1029
1651,19.04179,0,1,0,6,0,-1028
1652,19.053465,1,-1,1,-2,0,-1023
1653,19.065133,1,0,0,-2,1,-1021
1654,19.076797,1,0,1,3,-4,-1028
1655,19.088474,1,0,1,-1,-2,-1026
1656,19.100079,1,0,0,3,-2,-1025
1657,19.111635,0,-1,0,-2,2,-1026
1658,19.123217,0,0,0,2,1,-1021
1659,19.134759,0,0,1,1,1,-1020
1660,19.146345,1,1,1,1,1,-1020
1661,19.157922,0,0,0,2,-2,-1026
1662,19.169498,0,0,0,3,1,-1025
1663,19.181101,0,0,-1,-2,0,-1022
1664,19.192792,0,-1,-1,-2,-3,-1029
1665,19.204459,0,0,0,-1,0,-1020
1666,19.216131,1,1,0,-2,1,-1020
1667,19.227799,1,0,0,0,0,-1029
1668,19.239456,0,0,0,-1,2,-1029
1669,19.251134,1,0,-1,4,-3,-1028
1670,19.262823,1,0,0,4,2,-1026
1671,19.274502,1,1,0,-4,0,-1021
1672,19.286192,0,0,0,2,0,-1029
1673,19.297842,-1,0,0,-1,1,-1027
1674,19.309439,0,0,1,-3,3,-1022
1675,19.320991,-1,0,0,-2,2,-1024
1676,19.332575,1,0,0,2,-2,-1017
1677,19.344114,1,0,0,3,-2,-1027
1678,19.355666,0,0,0,-2,1,-1023
1679,19.36722,0,0,0,-4,4,-1021
1680,19.378765,0,0,0,2,-1,-1025
1681,19.390348,0,0,0,2,3,-1030
1682,19.402049,0,0,0,0,-2,-1035
1683,19.413733,0,0,1,3,0,-1021
1684,19.425433,0,1,1,-4,2,-1026
1685,19.437373,0,1,0,-3,2,-1025
1686,19.449186,0,0,0,-3,-2,-1024
1687,19.460865,0,0,0,0,3,-1022
1688,19.472538,-1,1,1,6,2,-1022
1689,19.484199,0,0,0,0,3,-1022
1690,19.495881,0,0,0,1,1,-1027
1691,19.507593,0,1,0,1,1,-1028
1692,19.51918,1,0,0,-2,-1,-1032
1693,19.530725,0,-1,-1,4,2,-1025
1694,19.542287,0,0,0,0,0,-1022
1695,19.553875,0,0,0,1,0,-1027
1696,19.565451,0,1,0,2,-1,-1027
1697,19.577014,0,0,0,0,5,-1020
1698,19.588603,1,0,-1,0,-3,-1022
1699,19.600243,1,1,0,-4,-4,-1028
1700,19.611893,0,0,0,1,2,-1022
1701,19.623568,0,0,0,0,-4,-1024
1702,19.635245,1,0,0,2,4,-1029
1703,19.646904,0,-1,-1,2,3,-1024
1704,19.658567,0,-1,0,2,2,-1020
1705,19.670218,0,0,0,-3,-3,-1027
1706,19.682025,1,0,0,-4,4,-1023
1707,19.693876,0,0,0,-3,-3,-1022
1708,19.705646,0,0,0,2,0,-1016
1709,19.717336,0,0,0,1,-2,-1024
1710,19.728936,0,0,0,0,-1,-1024
1711,19.740488,0,0,0,-4,3,-1027
1712,19.752031,0,-1,0,4,-1,-1023
1713,19.763589,0,0,-1,-2,1,-1025
1714,19.775175,0,0,0,4,1,-1024
1715,19.786734,0,-1,0,3,1,-1026
1716,19.798326,1,0,0,0,3,-1031
1717,19.809906,0,0,0,1,3,-1024
1718,19.82154,1,0,0,-2,1,-1028
1719,19.833215,1,1,-1,-1,0,-1028
1720,19.844872,0,1,0,-1,3,-1028
1721,19.85653,0,0,0,0,1,-1029
1722,19.868188,1,0,0,2,0,-1025
1723,19.879839,0,1,0,0,-3,-1027
1724,19.891514,0,0,-1,0,2,-1030
1725,19.903186,0,0,-1,-2,2,-1025
1726,19.91486,1,0,0,-1,1,-1027
1727,19.926558,0,1,0,0,2,-1026
1728,19.93813,0,0,0,-4,2,-1025
1729,19.949699,1,0,1,0,1,-1030
1730,19.961257,0,-1,0,1,5,-1018
1731,19.972853,0,0,0,-2,2,-1022
1732,19.984437,0,0,0,1,0,-1026
1733,19.995979,1,0,0,-1,-2,-1021
1734,20.007527,1,0,1,0,2,-1021
1735,20.019091,0,0,0,4,-2,-1021
1736,20.030768,0,0,0,0,1,-1028
1737,20.042444,1,0,0,-3,3,-1020
1738,20.054112,1,0,0,1,2,-1018
1739,20.065793,1,0,1,0,-4,-1030
1740,20.077442,0,0,0,3,3,-1024
1741,20.089105,0,0,0,1,0,-1026
1742,20.100761,0,0,-1,0,0,-1020
1743,20.112429,1,0,0,1,-2,-1026
1744,20.124104,0,0,0,-4,0,-1026
1745,20.135766,0,0,0,0,-2,-1025
1746,20.147328,0,0,0,-1,2,-1024
1747,20.158882,0,0,0,1,-1,-1029
1748,20.170471,0,0,-1,-4,-2,-1020
1749,20.182072,0,0,0,5,-2,-1024
1750,20.193635,0,1,0,-3,3,-1027
1751,20.205201,1,0,0,-6,2,-1030
1752,20.216747,1,1,0,-3,2,-1031
1753,20.228305,0,0,0,0,0,-1023
1754,20.239932,1,0,0,-1,6,-1025
1755,20.251628,1,-1,0,-1,5,-1026
1756,20.263269,1,0,0,0,3,-1027
1757,20.274922,0,0,1,1,-2,-1027
1758,20.286604,0,0,0,-4,3,-1028
1759,20.298282,0,1,0,-3,1,-1024
1760,20.309949,0,1,0,-2,-1,-1026
1761,20.321665,1,1,0,3,4,-1024
1762,20.33333,0,0,0,-2,4,-1027
1763,20.345025,0,1,0,1,2,-1027
1764,20.356583,-1,0,0,1,-2,-1025
1765,20.368128,1,0,0,-2,5,-1025
1766,20.37968,1,0,0,-3,-3,-1027
1767,20.391232,1,0,0,1,1,-1027
1768,20.402777,1,-1,0,0,-2,-1027
1769,20.414344,1,-1,-1,-1,3,-1022
1770,20.425934,1,-1,-1,-2,6,-1024
1771,20.437516,0,0,-1,2,-3,-1021
1772,20.449132,0,0,0,0,2,-1023
1773,20.460792,0,1,0,2,-2,-1023
1774,20.47244,1,0,0,-3,1,-1026
1775,20.484095,1,1,0,-2,2,-1029
1776,20.495757,0,0,-1,-1,0,-1028
1777,20.507432,0,1,0,-2,-1,-1029
1778,20.519083,0,-1,0,-1,1,-1027
1779,20.530745,0,-1,0,-4,4,-1025
1780,20.54244,0,0,0,-1,-3,-1022
1781,20.554115,0,0,0,-2,-1,-1027
1782,20.565685,1,0,0,3,-1,-1025
1783,20.57726,1,0,1,1,1,-1024
1784,20.588836,1,0,0,0,-1,-1021
1785,20.600405,0,0,0,0,3,-1025
1786,20.611971,0,0,1,0,-2,-1030
1787,20.623519,0,0,1,-1,3,-1022
1788,20.635072,0,0,0,0,0,-1030
1789,20.646669,0,0,0,-1,1,-1030
1790,20.658304,1,0,0,-2,-2,-1025
1791,20.669978,0,-1,-1,1,1,-1027
1792,20.681652,1,0,1,0,1,-1030
1793,20.693275,-1,0,1,0,1,-1023
1794,20.704941,1,0,-1,0,0,-1029
1795,20.716632,0,0,0,-2,5,-1021
1796,20.728282,0,0,0,2,-1,-1028
1797,20.739952,0,-1,0,4,0,-1028
1798,20.751621,0,0,0,2,1,-1023
1799,20.763284,0,0,-1,1,0,-1020
1800,20.774843,0,0,-1,3,-6,-1023
1801,20.786397,0,0,0,4,0,-1021
1802,20.79798,0,0,0,0,2,-1029
1803,20.809507,0,-1,0,5,0,-1025
1804,20.821058,0,1,0,2,3,-1029
1805,20.832609,0,0,0,-2,-3,-1025
1806,20.844183,0,0,0,-2,2,-1026
1807,20.855744,0,0,1,1,4,-1018
1808,20.867371,0,0,0,2,-3,-1028
1809,20.879028,0,0,0,6,2,-1025
1810,20.890717,0,0,0,-1,2,-1028
1811,20.902379,1,0,0,0,-1,-1022
1812,20.914051,0,0,-1,-1,4,-1021
1813,20.925708,0,0,1,0,1,-1024
1814,20.937393,0,1,0,-1,1,-1027
1815,20.949051,0,0,0,-3,-2,-1029
1816,20.960726,0,0,0,0,-3,-1024
1817,20.972382,1,0,0,-3,3,-1026
1818,20.98395,0,0,0,-1,3,-1029
1819,20.995502,1,1,0,1,0,-1030
1820,21.007054,0,0,0,-3,0,-1023
1821,21.018613,0,0,0,1,1,-1023
1822,21.030188,1,0,0,0,-1,-1026
1823,21.041751,0,0,-1,4,-1,-1024
1824,21.053319,0,-1,0,-4,2,-1025
1825,21.064872,0,-1,0,-1,4,-1024
1826,21.076498,0,-1,0,-3,0,-1024
1827,21.08819,0,-1,0,1,4,-1020
1828,21.099849,0,0,0,-1,1,-1020
1829,21.111509,1,0,0,0,3,-1025
1830,21.123185,0,0,0,0,-1,-1027
1831,21.134848,1,0,0,-2,2,-1026
1832,21.146534,0,-1,-1,-3,-2,-1021
1833,21.158183,0,0,0,1,-3,-1031
1834,21.169856,0,0,0,2,3,-1026
1835,21.181514,1,0,0,-2,1,-1027
1836,21.193075,0,0,0,-1,0,-1029
1837,21.204626,0,0,-1,4,-1,-1021
1838,21.216179,0,0,1,1,3,-1018
1839,21.227731,0,0,0,-1,2,-1028
1840,21.239287,1,0,0,1,-2,-1022
1841,21.250842,0,-1,-1,2,3,-1030
1842,21.262414,1,0,0,-1,-2,-1029
1843,21.273992,0,0,0,-2,-3,-1023
1844,21.285689,0,-1,0,-3,1,-1031
1845,21.297386,0,-1,1,0,5,-1024
1846,21.30904,0,0,0,1,-2,-1022
1847,21.320715,0,-1,0,0,1,-1021
1848,21.332369,0,-1,1,0,2,-1021
1849,21.344018,0,0,1,-3,0,-1023
1850,21.355664,1,0,0,2,1,-1023
1851,21.367335,1,-1,-1,4,1,-1024
1852,21.378991,0,0,-1,1,-2,-1026
1853,21.390687,0,-1,0,1,2,-1028
1854,21.402361,0,0,0,-1,-3,-1029
1855,21.414035,0,0,1,-1,1,-1027
1856,21.425705,0,-1,0,4,2,-1029
1857,21.437389,0,0,-1,0,0,-1026
1858,21.449064,0,0,-1,-1,2,-1018
1859,21.460732,0,0,0,2,-2,-1026
1860,21.472377,1,1,-1,-1,4,-1020
1861,21.484045,0,0,0,-2,0,-1022
1862,21.49572,0,0,-1,-5,0,-1033
1863,21.507371,-1,-1,0,0,-3,-1027
1864,21.519022,0,0,-1,-2,0,-1028
1865,21.530714,1,0,0,0,4,-1025
1866,21.54237,0,0,0,0,0,-1025
1867,21.554045,0,0,0,0,0,-1023
1868,21.565698,1,0,1,-4,3,-1024
1869,21.577361,0,0,0,2,2,-1020
1870,21.589052,1,0,0,-1,0,-1029
1871,21.600717,0,0,0,-3,2,-1024
1872,21.612283,0,0,0,1,5,-1023
1873,21.623842,0,-1,0,-1,5,-1025
1874,21.635424,0,1,0,0,0,-1027
1875,21.646975,1,0,-1,-2,-2,-1023
1876,21.658558,0,-1,0,1,-5,-1024
1877,21.670116,0,-1,0,0,0,-1026
1878,21.68168,1,-1,-1,-4,2,-1022
1879,21.693264,0,0,0,-2,1,-1025
1880,21.704923,0,0,0,1,1,-1018
1881,21.71659,0,0,0,4,1,-1027
1882,21.728252,0,0,0,3,0,-1023
1883,21.739901,0,0,-1,2,-1,-1027
1884,21.751553,0,0,0,2,-2,-1028
1885,21.763231,0,0,0,7,-1,-1027
1886,21.774882,0,0,0,0,2,-1026
1887,21.786581,0,-1,0,-1,2,-1026
1888,21.798257,1,-1,0,-2,-1,-1032
1889,21.809934,0,0,0,0,-1,-1028
1890,21.821638,1,0,0,-1,1,-1022
1891,21.833276,1,0,-1,0,-3,-1024
1892,21.84495,1,0,0,1,0,-1022
1893,21.856609,0,1,0,-3,4,-1028
1894,21.868264,1,0,0,6,3,-1028
1895,21.879929,1,-1,1,1,5,-1024
1896,21.8916,0,0,0,0,2,-1023
1897,21.903282,1,-1,-1,1,0,-1029
1898,21.91496,0,0,1,-2,1,-1022
1899,21.926618,0,0,0,-3,1,-1021
1900,21.938295,0,0,0,-1,2,-1025
1901,21.949976,0,0,0,1,1,-1020
1902,21.961652,0,0,0,2,-1,-1021
1903,21.973276,1,-1,-1,-2,4,-1023
1904,21.98495,0,0,1,1,1,-1022
1905,21.99661,0,-1,0,-1,2,-1025
1906,22.008327,1,0,0,-1,-2,-1022
1907,22.020004,0,0,0,-4,0,-1024
1908,22.031573,1,0,0,-4,2,-1038
1909,22.043128,0,0,0,2,0,-1026
1910,22.054716,0,-1,0,0,0,-1029
1911,22.066303,0,0,0,-3,-1,-1028
1912,22.077878,0,0,0,0,-2,-1022
1913,22.089443,0,-1,0,-1,-1,-1025
1914,22.100983,0,1,-1,-1,0,-1030
1915,22.112531,0,1,-1,-2,0,-1025
1916,22.124202,1,1,0,3,0,-1027
1917,22.135864,0,0,0,0,0,-1021
1918,22.14752,0,0,0,0,0,-1025
1919,22.159183,0,0,-1,-2,2,-1022
1920,22.170834,1,0,0,-2,1,-1027
1921,22.1825,0,-1,0,-4,0,-1025
1922,22.194205,1,-1,1,-2,4,-1015
1923,22.205866,0,0,0,-3,0,-1022
1924,22.21757,0,0,0,-3,1,-1028
1925,22.229269,0,0,0,2,-1,-1025
1926,22.240828,1,-1,0,3,1,-1031
1927,22.252375,1,1,0,4,2,-1024
1928,22.263935,0,0,0,1,0,-1024
1929,22.275484,0,0,0,0,0,-1026
1930,22.287054,0,0,-1,-3,1,-1021
1931,22.298605,0,-1,0,2,0,-1021
1932,22.310158,1,0,-1,-2,1,-1023
1933,22.321739,0,0,-1,-2,3,-1026
1934,22.333402,1,0,0,-2,-1,-1018
1935,22.345053,1,0,0,-1,0,-1024
1936,22.356722,0,0,-1,-1,2,-1027
1937,22.368368,0,0,0,-2,3,-1025
1938,22.380017,0,0,1,0,-1,-1030
1939,22.391676,0,0,0,1,0,-1025
1940,22.403344,1,0,0,-1,2,-1027
1941,22.414998,0,0,0,-3,-5,-1027
1942,22.426707,0,0,-1,-4,2,-1026
1943,22.438369,0,1,0,-5,2,-1026
1944,22.449931,1,0,0,-1,5,-1023
1945,22.46151,0,0,0,2,1,-1022
1946,22.473068,0,0,0,-1,2,-1024
1947,22.484638,1,0,-1,-1,0,-1025
1948,22.496186,0,0,0,-2,2,-1024
1949,22.507739,0,0,0,1,4,-1026
1950,22.519288,1,0,-1,-2,1,-1021
1951,22.53085,1,0,0,-3,1,-1033
1952,22.542493,0,0,0,0,-3,-1030
1953,22.55418,1,1,-1,2,3,-1026
1954,22.565871,1,0,0,3,1,-1024
1955,22.577551,1,-1,0,-2,0,-1024
1956,22.589215,0,1,0,1,1,-1022
1957,22.600861,0,0,0,-2,2,-1023
1958,22.612515,0,0,0,0,0,-1023
1959,22.624163,0,0,0,1,2,-1018
1960,22.635813,1,0,0,0,-2,-1025
1961,22.647424,0,0,0,3,2,-1020
1962,22.658996,0,-1,0,-1,4,-1027
1963,22.670575,0,0,0,-1,-2,-1024
1964,22.682153,0,0,0,-1,-2,-1024
1965,22.693726,0,0,0,-1,-2,-1026
1966,22.705264,0,0,0,0,3,-1022
1967,22.716815,1,0,0,-1,2,-1024
1968,22.728364,1,0,0,0,1,-1027
1969,22.739922,0,1,0,1,1,-1023
1970,22.751562,0,0,0,1,-2,-1028
1971,22.763236,0,0,0,1,-1,-1027
1972,22.774889,0,0,0,5,0,-1025
1973,22.786559,0,-1,0,-3,0,-1022
1974,22.798227,0,0,0,1,0,-1024
1975,22.809914,1,0,0,-3,0,-1021
1976,22.821608,0,0,0,0,0,-1024
1977,22.83327,0,0,0,1,-2,-1016
1978,22.844945,0,1,0,0,3,-1027
1979,22.85649,0,0,0,2,-1,-1022
1980,22.868039,0,-1,1,2,0,-1026
1981,22.879589,0,-1,0,-1,0,-1019
1982,22.891174,0,-1,0,-2,-1,-1027
1983,22.902744,0,0,0,1,-1,-1028
1984,22.914305,0,0,-1,-5,0,-1023
1985,22.925867,0,0,0,1,4,-1023
1986,22.93745,0,1,0,-1,3,-1032
1987,22.949005,0,0,0,-3,1,-1030
1988,22.960632,0,1,0,1,-2,-1024
1989,22.972285,1,0,0,-1,1,-1023
1990,22.983942,0,1,-1,-3,3,-1026
1991,22.995615,0,1,0,-1,0,-1027
1992,23.007258,1,0,1,0,4,-1025
1993,23.018908,0,0,1,0,1,-1020
1994,23.030591,0,0,0,-2,-3,-1017
1995,23.042241,0,-1,0,-1,1,-1023
1996,23.053942,0,0,0,0,2,-1028
1997,23.06556,0,0,0,0,-2,-1026
1998,23.077138,0,0,0,-1,1,-1025
1999,23.088694,0,0,-1,1,2,-1023
