sample,t_s,gyro_x,gyro_y,gyro_z,accel_x,accel_y,accel_z
0,1.1e-05,3,7,8,9,26,-1026
1,0.01148,2,9,8,12,27,-1033
2,0.0227,1,4,8,12,21,-1027
3,0.033892,2,7,8,9,23,-1021
4,0.045086,2,6,9,12,25,-1024
5,0.056274,2,6,9,11,27,-1028
6,0.067478,1,5,8,9,28,-1029
7,0.07867,2,7,8,7,27,-1016
8,0.089856,2,6,8,11,25,-1019
9,0.101046,3,7,9,11,29,-1018
10,0.112234,3,7,9,14,25,-1017
11,0.123423,3,6,9,13,24,-1025
12,0.134607,3,6,9,13,22,-1022
13,0.145794,2,6,9,11,26,-1017
14,0.156981,2,7,8,13,24,-1028
15,0.168164,3,6,8,15,27,-1020
16,0.179356,2,6,9,14,26,-1021
17,0.190541,2,6,9,13,26,-1019
18,0.201723,2,5,8,12,25,-1020
19,0.212913,2,6,9,13,24,-1021
20,0.224102,3,5,9,11,24,-1023
21,0.235283,3,5,9,12,26,-1021
22,0.24647,2,6,9,12,22,-1026
23,0.257678,3,5,9,11,26,-1023
24,0.268861,3,6,8,8,24,-1017
25,0.280046,3,7,8,10,26,-1019
26,0.291232,3,7,8,10,27,-1022
27,0.302415,3,6,9,10,22,-1024
28,0.313599,3,6,7,7,28,-1018
29,0.324785,3,6,7,12,27,-1020
30,0.335976,2,7,8,11,28,-1017
31,0.347304,1,8,6,8,27,-1024
32,0.358559,2,6,8,10,27,-1017
33,0.369752,2,6,8,14,23,-1018
34,0.380946,3,7,9,10,26,-1013
35,0.392131,3,7,8,10,22,-1025
36,0.403282,3,8,9,10,26,-1021
37,0.414498,2,7,8,15,24,-1019
38,0.425689,2,7,8,12,32,-1024
39,0.436875,3,7,8,12,25,-1024
40,0.448063,2,7,8,10,27,-1020
41,0.459252,2,7,9,11,24,-1029
42,0.470437,3,7,9,13,27,-1018
43,0.481626,3,6,9,15,23,-1017
44,0.492811,2,6,9,13,25,-1023
45,0.503997,3,6,9,14,29,-1020
46,0.515185,3,6,9,11,26,-1015
47,0.526368,2,6,9,11,26,-1018
48,0.537555,3,7,9,13,22,-1021
49,0.548747,2,5,9,10,24,-1017
50,0.559929,1,5,9,13,24,-1017
51,0.571098,2,7,9,11,26,-1024
52,0.582286,3,7,9,13,24,-1017
53,0.59347,2,6,9,12,24,-1022
54,0.604656,3,6,8,7,26,-1024
55,0.615839,3,6,8,11,26,-1026
56,0.62703,3,7,9,7,24,-1027
57,0.638218,2,7,8,12,25,-1020
58,0.649402,3,6,9,10,28,-1019
59,0.660589,4,7,9,12,31,-1015
60,0.671775,3,6,9,12,27,-1021
61,0.682973,2,6,9,14,29,-1017
62,0.694157,2,6,9,12,25,-1024
63,0.705346,2,5,9,10,29,-1026
64,0.716531,2,5,9,12,28,-1024
65,0.72772,2,4,9,12,26,-1029
66,0.738914,2,6,9,9,26,-1021
67,0.7501,2,5,9,14,27,-1021
68,0.761282,2,5,9,15,20,-1021
69,0.772522,2,4,8,14,28,-1020
70,0.783804,3,7,9,9,24,-1024
71,0.794997,3,6,8,11,25,-1024
72,0.806179,3,7,7,15,28,-1027
73,0.817366,2,6,7,13,20,-1020
74,0.828549,3,5,7,10,30,-1024
75,0.839732,3,6,8,10,27,-1021
76,0.850913,2,6,9,15,25,-1017
77,0.8621,1,5,9,10,24,-1022
78,0.873284,2,5,8,15,27,-1031
79,0.884473,3,5,9,15,24,-1013
80,0.895654,2,5,9,12,24,-1023
81,0.906855,2,6,8,9,24,-1018
82,0.918042,2,6,8,15,26,-1016
83,0.929225,3,6,8,14,32,-1018
84,0.94041,2,6,9,9,23,-1027
85,0.951596,3,6,9,13,24,-1023
86,0.962784,2,6,8,14,26,-1021
87,0.973993,2,5,8,13,25,-1021
88,0.985176,3,5,9,15,27,-1020
89,0.996358,2,6,9,8,26,-1019
90,1.007544,2,6,8,13,28,-1023
91,1.018729,3,6,9,15,25,-1019
92,1.029911,2,5,10,13,28,-1019
93,1.041098,2,7,9,11,24,-1022
94,1.052287,2,6,10,11,24,-1019
95,1.06347,2,6,9,12,25,-1020
96,1.074665,3,6,9,9,24,-1023
97,1.08585,2,4,8,14,24,-1017
98,1.097032,2,4,9,13,21,-1021
99,1.108218,2,5,8,13,28,-1021
100,1.119406,2,5,9,13,23,-1027
101,1.130616,2,4,9,12,26,-1018
102,1.141803,2,7,9,12,26,-1024
103,1.152987,3,6,9,12,23,-1022
104,1.164172,2,7,8,11,24,-1026
105,1.17536,3,7,9,10,24,-1016
106,1.186542,2,7,9,10,24,-1013
107,1.197727,3,7,8,12,24,-1025
108,1.208915,3,7,9,14,21,-1019
109,1.220107,2,6,8,9,28,-1022
110,1.231285,2,7,8,13,30,-1026
111,1.242468,3,7,8,14,27,-1023
112,1.253654,3,7,7,12,25,-1023
113,1.264838,3,7,8,15,29,-1021
114,1.276024,2,7,8,14,30,-1023
115,1.287213,2,7,8,18,27,-1027
116,1.298401,3,7,8,15,23,-1020
117,1.309586,2,7,9,13,26,-1020
118,1.320779,2,7,9,13,24,-1019
119,1.331962,3,7,9,11,25,-1029
120,1.343159,2,6,9,10,24,-1021
121,1.354346,2,6,9,15,28,-1019
122,1.365531,2,6,9,11,28,-1021
123,1.37672,2,6,9,12,29,-1017
124,1.387906,2,6,8,11,24,-1020
125,1.399093,3,5,8,9,25,-1023
126,1.410278,2,4,8,13,27,-1021
127,1.421462,2,6,8,14,25,-1017
128,1.432648,3,6,9,11,25,-1026
129,1.443839,2,6,9,13,27,-1020
130,1.455031,2,6,8,11,27,-1016
131,1.46621,3,6,7,18,27,-1016
132,1.477398,2,6,8,15,31,-1021
133,1.488597,3,6,9,13,25,-1022
134,1.499781,2,7,9,15,29,-1015
135,1.510974,3,8,10,12,23,-1020
136,1.522157,2,7,10,15,25,-1023
137,1.533342,3,7,9,11,22,-1024
138,1.544528,2,7,9,12,23,-1020
139,1.555718,3,6,9,12,30,-1017
140,1.566912,2,6,9,11,22,-1022
141,1.578104,2,5,8,13,27,-1021
142,1.589286,2,5,9,13,25,-1018
143,1.60047,3,6,8,16,24,-1025
144,1.611651,2,4,8,13,23,-1020
145,1.622836,2,5,9,17,23,-1025
146,1.634023,1,5,8,12,26,-1017
147,1.645208,2,6,8,12,23,-1022
148,1.656393,3,6,9,16,24,-1019
149,1.667579,2,5,9,8,23,-1020
150,1.678782,2,5,9,13,26,-1025
151,1.689967,2,6,9,13,24,-1018
152,1.701156,3,6,9,12,28,-1024
153,1.712341,2,6,8,11,27,-1018
154,1.723529,3,7,8,11,26,-1018
155,1.734722,2,7,8,11,24,-1022
156,1.745906,2,7,9,14,28,-1025
157,1.757091,2,6,9,12,25,-1022
158,1.768274,2,6,9,13,24,-1022
159,1.779463,2,7,8,11,25,-1022
160,1.790651,3,7,9,12,28,-1017
161,1.801837,2,6,9,15,28,-1022
162,1.813022,2,6,9,10,25,-1019
163,1.824205,2,6,9,10,26,-1021
164,1.835398,3,6,9,16,26,-1015
165,1.846551,3,6,11,13,27,-1015
166,1.857736,3,6,9,15,24,-1020
167,1.868915,2,5,9,13,24,-1025
168,1.880093,3,8,10,14,26,-1022
169,1.891276,3,7,8,10,26,-1020
170,1.902462,2,7,8,17,26,-1019
171,1.913641,3,6,8,12,24,-1025
172,1.924826,2,6,9,11,27,-1015
173,1.936009,2,5,8,15,25,-1015
174,1.947204,3,6,8,12,26,-1015
175,1.958391,3,7,8,13,25,-1018
176,1.969579,3,6,9,12,26,-1021
177,1.980772,3,8,9,12,27,-1014
178,1.991954,2,7,9,13,26,-1024
179,2.003152,2,6,8,11,22,-1027
180,2.014339,2,6,9,11,26,-1015
181,2.025523,2,6,8,9,20,-1021
182,2.036711,2,6,8,17,27,-1025
183,2.047896,2,4,9,10,26,-1028
184,2.05909,2,6,9,12,29,-1019
185,2.070273,2,6,8,17,27,-1024
186,2.081463,2,6,8,12,26,-1021
187,2.092647,2,6,9,12,27,-1026
188,2.103831,2,6,8,12,26,-1025
189,2.115032,3,5,8,11,25,-1017
190,2.126215,2,6,8,11,23,-1021
191,2.137397,3,7,8,11,26,-1026
192,2.148582,3,6,8,11,25,-1021
193,2.159765,2,7,8,12,25,-1024
194,2.170907,3,7,9,13,27,-1018
195,2.182087,2,5,9,13,25,-1015
196,2.193269,2,5,9,10,29,-1024
197,2.204466,2,7,10,12,23,-1017
198,2.215652,2,5,7,12,31,-1027
199,2.226844,2,5,8,9,28,-1026
200,2.238026,2,6,9,12,23,-1026
201,2.249211,2,5,8,10,29,-1017
202,2.260395,2,6,8,11,25,-1014
203,2.271584,2,5,9,13,23,-1024
204,2.282779,3,5,8,13,25,-1027
205,2.293961,3,6,9,14,27,-1017
206,2.30515,2,8,8,12,30,-1023
207,2.316336,3,8,8,12,26,-1020
208,2.327534,3,7,8,9,25,-1018
209,2.338731,2,7,9,18,28,-1024
210,2.349926,2,6,8,14,24,-1022
211,2.36111,4,7,8,11,24,-1025
212,2.372293,3,6,8,13,24,-1027
213,2.383466,3,6,8,11,24,-1022
214,2.394668,2,6,8,13,24,-1020
215,2.405853,2,6,8,13,19,-1022
216,2.417034,3,6,8,13,27,-1021
217,2.428217,2,5,8,10,27,-1021
218,2.439401,2,6,9,12,24,-1025
219,2.450585,2,6,8,9,27,-1024
220,2.461769,2,5,9,12,25,-1021
221,2.472955,2,5,8,12,27,-1024
222,2.484139,2,6,9,12,27,-1021
223,2.495327,3,6,9,12,29,-1027
224,2.50651,3,5,9,10,23,-1022
225,2.5177,2,5,9,18,27,-1020
226,2.528884,1,5,9,14,30,-1021
227,2.540067,2,5,9,11,25,-1027
228,2.551261,2,6,9,12,25,-1021
229,2.562455,2,6,9,16,24,-1022
230,2.573644,3,8,9,12,23,-1022
231,2.584834,3,7,8,14,25,-1021
232,2.596044,2,6,8,12,21,-1018
233,2.607236,2,6,9,15,26,-1023
234,2.61842,3,7,8,13,25,-1021
235,2.629602,2,6,9,12,27,-1023
236,2.640783,2,6,8,10,27,-1021
237,2.651965,2,5,9,11,26,-1023
238,2.663152,2,5,9,13,27,-1019
239,2.674334,2,5,9,11,23,-1016
240,2.685516,2,5,9,13,26,-1018
241,2.696704,2,6,8,16,27,-1026
242,2.707885,2,6,9,11,28,-1024
243,2.719092,2,5,8,10,24,-1022
244,2.730275,2,7,9,11,26,-1018
245,2.741459,2,6,8,11,28,-1025
246,2.752643,2,6,9,9,24,-1021
247,2.76383,3,6,8,9,25,-1024
248,2.775023,3,5,8,10,25,-1020
249,2.786204,2,6,9,12,25,-1020
250,2.797389,2,6,8,11,25,-1021
251,2.808576,3,6,8,14,25,-1015
252,2.81976,3,6,9,12,28,-1020
253,2.830909,2,6,9,11,25,-1020
254,2.842091,3,6,8,11,26,-1021
255,2.853274,3,6,8,12,28,-1017
256,2.864469,2,5,8,14,26,-1020
257,2.875651,2,6,8,9,24,-1021
258,2.886842,2,6,8,14,28,-1020
259,2.898024,3,6,8,12,27,-1022
260,2.909206,2,6,8,11,24,-1024
261,2.920407,2,7,9,10,29,-1027
262,2.931593,2,5,8,13,26,-1025
263,2.942777,3,7,8,12,28,-1028
264,2.953958,3,7,8,12,27,-1023
265,2.965142,3,7,8,14,25,-1020
266,2.976324,3,7,9,14,27,-1022
267,2.987515,3,6,9,12,24,-1017
268,2.998701,3,7,8,13,25,-1020
269,3.009886,3,7,9,13,25,-1018
270,3.021072,2,8,8,12,27,-1021
271,3.032266,3,6,9,11,27,-1024
272,3.043461,3,6,8,14,26,-1018
273,3.054654,1,4,10,14,25,-1023
274,3.065837,2,4,9,12,24,-1024
275,3.077021,2,5,9,11,26,-1025
276,3.088202,2,6,8,13,23,-1022
277,3.09939,2,4,8,13,26,-1020
278,3.110536,2,5,9,14,25,-1020
279,3.121721,2,5,9,9,28,-1025
280,3.132904,3,5,9,14,22,-1019
281,3.144086,3,5,8,11,25,-1019
282,3.155279,2,5,9,15,27,-1021
283,3.166461,2,5,9,17,28,-1021
284,3.177644,2,6,9,14,26,-1017
285,3.188828,3,7,9,10,26,-1024
286,3.200012,3,7,9,15,27,-1025
287,3.211202,3,6,9,15,25,-1024
288,3.222385,3,7,9,13,26,-1020
289,3.233567,2,6,9,11,27,-1024
290,3.244751,3,6,9,13,26,-1022
291,3.255936,2,6,8,14,25,-1020
292,3.267104,3,7,9,12,25,-1020
293,3.278286,2,5,9,13,25,-1017
294,3.289468,2,5,9,13,28,-1027
295,3.300649,3,4,9,14,22,-1028
296,3.311833,2,6,8,9,28,-1020
297,3.323025,2,6,9,17,24,-1017
298,3.334208,2,6,9,14,31,-1024
299,3.345394,2,6,9,13,24,-1021
300,3.356577,2,6,9,9,26,-1022
301,3.367759,3,6,9,6,30,-1025
302,3.378909,3,7,8,11,26,-1021
303,3.39009,2,7,9,13,21,-1022
304,3.401271,3,7,8,16,26,-1028
305,3.412452,2,6,8,15,19,-1020
306,3.423651,2,7,9,14,25,-1018
307,3.434838,2,7,9,13,25,-1019
308,3.446019,2,8,9,14,22,-1023
309,3.457201,3,7,9,16,27,-1020
310,3.468383,3,6,10,12,24,-1025
311,3.479575,2,8,8,13,23,-1021
312,3.490725,3,7,8,12,29,-1024
313,3.501909,2,7,9,13,22,-1018
314,3.513106,2,6,9,15,25,-1025
315,3.52429,3,5,9,12,26,-1020
316,3.535465,3,8,9,13,27,-1017
317,3.546651,3,7,9,12,25,-1014
318,3.557836,2,6,8,16,24,-1012
319,3.569019,3,6,8,12,28,-1022
320,3.580202,2,6,8,13,26,-1021
321,3.591392,3,7,8,9,23,-1022
322,3.60254,2,7,9,12,24,-1018
323,3.613723,2,6,9,11,27,-1016
324,3.624933,3,7,8,12,27,-1026
325,3.63612,2,5,9,17,24,-1021
326,3.647276,3,6,8,9,27,-1020
327,3.658456,3,5,9,10,29,-1021
328,3.669638,3,6,9,11,24,-1020
329,3.68082,2,6,9,12,21,-1017
330,3.692006,2,6,10,16,26,-1019
331,3.703201,2,5,9,12,29,-1018
332,3.714384,2,5,8,13,23,-1023
333,3.725569,2,5,9,15,27,-1016
334,3.736751,2,5,9,10,27,-1020
335,3.747939,2,4,8,13,26,-1015
336,3.759094,2,4,8,8,29,-1023
337,3.770277,2,5,9,14,26,-1018
338,3.781457,2,5,8,10,23,-1026
339,3.792639,2,5,9,12,26,-1017
340,3.803822,2,6,9,12,23,-1020
341,3.815016,2,6,9,12,27,-1025
342,3.826199,2,6,9,15,27,-1024
343,3.837381,2,6,9,11,27,-1020
344,3.848565,2,7,10,14,29,-1020
345,3.85975,2,7,9,13,25,-1020
346,3.87091,2,6,9,12,25,-1023
347,3.882091,2,5,9,10,27,-1022
348,3.893272,2,5,9,12,27,-1021
349,3.904453,3,6,8,15,26,-1020
350,3.91565,2,5,8,10,23,-1024
351,3.926835,2,6,9,7,25,-1026
352,3.938016,2,6,9,11,25,-1020
353,3.949199,2,6,8,10,25,-1018
354,3.960381,3,7,9,14,25,-1025
355,3.971573,2,6,9,14,25,-1026
356,3.982777,3,6,9,10,22,-1028
357,3.993961,2,5,8,14,27,-1016
358,4.005144,3,6,9,12,25,-1024
359,4.016324,2,5,8,7,27,-1028
360,4.02751,2,5,9,9,23,-1022
361,4.038695,2,6,8,13,24,-1021
362,4.049877,2,5,8,11,24,-1020
363,4.061063,2,6,9,13,26,-1018
364,4.072247,2,5,9,7,25,-1024
365,4.083438,2,6,9,13,26,-1015
366,4.094621,2,4,9,16,27,-1019
367,4.105811,2,5,9,9,29,-1026
368,4.116996,2,4,9,13,23,-1022
369,4.128182,2,4,8,10,27,-1018
370,4.139386,2,8,8,15,27,-1014
371,4.150539,3,6,8,13,25,-1025
372,4.161725,2,7,7,12,27,-1023
373,4.172911,2,7,8,11,26,-1019
374,4.184092,3,7,9,12,27,-1016
375,4.19528,3,7,8,10,23,-1021
376,4.206464,3,7,8,10,27,-1017
377,4.217645,2,6,9,11,22,-1020
378,4.228826,2,6,8,12,25,-1022
379,4.240007,3,6,8,11,22,-1014
380,4.251201,3,6,8,12,23,-1021
381,4.262382,2,6,8,13,27,-1028
382,4.273565,3,5,9,17,26,-1026
383,4.284748,2,5,9,14,22,-1019
384,4.295936,3,4,9,13,20,-1017
385,4.307092,2,7,8,16,24,-1022
386,4.318274,2,6,8,11,23,-1021
387,4.329456,1,6,9,14,26,-1024
388,4.340651,2,5,8,12,26,-1019
389,4.351835,2,6,9,12,25,-1021
390,4.363028,2,7,9,15,26,-1022
391,4.374212,2,7,8,14,23,-1014
392,4.385396,2,7,9,14,25,-1026
393,4.396578,3,7,9,10,25,-1019
394,4.407761,3,6,9,8,24,-1026
395,4.418909,3,6,8,12,27,-1021
396,4.43009,2,6,9,14,27,-1015
397,4.441272,2,5,8,13,29,-1024
398,4.452479,2,4,9,14,27,-1025
399,4.463674,2,5,9,13,25,-1021
400,4.474862,2,5,10,14,25,-1018
401,4.486049,2,5,9,16,23,-1018
402,4.497239,2,5,9,8,30,-1019
403,4.508427,2,4,9,13,26,-1024
404,4.519622,2,7,9,12,26,-1020
405,4.530826,3,6,8,10,26,-1021
406,4.542323,2,6,9,9,24,-1015
407,4.553902,2,6,9,11,25,-1020
408,4.565444,3,6,8,8,22,-1022
409,4.576989,2,6,9,12,23,-1022
410,4.588539,2,6,8,10,26,-1018
411,4.600081,3,6,9,12,26,-1030
412,4.611652,2,5,8,13,22,-1027
413,4.623215,3,5,8,11,23,-1033
414,4.634761,2,6,8,16,25,-1020
415,4.646422,2,6,8,10,23,-1022
416,4.658088,2,7,8,8,26,-1025
417,4.669735,2,6,8,17,29,-1024
418,4.681382,3,6,9,11,28,-1024
419,4.693052,3,6,9,10,24,-1028
420,4.704729,2,6,9,15,25,-1021
421,4.716377,2,5,9,13,24,-1021
422,4.728049,3,6,8,10,25,-1024
423,4.73973,2,6,8,12,26,-1021
424,4.751301,2,6,9,11,25,-1017
425,4.762874,3,6,9,14,25,-1021
426,4.774413,2,5,9,10,25,-1022
427,4.785953,2,5,8,12,24,-1018
428,4.797533,2,5,8,11,24,-1019
429,4.80918,2,7,9,16,30,-1016
430,4.820767,2,6,9,9,26,-1022
431,4.832319,2,6,9,11,30,-1021
432,4.843979,2,6,8,10,21,-1021
433,4.855619,2,6,8,13,22,-1023
434,4.867312,2,6,9,10,26,-1025
435,4.878981,2,6,9,9,30,-1026
436,4.890654,2,7,9,16,21,-1020
437,4.902309,2,6,9,13,25,-1020
438,4.913962,2,6,9,14,29,-1018
439,4.925615,2,5,9,15,27,-1023
440,4.937281,3,6,8,9,23,-1018
441,4.948985,2,6,9,16,27,-1027
442,4.960541,2,6,8,13,27,-1019
443,4.97209,2,5,8,10,26,-1028
444,4.983665,2,5,8,8,27,-1020
445,4.995222,2,6,8,15,23,-1020
446,5.006799,2,6,8,13,29,-1018
447,5.018388,2,6,9,8,25,-1020
448,5.029937,2,6,9,11,28,-1023
449,5.041529,3,6,9,14,24,-1022
450,5.053148,3,7,8,12,24,-1025
451,5.064814,3,6,9,12,26,-1020
452,5.07649,2,6,9,13,27,-1017
453,5.088166,2,6,8,15,25,-1020
454,5.099842,2,6,8,17,26,-1021
455,5.111505,2,6,8,13,29,-1024
456,5.123191,2,6,8,15,21,-1025
457,5.134933,2,7,9,12,26,-1023
458,5.146583,3,5,9,13,26,-1019
459,5.158156,2,6,8,14,24,-1024
460,5.169711,2,5,8,11,22,-1023
461,5.181277,2,6,8,16,19,-1024
462,5.192819,2,6,9,15,26,-1020
463,5.20436,2,6,9,13,29,-1023
464,5.215909,2,5,9,9,26,-1023
465,5.227468,2,7,9,12,25,-1025
466,5.239053,2,5,9,15,26,-1019
467,5.250644,3,6,8,14,24,-1021
468,5.262327,2,6,8,14,23,-1021
469,5.27399,3,6,9,9,29,-1024
470,5.285635,3,6,10,13,25,-1021
471,5.297309,2,6,9,13,24,-1024
472,5.308967,2,6,9,12,28,-1022
473,5.32061,2,6,9,14,27,-1018
474,5.332264,2,7,9,14,26,-1019
475,5.34396,3,7,8,13,27,-1024
476,5.355626,3,5,9,13,23,-1030
477,5.367307,2,5,9,16,22,-1027
478,5.378877,3,5,9,13,26,-1022
479,5.390429,3,6,9,12,25,-1021
480,5.401985,1,6,8,15,25,-1023
481,5.413536,2,5,8,11,22,-1031
482,5.42508,2,6,9,12,27,-1028
483,5.436625,2,6,9,15,28,-1028
484,5.448271,3,6,9,11,27,-1020
485,5.459832,2,6,8,11,29,-1018
486,5.471486,2,6,9,10,22,-1027
487,5.483163,2,7,8,14,26,-1020
488,5.494834,3,6,10,10,25,-1022
489,5.506481,2,7,10,10,28,-1021
490,5.518142,2,5,9,13,25,-1021
491,5.529803,2,5,8,11,29,-1026
492,5.541452,3,5,9,14,28,-1023
493,5.553104,2,5,9,12,22,-1020
494,5.564738,2,7,9,8,21,-1024
495,5.576295,3,6,8,11,26,-1026
496,5.587882,3,6,8,12,24,-1026
497,5.599432,2,6,8,12,25,-1025
498,5.610975,2,6,9,14,23,-1020
499,5.622519,2,6,8,9,23,-1023
500,5.634061,3,6,9,9,24,-1021
501,5.645602,2,7,8,12,28,-1015
502,5.657171,2,5,8,12,26,-1017
503,5.668917,2,6,8,14,24,-1020
504,5.680575,2,7,9,18,29,-1023
505,5.692224,2,6,9,14,28,-1024
506,5.703886,3,6,9,11,27,-1019
507,5.715556,2,6,10,15,24,-1023
508,5.727228,2,6,8,8,25,-1026
509,5.7389,2,7,8,11,22,-1026
510,5.750579,2,6,8,14,27,-1024
511,5.762247,2,6,10,13,26,-1018
512,5.773927,2,6,10,12,27,-1019
513,5.785507,2,6,8,12,23,-1020
514,5.797068,2,6,9,10,26,-1024
515,5.808638,2,6,8,10,25,-1027
516,5.820219,2,6,8,13,25,-1015
517,5.831776,2,6,9,12,24,-1020
518,5.843296,2,6,8,10,25,-1019
519,5.85482,2,7,8,12,25,-1024
520,5.866376,2,7,8,13,28,-1027
521,5.878001,2,6,8,12,23,-1021
522,5.88966,2,6,9,16,24,-1024
523,5.901316,2,6,8,10,25,-1022
524,5.912967,2,6,8,11,26,-1020
525,5.924618,2,6,8,12,25,-1023
526,5.936302,3,6,8,11,24,-1018
527,5.947961,2,6,9,18,27,-1022
528,5.959635,3,6,8,10,27,-1020
529,5.971321,3,7,9,13,26,-1026
530,5.982988,2,7,9,14,23,-1020
531,5.994566,2,5,9,7,28,-1020
532,6.006118,3,6,10,14,26,-1021
533,6.017669,2,6,9,13,24,-1026
534,6.029245,3,5,8,10,27,-1023
535,6.0408,2,6,8,12,23,-1020
536,6.052375,2,6,8,15,24,-1023
537,6.063924,2,6,8,16,27,-1019
538,6.075497,2,6,9,12,24,-1028
539,6.087104,2,7,9,11,23,-1026
540,6.098764,2,7,8,7,22,-1015
541,6.110417,2,7,8,12,29,-1024
542,6.122072,2,6,9,14,28,-1025
543,6.133716,2,6,9,12,25,-1023
544,6.145365,2,6,10,14,23,-1026
545,6.157043,2,6,8,17,25,-1013
546,6.168692,2,6,8,13,24,-1021
547,6.180386,2,6,9,13,24,-1025
548,6.192062,2,6,8,11,24,-1025
549,6.203646,2,6,8,12,27,-1027
550,6.215207,2,6,9,11,26,-1023
551,6.226763,2,6,8,13,26,-1021
552,6.238308,2,7,8,16,26,-1021
553,6.249855,2,6,9,12,27,-1017
554,6.261405,2,6,9,12,28,-1020
555,6.272948,2,6,9,11,25,-1030
556,6.284507,2,7,9,16,24,-1025
557,6.296153,2,6,8,13,26,-1021
558,6.307822,3,6,9,15,27,-1019
559,6.319497,2,6,8,11,25,-1017
560,6.331176,2,6,8,15,29,-1019
561,6.342983,3,6,9,15,22,-1025
562,6.354785,3,6,9,12,22,-1022
563,6.366464,2,6,8,15,28,-1020
564,6.378134,2,6,9,15,25,-1018
565,6.389874,2,6,9,15,26,-1020
566,6.401558,2,5,9,12,28,-1021
567,6.41322,2,6,8,15,27,-1020
568,6.424958,3,6,9,13,26,-1017
569,6.436609,3,5,9,15,28,-1018
570,6.448271,3,6,9,10,27,-1024
571,6.459955,3,5,8,16,25,-1024
572,6.471617,3,6,8,12,25,-1021
573,6.483303,2,6,8,10,27,-1018
574,6.494993,3,7,9,11,25,-1021
575,6.506716,2,6,9,17,24,-1021
576,6.518279,2,6,8,12,27,-1019
577,6.529861,2,6,8,12,27,-1026
578,6.541414,2,6,8,13,26,-1020
579,6.553031,2,5,8,13,25,-1017
580,6.564612,2,6,9,9,21,-1012
581,6.576154,2,6,8,14,25,-1021
582,6.58775,2,6,9,11,26,-1025
583,6.599313,2,7,9,14,25,-1016
584,6.610994,2,6,9,19,28,-1019
585,6.622713,2,6,9,13,22,-1026
586,6.634372,3,6,8,16,27,-1020
587,6.646051,3,6,8,11,25,-1024
588,6.6577,2,5,8,10,32,-1023
589,6.66935,3,5,9,11,25,-1019
590,6.681012,3,6,9,12,23,-1024
591,6.692832,2,5,8,11,23,-1019
592,6.704503,2,6,8,12,26,-1023
593,6.716211,2,7,8,10,25,-1021
594,6.727788,2,6,9,11,27,-1022
595,6.739347,2,6,9,13,26,-1017
596,6.750933,3,6,9,9,25,-1022
597,6.762483,2,6,9,11,27,-1025
598,6.774039,2,6,9,14,21,-1016
599,6.785637,2,7,8,15,26,-1018
600,6.79719,2,6,9,13,24,-1020
601,6.80876,2,6,9,17,22,-1019
602,6.820447,2,6,8,14,28,-1025
603,6.83213,3,5,8,15,26,-1024
604,6.843817,2,6,7,14,28,-1026
605,6.855493,2,6,8,13,27,-1014
606,6.867157,2,5,9,11,28,-1020
607,6.878846,2,6,8,12,23,-1020
608,6.890518,2,6,9,9,26,-1022
609,6.902179,3,6,9,10,25,-1024
610,6.913854,2,6,9,14,25,-1022
611,6.925534,2,6,9,8,24,-1025
612,6.937128,2,6,8,15,24,-1026
613,6.94869,2,7,9,15,24,-1018
614,6.960236,2,6,9,10,24,-1027
615,6.971792,3,7,9,11,22,-1023
616,6.983393,3,6,9,15,25,-1021
617,6.994948,3,6,8,12,22,-1017
618,7.006503,2,5,9,12,22,-1022
619,7.018057,3,6,9,11,26,-1021
620,7.029683,3,6,8,13,28,-1022
621,7.041327,3,6,8,15,26,-1020
622,7.052976,3,6,9,19,27,-1023
623,7.064648,3,6,8,13,29,-1025
624,7.076305,3,6,9,15,25,-1023
625,7.087989,3,6,8,10,25,-1016
626,7.099689,3,7,9,10,25,-1021
627,7.111351,3,6,9,8,26,-1021
628,7.123045,3,5,9,14,27,-1020
629,7.134711,2,6,9,11,26,-1019
630,7.146265,2,7,8,14,25,-1023
631,7.157871,2,6,8,9,30,-1028
632,7.169423,2,6,8,12,26,-1021
633,7.180989,2,6,8,11,26,-1025
634,7.192552,2,6,8,12,26,-1023
635,7.204128,3,6,9,16,27,-1022
636,7.215678,2,7,9,13,26,-1018
637,7.227303,2,7,9,15,21,-1015
638,7.238952,3,6,8,12,23,-1027
639,7.250589,2,6,9,11,26,-1022
640,7.262245,2,5,8,11,26,-1017
641,7.273941,2,6,9,8,23,-1026
642,7.28558,2,6,8,11,25,-1017
643,7.297259,2,6,8,11,26,-1023
644,7.30893,2,6,8,13,27,-1022
645,7.32057,2,6,8,14,27,-1020
646,7.332235,3,5,8,13,28,-1021
647,7.343906,2,4,9,15,24,-1026
648,7.355502,1,6,8,13,22,-1022
649,7.367061,2,5,9,9,24,-1021
650,7.378627,3,6,9,15,23,-1028
651,7.390171,3,6,9,10,24,-1018
652,7.401732,2,6,9,13,26,-1019
653,7.413282,2,5,9,14,24,-1030
654,7.424848,3,6,8,17,25,-1020
655,7.436405,3,6,9,11,25,-1021
656,7.448063,3,6,9,11,26,-1024
657,7.459757,2,7,9,11,28,-1014
658,7.471424,3,6,9,9,30,-1022
659,7.4831,3,6,9,11,24,-1017
660,7.494782,2,7,8,12,26,-1026
661,7.506433,2,6,8,17,20,-1022
662,7.518086,2,6,9,10,27,-1028
663,7.529747,2,6,8,14,25,-1020
664,7.541414,2,6,9,10,30,-1023
665,7.553065,2,6,9,13,26,-1023
666,7.564719,2,6,9,13,29,-1017
667,7.576359,3,6,8,8,26,-1022
668,7.588049,2,5,8,15,26,-1020
669,7.599733,2,6,8,12,26,-1024
670,7.611357,2,6,8,8,23,-1023
671,7.623038,2,5,9,14,26,-1019
672,7.634711,2,6,8,12,27,-1023
673,7.646421,2,6,9,12,25,-1025
674,7.658085,1,5,8,10,28,-1021
675,7.66966,2,6,8,13,28,-1024
676,7.681206,2,6,9,12,24,-1021
677,7.692764,3,6,9,12,27,-1027
678,7.704312,2,5,9,13,25,-1027
679,7.715985,2,6,8,14,30,-1019
680,7.727544,2,6,9,14,25,-1021
681,7.739108,2,7,9,8,28,-1019
682,7.750681,2,6,8,11,27,-1024
683,7.762237,3,6,9,16,23,-1026
684,7.773798,2,6,9,7,27,-1019
685,7.785386,2,5,8,11,22,-1019
686,7.79695,2,5,8,12,26,-1021
687,7.808506,3,6,9,12,23,-1020
688,7.820057,3,6,9,10,24,-1021
689,7.831619,3,6,9,13,23,-1022
690,7.843187,1,6,9,11,27,-1021
691,7.854823,2,6,9,11,27,-1020
692,7.866467,2,7,9,13,24,-1022
693,7.878148,2,5,9,9,28,-1020
694,7.88981,2,5,8,11,25,-1023
695,7.901463,2,5,8,13,27,-1025
696,7.913154,2,5,8,13,28,-1019
697,7.924805,2,6,9,13,27,-1019
698,7.93649,2,6,8,15,27,-1025
699,7.948165,3,7,8,12,27,-1024
700,7.95986,2,6,9,12,31,-1021
701,7.971534,3,6,8,14,29,-1022
702,7.98321,2,6,9,13,23,-1023
703,7.994849,2,6,8,15,31,-1025
704,8.006496,2,5,8,12,23,-1024
705,8.01815,2,6,8,12,30,-1019
706,8.029805,2,5,9,14,27,-1022
707,8.041472,2,6,9,12,26,-1027
708,8.05312,3,6,9,11,27,-1020
709,8.064823,2,6,9,12,25,-1019
710,8.076496,2,7,8,10,26,-1022
711,8.08815,2,7,8,12,24,-1024
712,8.099811,2,6,8,11,27,-1019
713,8.111485,2,6,9,13,25,-1023
714,8.123153,2,6,9,15,24,-1024
715,8.134831,2,5,9,12,28,-1022
716,8.146475,3,6,10,15,27,-1017
717,8.158122,2,7,9,13,25,-1026
718,8.169822,2,7,9,15,28,-1022
719,8.181475,2,5,9,9,26,-1023
720,8.193122,2,7,8,10,28,-1018
721,8.204794,2,6,8,12,26,-1022
722,8.216445,2,6,9,12,27,-1017
723,8.228148,3,6,9,10,25,-1022
724,8.239811,3,5,9,11,25,-1017
725,8.251504,2,6,9,15,26,-1018
726,8.263172,2,5,10,13,27,-1022
727,8.274858,2,5,9,13,26,-1024
728,8.286555,3,6,9,14,24,-1014
729,8.29812,2,6,9,11,27,-1016
730,8.309666,2,6,9,13,27,-1027
731,8.321231,2,6,9,9,25,-1020
732,8.332776,2,6,9,9,27,-1020
733,8.344317,2,6,9,16,25,-1024
734,8.355862,2,7,9,14,23,-1022
735,8.367422,2,6,9,13,23,-1029
736,8.379006,1,6,9,12,22,-1022
737,8.390659,2,6,9,11,27,-1018
738,8.402342,3,6,8,10,24,-1018
739,8.414005,2,6,8,17,26,-1023
740,8.425667,3,6,9,12,30,-1023
741,8.437322,2,7,9,11,25,-1019
742,8.448968,3,7,9,16,29,-1025
743,8.460613,2,6,8,12,27,-1021
744,8.472256,3,5,8,15,24,-1022
745,8.483883,3,6,9,15,26,-1020
746,8.495548,1,6,8,12,25,-1024
747,8.507135,3,6,9,9,24,-1017
748,8.518703,2,6,8,17,29,-1021
749,8.530246,2,6,8,16,26,-1020
750,8.541786,3,6,10,16,29,-1028
751,8.553339,2,5,10,11,27,-1025
752,8.564889,2,6,8,10,27,-1019
753,8.57643,2,6,9,11,25,-1017
754,8.58802,3,6,9,11,24,-1024
755,8.599721,3,6,9,12,26,-1026
756,8.611424,3,6,9,14,23,-1021
757,8.623095,3,6,9,11,26,-1022
758,8.63477,2,6,9,8,20,-1018
759,8.646442,3,6,9,11,27,-1026
760,8.658087,2,6,9,10,28,-1025
761,8.669743,2,6,9,10,29,-1019
762,8.681417,2,6,9,11,21,-1018
763,8.693074,3,7,8,14,25,-1023
764,8.704745,2,6,9,12,22,-1031
765,8.716328,2,6,9,13,31,-1024
766,8.727911,2,6,9,12,25,-1019
767,8.739564,2,6,9,13,24,-1023
768,8.75114,3,6,9,14,26,-1020
769,8.762731,2,7,8,10,22,-1024
770,8.774278,2,6,9,11,26,-1020
771,8.785854,3,6,9,12,23,-1024
772,8.797411,2,7,8,7,23,-1026
773,8.809074,2,6,9,11,24,-1017
774,8.820743,2,6,9,12,24,-1019
775,8.832425,3,6,9,12,22,-1018
776,8.84411,3,6,8,10,22,-1022
777,8.855799,2,7,8,16,24,-1018
778,8.867489,2,5,9,11,23,-1024
779,8.879151,2,6,8,10,28,-1027
780,8.890828,2,7,8,14,26,-1021
781,8.902537,3,6,8,15,25,-1021
782,8.914201,3,6,8,17,24,-1019
783,8.925761,2,6,8,15,29,-1023
784,8.937349,2,6,9,11,27,-1024
785,8.948894,2,7,8,13,24,-1017
786,8.960434,2,6,8,15,24,-1016
787,8.972019,2,6,9,9,28,-1029
788,8.983539,2,6,9,10,22,-1018
789,8.995059,2,6,9,11,27,-1022
790,9.006588,2,6,8,15,26,-1023
791,9.018211,2,6,9,13,26,-1019
792,9.029858,2,5,9,13,22,-1017
793,9.041532,2,5,9,15,22,-1020
794,9.053189,2,6,8,11,26,-1024
795,9.06483,2,6,9,12,28,-1016
796,9.076479,2,6,8,14,24,-1018
797,9.088155,2,6,9,12,22,-1021
798,9.0998,3,6,10,15,27,-1021
799,9.111493,2,6,9,8,21,-1021
800,9.123156,2,6,9,14,25,-1027
801,9.134742,3,6,9,15,25,-1020
802,9.146325,2,5,9,10,25,-1020
803,9.157876,2,6,8,13,25,-1027
804,9.169429,2,6,8,10,24,-1031
805,9.180991,2,5,9,13,26,-1019
806,9.192539,3,6,9,13,27,-1027
807,9.204086,3,5,8,12,20,-1026
808,9.215676,2,6,9,15,30,-1023
809,9.227306,2,6,9,17,25,-1020
810,9.238997,2,6,9,12,24,-1024
811,9.25066,2,6,8,11,25,-1020
812,9.262316,2,6,9,11,23,-1025
813,9.273965,2,5,9,15,30,-1025
814,9.285617,2,6,9,11,22,-1022
815,9.297285,2,6,9,13,25,-1021
816,9.308941,2,6,9,15,27,-1026
817,9.320589,2,6,8,8,27,-1018
818,9.332135,2,7,9,12,25,-1026
819,9.343696,2,5,8,10,25,-1015
820,9.355247,3,5,8,14,24,-1018
821,9.366811,2,6,9,14,24,-1018
822,9.378352,2,7,10,13,21,-1026
823,9.389902,2,5,9,12,24,-1027
824,9.401488,1,6,10,13,27,-1020
825,9.413037,2,6,9,13,21,-1026
826,9.424613,2,6,9,11,24,-1021
827,9.436229,2,6,9,8,32,-1021
828,9.447898,2,5,8,11,25,-1027
829,9.459555,2,6,8,14,25,-1021
830,9.47125,3,5,9,14,24,-1015
831,9.482923,3,6,9,9,26,-1023
832,9.494588,3,6,8,11,26,-1020
833,9.506235,2,6,8,12,26,-1023
834,9.517911,2,6,8,13,25,-1020
835,9.529576,2,6,9,13,25,-1018
836,9.541234,3,6,8,7,27,-1027
837,9.552832,3,6,8,14,26,-1023
838,9.56439,2,6,9,14,24,-1017
839,9.57598,2,6,9,10,30,-1017
840,9.587541,2,5,8,14,27,-1028
841,9.599057,3,5,8,14,28,-1020
842,9.610616,2,6,9,15,27,-1022
843,9.62218,1,6,8,12,26,-1023
844,9.633749,2,6,8,12,27,-1025
845,9.645461,2,5,9,12,28,-1027
846,9.657153,2,7,9,12,29,-1023
847,9.668797,2,6,8,11,28,-1017
848,9.680447,2,6,8,10,27,-1023
849,9.69217,2,6,8,13,27,-1027
850,9.703839,3,6,10,13,28,-1019
851,9.715523,3,6,9,17,23,-1018
852,9.727179,2,6,7,10,25,-1024
853,9.738861,3,6,8,10,30,-1020
854,9.750521,2,5,8,15,23,-1026
855,9.762108,2,6,9,13,25,-1023
856,9.773673,2,6,9,15,24,-1023
857,9.785243,2,6,9,16,26,-1022
858,9.79683,2,6,9,14,28,-1022
859,9.808383,3,5,9,15,28,-1017
860,9.819976,2,6,9,11,22,-1024
861,9.831531,3,6,9,14,27,-1018
862,9.84307,2,5,9,13,26,-1021
863,9.854714,2,6,9,11,22,-1022
864,9.866363,2,6,8,13,21,-1023
865,9.878035,2,6,9,15,23,-1022
866,9.889742,3,6,9,16,25,-1027
867,9.901398,2,6,9,12,26,-1025
868,9.91305,2,6,8,17,28,-1016
869,9.924706,2,5,9,11,25,-1017
870,9.93635,3,6,9,13,24,-1029
871,9.948046,2,7,9,9,27,-1021
872,9.959731,2,6,9,12,25,-1015
873,9.971312,2,6,10,10,24,-1021
874,9.982878,3,6,9,10,24,-1020
875,9.994456,2,6,9,11,24,-1025
876,10.006015,2,6,9,11,27,-1024
877,10.017609,2,6,8,15,25,-1015
878,10.02916,2,6,8,7,28,-1022
879,10.040726,2,6,8,11,22,-1025
880,10.052279,2,7,9,10,27,-1023
881,10.063948,2,6,9,12,23,-1025
882,10.07563,2,6,8,13,25,-1031
883,10.087295,3,5,8,10,23,-1023
884,10.098976,2,6,8,10,29,-1022
885,10.110648,3,6,8,16,27,-1023
886,10.122305,2,6,8,12,26,-1022
887,10.133964,2,6,9,11,23,-1020
888,10.145623,2,6,8,15,23,-1021
889,10.15728,3,6,8,11,25,-1025
890,10.168844,3,6,8,7,25,-1022
891,10.180395,3,6,8,12,28,-1020
892,10.191962,2,6,9,10,28,-1014
893,10.203543,3,6,9,11,28,-1024
894,10.215068,2,6,9,16,27,-1021
895,10.226622,2,6,8,14,30,-1020
896,10.238176,3,6,9,9,30,-1015
897,10.249739,1,7,9,11,27,-1024
898,10.26146,2,5,8,15,23,-1025
899,10.273138,2,5,8,13,27,-1019
900,10.284803,2,6,9,13,23,-1027
901,10.296451,3,6,8,14,25,-1027
902,10.308139,2,7,9,12,27,-1019
903,10.319801,2,6,8,14,29,-1027
904,10.331481,3,7,8,13,25,-1022
905,10.343217,2,6,9,10,27,-1022
906,10.354911,2,6,8,11,26,-1023
907,10.366587,2,6,9,12,26,-1021
908,10.378268,2,6,9,14,25,-1016
909,10.38992,2,6,9,17,24,-1025
910,10.401573,3,6,9,10,26,-1023
911,10.413224,2,6,9,11,27,-1026
912,10.424886,2,6,8,10,25,-1018
913,10.436543,2,6,8,13,26,-1020
914,10.448223,2,6,9,11,25,-1017
915,10.460012,2,7,8,10,23,-1025
916,10.471698,3,6,8,15,27,-1019
917,10.483292,2,6,10,10,22,-1025
918,10.494823,2,5,9,10,27,-1019
919,10.50637,2,6,8,28,27,-1019
920,10.51793,2,6,9,12,23,-1015
921,10.529486,2,6,9,14,21,-1024
922,10.541034,2,6,9,10,27,-1017
923,10.552582,3,6,9,12,24,-1024
924,10.564148,2,7,9,13,23,-1019
925,10.575786,2,6,8,15,28,-1024
926,10.587443,2,5,9,12,26,-1016
927,10.599117,1,6,9,14,29,-1020
928,10.610776,3,6,9,13,29,-1025
929,10.622424,3,6,9,14,27,-1025
930,10.634114,3,6,9,19,28,-1025
931,10.645776,2,6,9,12,22,-1021
932,10.657426,2,5,9,13,31,-1017
933,10.669096,3,5,9,14,26,-1020
934,10.680755,2,6,9,13,27,-1021
935,10.692407,2,5,9,12,23,-1030
936,10.704062,1,6,9,7,27,-1021
937,10.715756,2,5,9,9,23,-1025
938,10.727417,2,6,8,10,26,-1021
939,10.739117,3,6,8,12,22,-1024
940,10.750772,3,6,9,17,27,-1025
941,10.762424,2,5,8,15,28,-1019
942,10.774069,3,5,8,12,23,-1028
943,10.785627,2,6,9,10,25,-1025
944,10.797216,2,6,8,12,27,-1023
945,10.808773,2,7,9,15,27,-1022
946,10.82034,2,6,8,15,24,-1026
947,10.831901,2,6,8,17,24,-1019
948,10.843462,2,6,8,16,23,-1024
949,10.855031,2,6,9,13,29,-1021
950,10.866576,2,6,9,13,28,-1023
951,10.878211,2,6,9,13,28,-1023
952,10.889846,3,6,8,18,27,-1016
953,10.901516,3,6,9,11,27,-1026
954,10.913168,2,6,8,11,27,-1024
955,10.924829,2,6,9,13,22,-1026
956,10.936478,2,6,9,11,24,-1026
957,10.948135,2,6,9,14,26,-1022
958,10.959794,3,6,8,16,24,-1021
959,10.971469,2,7,10,13,28,-1021
960,10.983166,3,6,9,10,24,-1024
961,10.994844,2,7,10,10,24,-1022
962,11.006555,2,6,8,14,24,-1020
963,11.018361,2,6,8,13,26,-1023
964,11.030044,2,5,9,12,25,-1016
965,11.041697,2,6,8,15,27,-1023
966,11.053347,2,6,9,13,25,-1020
967,11.065015,2,6,9,13,24,-1017
968,11.076666,2,6,9,15,26,-1017
969,11.088328,3,7,9,10,26,-1026
970,11.100031,2,6,9,8,24,-1028
971,11.111603,2,6,8,16,28,-1029
972,11.123195,2,6,8,12,27,-1027
973,11.134784,3,6,9,13,22,-1016
974,11.146338,2,6,9,12,26,-1023
975,11.157885,3,6,9,7,28,-1026
976,11.169452,3,6,9,9,25,-1025
977,11.18101,2,6,9,11,23,-1019
978,11.192596,2,7,9,14,25,-1018
979,11.204251,3,6,9,11,24,-1023
980,11.215919,3,6,8,13,26,-1022
981,11.227648,3,6,9,10,23,-1020
982,11.239304,2,7,9,9,23,-1022
983,11.250996,2,7,9,11,26,-1015
984,11.262651,2,6,8,13,23,-1018
985,11.274302,2,6,9,14,29,-1022
986,11.285973,2,7,9,14,25,-1027
987,11.297634,2,5,9,10,24,-1024
988,11.309223,2,6,8,13,24,-1026
989,11.320772,3,6,9,9,23,-1028
990,11.332314,3,6,8,15,25,-1014
991,11.343866,3,5,8,15,28,-1020
992,11.355438,3,6,9,10,25,-1020
993,11.367003,2,6,8,16,27,-1022
994,11.378596,2,5,9,9,25,-1026
995,11.390147,2,6,9,9,24,-1027
996,11.401724,2,6,9,12,24,-1020
997,11.413347,2,6,8,13,27,-1018
998,11.425014,3,7,9,10,25,-1018
999,11.436673,2,5,9,12,21,-1029
1000,11.448343,2,6,9,12,28,-1027
1001,11.460024,2,6,9,14,26,-1026
1002,11.471685,2,6,9,15,25,-1023
1003,11.483392,2,5,9,15,27,-1027
1004,11.495045,2,6,9,11,24,-1023
1005,11.506761,2,6,9,13,26,-1026
1006,11.518437,2,6,9,9,27,-1023
1007,11.530004,2,6,10,13,30,-1022
1008,11.541598,2,6,9,9,24,-1019
1009,11.553153,2,6,8,13,24,-1029
1010,11.564715,3,6,7,15,26,-1027
1011,11.576262,3,6,9,9,25,-1021
1012,11.587786,2,5,8,14,28,-1021
1013,11.599344,2,7,9,12,25,-1023
1014,11.610909,2,6,9,10,26,-1019
1015,11.622533,3,7,8,15,29,-1023
1016,11.634193,3,6,9,9,27,-1020
1017,11.645872,2,6,8,13,28,-1019
1018,11.65752,2,6,9,8,24,-1021
1019,11.669176,2,6,9,13,25,-1020
1020,11.680874,2,5,9,13,25,-1017
1021,11.692524,1,6,10,10,25,-1022
1022,11.704176,2,7,9,11,24,-1018
1023,11.715916,2,6,9,12,30,-1017
1024,11.727588,2,6,9,13,24,-1024
1025,11.739181,2,6,9,11,24,-1023
1026,11.75077,2,6,8,13,24,-1021
1027,11.762339,3,5,9,11,25,-1019
1028,11.773892,2,6,8,14,26,-1019
1029,11.785463,2,6,10,16,24,-1025
1030,11.797026,2,7,9,12,29,-1022
1031,11.808588,3,6,9,9,32,-1020
1032,11.820157,3,7,8,14,26,-1023
1033,11.831774,3,6,9,16,29,-1024
1034,11.843444,2,6,9,10,25,-1017
1035,11.855116,2,7,9,10,25,-1026
1036,11.866868,2,6,9,14,28,-1021
1037,11.878518,2,6,9,17,28,-1024
1038,11.89017,2,6,8,9,28,-1021
1039,11.901847,2,6,9,16,24,-1028
1040,11.913504,2,5,9,15,24,-1020
1041,11.925176,2,6,10,17,22,-1026
1042,11.93688,2,6,9,16,24,-1023
1043,11.948483,2,6,9,12,22,-1024
1044,11.960034,2,6,9,11,21,-1024
1045,11.971597,2,6,9,13,21,-1024
1046,11.983191,2,6,9,10,27,-1017
1047,11.994758,2,6,9,11,29,-1025
1048,12.00633,2,6,9,14,22,-1024
1049,12.017884,2,6,8,14,25,-1021
1050,12.029474,2,6,9,12,25,-1021
1051,12.041093,2,6,9,14,26,-1020
1052,12.052759,2,6,9,12,25,-1024
1053,12.064417,3,6,9,13,26,-1026
1054,12.076066,2,6,8,9,26,-1026
1055,12.087768,3,6,8,10,28,-1019
1056,12.099435,2,6,9,13,23,-1013
1057,12.111138,2,6,8,11,29,-1030
1058,12.12286,2,6,8,10,25,-1022
1059,12.134526,2,6,9,16,28,-1023
1060,12.14619,2,6,9,16,25,-1024
1061,12.157762,3,6,9,14,25,-1023
1062,12.169343,3,5,8,10,23,-1020
1063,12.180893,3,6,9,13,26,-1017
1064,12.192483,2,6,8,15,23,-1017
1065,12.204035,2,7,10,14,30,-1022
1066,12.215592,2,6,8,13,26,-1023
1067,12.22719,2,7,9,13,24,-1019
1068,12.238772,3,6,9,15,30,-1022
1069,12.250404,2,7,8,11,24,-1024
1070,12.262072,2,6,10,15,25,-1015
1071,12.273746,3,6,9,13,26,-1020
1072,12.285395,2,7,8,8,27,-1020
1073,12.297053,3,6,9,15,28,-1018
1074,12.308721,3,6,9,13,25,-1021
1075,12.320391,2,6,9,16,24,-1024
1076,12.332046,3,6,9,12,26,-1019
1077,12.343778,2,6,9,15,25,-1024
1078,12.355493,3,7,9,14,27,-1024
1079,12.367096,2,5,8,12,24,-1018
1080,12.378657,2,6,9,17,25,-1022
1081,12.390214,2,5,9,15,22,-1027
1082,12.401764,2,6,9,11,23,-1024
1083,12.413329,3,6,9,14,28,-1026
1084,12.424875,2,5,9,15,23,-1022
1085,12.436421,2,6,9,15,26,-1022
1086,12.447987,2,6,9,13,25,-1016
1087,12.459672,2,6,9,10,30,-1021
1088,12.471371,2,7,8,8,24,-1020
1089,12.483064,2,6,8,13,20,-1021
1090,12.494753,2,5,9,11,27,-1020
1091,12.506393,2,6,9,14,23,-1019
1092,12.518042,3,6,9,14,22,-1026
1093,12.529703,3,6,9,12,28,-1020
1094,12.541365,2,6,10,8,21,-1019
1095,12.553038,2,6,9,12,24,-1027
1096,12.564692,2,6,8,9,24,-1022
1097,12.57634,3,6,9,15,29,-1020
1098,12.588018,3,6,8,12,27,-1017
1099,12.599668,2,6,8,10,24,-1022
1100,12.61136,2,5,9,11,29,-1019
1101,12.623024,2,6,8,10,25,-1011
1102,12.634688,2,6,9,12,24,-1017
1103,12.646335,2,6,9,13,23,-1023
1104,12.65807,2,6,9,14,27,-1020
1105,12.669739,2,6,9,11,30,-1021
1106,12.681295,2,7,9,18,25,-1021
1107,12.692849,2,6,10,14,24,-1019
1108,12.704436,2,6,9,13,28,-1022
1109,12.716023,2,5,9,13,23,-1016
1110,12.727566,3,6,9,8,23,-1020
1111,12.739116,3,5,9,7,23,-1017
1112,12.750657,2,5,10,13,30,-1017
1113,12.762218,2,6,9,15,21,-1022
1114,12.773842,2,7,8,13,26,-1020
1115,12.785501,2,6,9,13,28,-1019
1116,12.797152,2,6,8,13,26,-1018
1117,12.808805,2,6,9,14,27,-1016
1118,12.82048,2,6,9,11,26,-1022
1119,12.832136,2,5,9,13,27,-1022
1120,12.843807,2,5,9,12,27,-1017
1121,12.855527,2,5,9,12,25,-1021
1122,12.867196,2,7,8,14,25,-1021
1123,12.878862,2,6,9,9,26,-1025
1124,12.890414,3,6,9,14,25,-1020
1125,12.901966,2,6,9,13,25,-1020
1126,12.913514,2,6,9,13,28,-1022
1127,12.925063,3,7,9,9,27,-1021
1128,12.93661,2,7,9,15,27,-1019
1129,12.948187,3,6,9,7,27,-1027
1130,12.959764,3,7,9,14,28,-1020
1131,12.971335,2,6,9,9,24,-1018
1132,12.98298,2,7,9,12,26,-1024
1133,12.994646,2,6,9,10,22,-1019
1134,13.006302,2,6,9,10,24,-1022
1135,13.017969,2,7,9,13,26,-1022
1136,13.029619,2,5,9,11,21,-1025
1137,13.041267,3,6,9,13,23,-1026
1138,13.052921,2,6,8,9,24,-1019
1139,13.064563,3,6,9,18,32,-1020
1140,13.076242,2,6,9,14,29,-1022
1141,13.087886,2,6,10,13,24,-1021
1142,13.099452,2,6,9,13,26,-1019
1143,13.111065,2,6,8,13,30,-1017
1144,13.12262,2,6,8,12,23,-1019
1145,13.134193,2,6,8,11,28,-1019
1146,13.145733,2,7,8,11,26,-1027
1147,13.157274,2,6,8,11,27,-1016
1148,13.168824,2,7,9,11,25,-1023
1149,13.180381,3,7,9,13,33,-1025
1150,13.19201,2,7,9,12,21,-1019
1151,13.203674,2,6,8,14,25,-1019
1152,13.215358,2,6,9,16,27,-1022
1153,13.227042,2,6,9,12,27,-1027
1154,13.238722,2,5,9,16,27,-1019
1155,13.25038,2,6,9,12,23,-1022
1156,13.262035,2,6,8,13,25,-1019
1157,13.273695,2,6,9,12,26,-1025
1158,13.285341,2,6,9,13,26,-1020
1159,13.296995,1,6,8,15,27,-1018
1160,13.308648,2,6,8,14,25,-1017
1161,13.320285,3,6,9,15,25,-1022
1162,13.331959,3,7,9,12,25,-1017
1163,13.34362,3,6,8,16,26,-1017
1164,13.355378,3,6,9,15,23,-1024
1165,13.367034,2,6,8,12,30,-1023
1166,13.378724,2,6,8,15,26,-1016
1167,13.390405,3,6,9,13,22,-1022
1168,13.40206,2,6,8,12,26,-1020
1169,13.413624,3,5,9,11,23,-1019
1170,13.425194,2,6,9,15,26,-1029
1171,13.436756,2,6,9,12,25,-1018
1172,13.448323,2,5,9,12,24,-1018
1173,13.459935,1,6,9,13,27,-1018
1174,13.471481,3,6,9,9,29,-1020
1175,13.483052,3,6,9,12,26,-1026
1176,13.494588,2,6,9,12,24,-1025
1177,13.506232,2,6,8,13,27,-1024
1178,13.517888,2,6,8,13,20,-1023
1179,13.529547,3,6,9,12,28,-1019
1180,13.541222,2,6,8,12,24,-1021
1181,13.552877,3,7,9,13,25,-1022
1182,13.564529,3,6,9,13,28,-1028
1183,13.576183,2,5,9,16,25,-1014
1184,13.587887,2,6,9,15,25,-1022
1185,13.599579,2,6,8,9,24,-1023
1186,13.611254,2,6,9,14,27,-1019
1187,13.622847,2,5,8,13,25,-1023
1188,13.634434,2,6,9,12,22,-1022
1189,13.645981,2,5,9,14,25,-1020
1190,13.657532,2,7,9,12,31,-1027
1191,13.669084,2,7,8,11,25,-1020
1192,13.680635,2,6,9,12,27,-1017
1193,13.692183,2,6,8,9,23,-1018
1194,13.703763,2,6,8,10,23,-1014
1195,13.715377,2,5,9,10,22,-1025
1196,13.72704,2,6,9,14,27,-1019
1197,13.738716,2,6,9,13,27,-1023
1198,13.750374,2,6,8,9,28,-1019
1199,13.762035,3,7,8,14,25,-1020
1200,13.773696,2,6,9,14,28,-1024
1201,13.785357,3,6,8,11,26,-1024
1202,13.797008,2,6,9,14,28,-1021
1203,13.808673,3,7,9,13,27,-1024
1204,13.820323,3,7,10,14,26,-1021
1205,13.831922,2,5,9,15,26,-1023
1206,13.843523,2,7,9,15,25,-1017
1207,13.855069,2,7,9,15,26,-1024
1208,13.866633,2,7,9,12,27,-1021
1209,13.878184,2,6,9,13,29,-1017
1210,13.889745,3,6,9,11,26,-1020
1211,13.901327,2,6,9,11,27,-1017
1212,13.912876,2,6,9,9,27,-1026
1213,13.924525,2,6,9,13,25,-1022
1214,13.936186,3,6,9,15,26,-1025
1215,13.94787,2,6,8,15,28,-1023
1216,13.959537,2,6,9,10,30,-1020
1217,13.971262,2,5,9,8,24,-1027
1218,13.982921,3,6,9,9,29,-1027
1219,13.994594,2,5,9,7,30,-1023
1220,14.006251,3,5,9,9,26,-1020
1221,14.017914,2,6,9,13,29,-1013
1222,14.029581,2,6,9,11,24,-1024
1223,14.041163,2,6,9,11,25,-1023
1224,14.052709,2,6,8,9,23,-1026
1225,14.064261,2,5,9,13,30,-1020
1226,14.075786,2,6,9,14,26,-1024
1227,14.087345,3,6,9,14,22,-1024
1228,14.098955,2,5,9,13,27,-1018
1229,14.110496,2,6,9,15,22,-1019
1230,14.122054,2,6,9,12,23,-1015
1231,14.133682,2,6,9,13,23,-1020
1232,14.145343,3,7,9,11,22,-1022
1233,14.157,2,5,9,10,28,-1020
1234,14.168651,2,6,8,12,26,-1023
1235,14.180286,2,5,9,12,27,-1012
1236,14.191943,2,7,9,12,23,-1020
1237,14.203628,2,6,9,13,24,-1025
1238,14.215278,2,6,8,12,29,-1025
1239,14.226994,2,5,9,11,27,-1021
1240,14.238661,3,6,9,15,28,-1019
1241,14.250216,2,7,9,9,31,-1022
1242,14.261768,3,7,9,13,28,-1022
1243,14.27332,2,6,9,15,27,-1022
1244,14.284863,3,6,9,16,23,-1024
1245,14.296412,2,7,8,12,22,-1022
1246,14.30797,3,6,9,10,25,-1020
1247,14.319569,2,6,9,11,24,-1021
1248,14.331197,3,5,9,8,24,-1021
1249,14.343029,3,5,9,12,25,-1023
1250,14.354736,2,6,9,13,25,-1019
1251,14.366401,2,6,9,10,24,-1022
1252,14.378084,2,5,9,11,24,-1025
1253,14.389744,2,5,9,13,20,-1020
1254,14.401396,2,6,9,13,23,-1026
1255,14.413066,2,6,8,12,28,-1017
1256,14.424719,2,5,9,10,25,-1025
1257,14.436498,2,5,9,15,27,-1022
1258,14.448162,3,6,9,12,25,-1027
1259,14.459743,2,6,8,12,24,-1028
1260,14.471326,3,5,8,13,25,-1021
1261,14.482899,3,5,9,13,30,-1017
1262,14.49445,2,6,8,14,21,-1024
1263,14.506004,2,6,8,12,27,-1019
1264,14.51756,2,6,8,11,28,-1016
1265,14.529112,1,6,9,13,25,-1022
1266,14.540669,3,6,9,15,24,-1027
1267,14.552319,2,6,9,14,26,-1027
1268,14.564009,3,7,9,11,27,-1030
1269,14.575674,2,6,9,15,27,-1022
1270,14.587358,2,6,8,10,26,-1023
1271,14.599112,2,6,8,16,26,-1019
1272,14.610823,2,6,10,15,27,-1017
1273,14.622494,2,6,9,10,23,-1021
1274,14.634155,1,6,10,11,25,-1018
1275,14.645801,2,6,9,13,26,-1025
1276,14.657363,3,6,9,10,25,-1023
1277,14.668939,2,6,9,15,27,-1023
1278,14.68049,2,6,9,11,27,-1022
1279,14.69204,2,6,9,13,29,-1020
1280,14.703601,2,5,9,10,22,-1024
1281,14.715236,2,6,9,15,28,-1022
1282,14.726835,2,6,8,12,25,-1022
1283,14.738435,2,6,9,9,25,-1022
1284,14.750066,3,6,9,10,21,-1019
1285,14.761741,2,6,8,13,25,-1024
1286,14.773389,2,6,9,8,22,-1017
1287,14.78505,3,7,9,10,28,-1027
1288,14.796721,2,7,9,14,25,-1024
1289,14.808374,2,6,9,14,28,-1016
1290,14.820048,3,6,8,15,29,-1027
1291,14.831745,2,7,9,11,26,-1022
1292,14.843422,3,6,8,13,26,-1018
1293,14.855108,2,5,9,14,26,-1020
1294,14.866701,2,7,9,14,25,-1021
1295,14.878282,2,5,9,10,24,-1016
1296,14.88985,2,6,9,17,29,-1023
1297,14.901425,2,6,9,13,27,-1018
1298,14.912976,2,6,8,13,24,-1026
1299,14.924547,2,6,9,13,24,-1025
1300,14.936087,2,6,9,15,23,-1021
1301,14.94768,2,6,8,12,28,-1020
1302,14.959299,3,6,9,12,26,-1021
1303,14.970979,2,7,8,15,26,-1016
1304,14.982637,2,7,8,13,27,-1025
1305,14.994289,2,6,9,9,23,-1027
1306,15.005938,2,6,9,14,22,-1019
1307,15.01762,3,7,9,13,26,-1024
1308,15.029263,2,6,8,13,24,-1017
1309,15.04091,3,6,9,14,24,-1024
1310,15.052595,2,6,8,12,21,-1026
1311,15.064266,2,6,8,12,28,-1017
1312,15.075835,3,6,9,12,27,-1025
1313,15.087428,3,6,9,12,28,-1019
1314,15.098987,2,6,9,11,29,-1025
1315,15.110555,2,6,8,11,24,-1022
1316,15.1221,2,6,9,13,26,-1021
1317,15.133657,3,5,8,15,26,-1023
1318,15.145211,2,6,9,11,27,-1022
1319,15.156769,2,5,9,10,22,-1016
1320,15.168396,2,7,8,12,30,-1028
1321,15.18006,2,6,9,13,22,-1028
1322,15.191748,2,6,9,16,27,-1023
1323,15.203404,3,6,9,12,26,-1024
1324,15.21509,2,6,9,16,25,-1019
1325,15.226751,2,6,9,12,23,-1024
1326,15.238402,2,6,9,17,24,-1024
1327,15.250054,2,6,9,16,22,-1016
1328,15.261745,3,5,8,11,23,-1027
1329,15.2734,3,6,9,16,27,-1014
1330,15.284965,3,6,8,14,26,-1017
1331,15.296547,3,6,9,10,25,-1018
1332,15.3081,2,5,9,11,26,-1026
1333,15.31968,2,6,9,12,27,-1024
1334,15.331279,3,6,9,8,26,-1018
1335,15.342817,2,7,9,12,28,-1020
1336,15.354361,3,6,9,14,27,-1024
1337,15.365925,2,6,9,13,26,-1024
1338,15.377536,2,7,9,11,24,-1025
1339,15.389216,2,6,9,12,28,-1028
1340,15.400878,3,6,9,12,23,-1023
1341,15.412533,2,6,9,15,26,-1017
1342,15.424202,2,6,10,10,29,-1020
1343,15.435873,3,6,9,14,24,-1026
1344,15.447563,2,7,9,11,25,-1023
1345,15.459245,2,5,9,10,22,-1020
1346,15.470914,3,6,8,14,25,-1022
1347,15.482593,3,6,8,16,26,-1020
1348,15.494181,2,6,9,11,26,-1017
1349,15.505739,1,5,8,10,23,-1015
1350,15.517308,2,6,8,11,26,-1023
1351,15.528855,2,6,9,13,29,-1018
1352,15.540408,3,6,9,9,28,-1019
1353,15.551965,2,6,9,12,26,-1015
1354,15.563537,2,6,9,15,31,-1016
1355,15.575084,3,6,9,11,25,-1021
1356,15.586735,3,6,9,13,23,-1023
1357,15.598394,2,6,8,13,26,-1025
1358,15.610058,3,7,8,16,27,-1024
1359,15.621729,2,6,9,15,28,-1028
1360,15.633377,1,7,9,14,26,-1028
1361,15.645024,2,6,9,15,23,-1021
1362,15.656695,3,5,10,14,24,-1026
1363,15.668355,2,5,9,12,29,-1019
1364,15.680024,2,6,9,14,21,-1020
1365,15.691685,2,6,9,14,27,-1017
1366,15.703237,2,7,8,15,25,-1024
1367,15.714816,2,5,8,13,26,-1033
1368,15.726359,2,6,8,11,23,-1019
1369,15.737907,2,6,9,12,24,-1022
1370,15.74946,3,6,8,14,25,-1018
1371,15.76106,3,6,9,10,26,-1020
1372,15.772616,2,6,8,15,20,-1017
1373,15.784187,2,6,9,11,25,-1021
1374,15.795841,3,6,9,16,28,-1023
1375,15.807497,3,6,8,11,28,-1020
1376,15.819222,2,6,9,11,26,-1017
1377,15.83089,3,6,9,13,23,-1022
1378,15.842569,2,6,9,15,26,-1022
1379,15.854241,2,6,8,13,25,-1024
1380,15.865899,2,7,9,8,24,-1020
1381,15.877552,2,6,8,12,28,-1019
1382,15.889239,3,6,9,9,27,-1023
1383,15.900906,3,6,9,10,25,-1022
1384,15.912483,2,7,9,14,26,-1024
1385,15.924056,2,6,9,9,28,-1028
1386,15.935618,2,6,8,13,27,-1030
1387,15.947189,2,6,9,13,24,-1015
1388,15.95874,3,6,9,13,26,-1023
1389,15.970292,2,6,9,10,25,-1019
1390,15.981845,3,5,9,9,22,-1016
1391,15.993428,2,6,9,13,29,-1026
1392,16.005091,3,5,9,11,26,-1024
1393,16.016755,3,6,9,13,26,-1026
1394,16.028421,3,6,9,12,24,-1018
1395,16.040088,3,6,9,11,25,-1024
1396,16.051754,2,7,8,12,24,-1018
1397,16.063433,2,7,8,13,23,-1024
1398,16.07511,2,6,9,13,22,-1027
1399,16.086772,2,6,9,16,24,-1020
1400,16.098455,2,6,9,13,22,-1023
1401,16.110108,3,5,9,16,22,-1022
1402,16.121679,2,6,9,9,28,-1020
1403,16.133239,2,6,9,14,28,-1021
1404,16.144796,2,6,9,15,25,-1023
1405,16.156379,3,5,8,11,25,-1020
1406,16.167938,3,5,9,12,26,-1014
1407,16.179548,2,6,9,13,26,-1023
1408,16.191077,2,6,8,12,24,-1024
1409,16.202632,2,6,9,10,26,-1019
1410,16.214249,2,5,9,15,25,-1023
1411,16.225898,2,6,9,13,27,-1021
1412,16.237544,2,7,9,13,23,-1020
1413,16.249224,2,6,9,11,29,-1015
1414,16.260873,2,6,8,11,26,-1019
1415,16.272521,2,6,9,7,28,-1017
1416,16.284191,3,6,8,12,28,-1024
1417,16.295868,3,6,9,11,27,-1025
1418,16.307559,3,7,8,13,26,-1019
1419,16.319234,2,6,8,14,22,-1020
1420,16.330823,2,6,9,12,24,-1025
1421,16.342408,2,5,9,14,27,-1020
1422,16.353956,2,7,8,11,25,-1018
1423,16.365508,3,6,9,14,26,-1026
1424,16.377061,2,5,9,14,22,-1029
1425,16.388614,1,6,8,13,25,-1025
1426,16.400181,2,6,8,14,29,-1021
1427,16.411739,3,6,9,14,23,-1016
1428,16.423425,3,6,9,12,26,-1024
1429,16.435102,2,5,10,10,25,-1022
1430,16.446771,2,6,8,9,26,-1019
1431,16.458441,2,6,9,13,23,-1017
1432,16.470101,3,6,9,12,26,-1021
1433,16.481757,3,6,9,13,26,-1020
1434,16.493422,3,6,8,14,24,-1020
1435,16.505082,2,6,9,14,25,-1026
1436,16.516735,2,6,8,14,25,-1021
1437,16.528294,2,6,9,13,27,-1022
1438,16.539849,3,6,9,15,28,-1017
1439,16.551424,3,6,8,10,26,-1023
1440,16.56303,2,6,10,13,24,-1022
1441,16.574576,2,6,9,10,25,-1022
1442,16.586162,2,6,8,16,24,-1023
1443,16.597702,2,6,9,16,22,-1024
1444,16.609257,3,6,10,13,23,-1018
1445,16.620877,2,6,8,13,24,-1019
1446,16.63253,2,6,9,13,28,-1021
1447,16.644186,3,6,9,12,24,-1023
1448,16.655879,2,6,9,11,29,-1026
1449,16.667563,2,6,8,10,22,-1036
1450,16.679241,2,5,9,14,26,-1021
1451,16.690902,2,6,8,12,23,-1025
1452,16.702586,2,7,9,11,27,-1019
1453,16.714248,2,6,8,14,24,-1022
1454,16.725909,2,6,8,12,26,-1022
1455,16.737468,2,6,8,11,27,-1022
1456,16.749043,2,6,9,13,27,-1018
1457,16.760592,2,7,8,10,28,-1022
1458,16.772141,2,6,9,17,23,-1026
1459,16.783694,2,6,8,13,27,-1026
1460,16.795238,2,7,9,10,23,-1018
1461,16.806822,3,6,9,15,29,-1022
1462,16.818415,2,7,8,13,24,-1020
1463,16.830104,2,5,9,14,26,-1025
1464,16.841763,2,7,9,13,27,-1021
1465,16.85341,2,5,9,15,29,-1022
1466,16.865071,3,6,9,7,23,-1027
1467,16.876728,3,6,9,11,27,-1025
1468,16.88837,2,5,8,14,28,-1022
1469,16.900026,2,6,9,10,27,-1021
1470,16.911699,2,6,9,11,25,-1017
1471,16.923349,2,5,9,11,22,-1021
1472,16.934962,3,5,10,8,28,-1018
1473,16.946521,2,6,8,9,24,-1018
1474,16.958076,3,5,8,15,28,-1023
1475,16.969648,2,6,9,11,26,-1015
1476,16.981208,3,6,9,14,31,-1024
1477,16.992806,2,6,9,13,28,-1022
1478,17.004371,3,6,8,10,26,-1021
1479,17.015927,2,6,8,13,24,-1023
1480,17.027495,2,6,9,15,26,-1025
1481,17.039059,2,6,9,12,27,-1018
1482,17.050649,2,6,10,13,20,-1019
1483,17.062201,2,6,9,14,25,-1023
1484,17.073782,2,6,9,13,23,-1023
1485,17.085321,3,5,9,14,28,-1025
1486,17.096862,3,6,8,13,24,-1025
1487,17.108409,2,6,9,12,26,-1019
1488,17.119955,2,6,9,13,28,-1028
1489,17.131543,2,6,9,17,26,-1018
1490,17.143268,2,6,9,11,28,-1018
1491,17.154985,2,5,9,8,28,-1017
1492,17.16666,3,7,9,17,28,-1019
1493,17.178342,2,6,9,10,22,-1016
1494,17.189987,2,5,9,10,32,-1025
1495,17.20164,2,6,8,14,24,-1024
1496,17.213331,3,6,9,12,23,-1021
1497,17.224971,2,6,8,11,28,-1023
1498,17.236635,2,6,9,10,25,-1021
1499,17.248301,2,6,8,9,21,-1025
1500,17.259868,2,6,8,11,26,-1025
1501,17.271433,2,6,8,13,23,-1022
1502,17.282987,2,5,9,13,27,-1015
1503,17.294579,2,6,9,13,28,-1020
1504,17.306177,3,7,9,14,26,-1021
1505,17.31779,3,5,8,13,27,-1027
1506,17.329347,2,6,9,14,20,-1025
1507,17.340932,2,6,9,15,26,-1014
1508,17.352555,2,6,8,10,29,-1027
1509,17.364224,3,6,9,17,27,-1022
1510,17.375878,2,6,9,14,23,-1022
1511,17.387555,3,6,9,17,27,-1020
1512,17.399233,3,6,8,11,23,-1020
1513,17.410894,2,6,9,12,21,-1020
1514,17.422601,2,6,9,14,28,-1020
1515,17.434258,2,5,9,15,26,-1028
1516,17.445946,1,5,8,13,25,-1026
1517,17.45761,2,7,9,11,29,-1018
1518,17.469175,2,6,9,11,27,-1021
1519,17.480738,2,6,8,14,31,-1023
1520,17.492287,3,6,9,9,23,-1022
1521,17.50383,2,6,8,11,23,-1021
1522,17.515393,3,6,9,12,27,-1024
1523,17.526943,3,6,9,17,26,-1018
1524,17.538487,2,5,9,9,29,-1023
1525,17.550042,2,6,9,9,23,-1025
1526,17.561741,2,5,8,7,26,-1024
1527,17.573405,2,6,8,8,23,-1022
1528,17.585076,3,7,9,8,26,-1020
1529,17.596727,2,6,8,12,25,-1017
1530,17.608382,3,6,8,11,23,-1024
1531,17.620053,3,6,9,12,27,-1019
1532,17.631735,3,5,8,16,27,-1026
1533,17.643358,2,6,8,14,27,-1022
1534,17.655029,2,6,9,13,29,-1022
1535,17.666699,3,5,8,14,26,-1025
1536,17.678373,2,7,8,12,24,-1027
1537,17.690025,2,6,9,13,25,-1021
1538,17.701699,2,6,9,15,28,-1025
1539,17.713346,2,6,9,11,28,-1025
1540,17.724993,3,5,9,12,23,-1024
1541,17.736656,2,6,9,13,22,-1022
1542,17.748315,2,6,9,9,29,-1025
1543,17.760022,2,6,10,12,25,-1016
1544,17.771702,2,6,9,16,26,-1023
1545,17.78336,2,6,9,11,26,-1018
1546,17.795033,2,6,9,13,24,-1021
1547,17.806722,2,6,9,15,26,-1021
1548,17.818362,1,6,9,13,28,-1020
1549,17.830008,2,7,9,11,23,-1024
1550,17.841675,2,6,9,9,28,-1019
1551,17.85333,1,4,8,13,25,-1023
1552,17.86501,2,5,9,11,26,-1027
1553,17.876686,2,5,9,16,29,-1017
1554,17.888338,2,6,8,12,28,-1019
1555,17.900005,3,6,9,11,27,-1017
1556,17.911682,2,6,8,10,29,-1026
1557,17.923361,2,5,9,11,24,-1020
1558,17.935012,3,6,9,14,28,-1022
1559,17.946663,3,6,9,16,28,-1020
1560,17.958334,2,6,9,16,23,-1021
1561,17.970001,2,6,9,15,21,-1023
1562,17.981688,2,7,8,10,26,-1015
1563,17.993283,2,6,8,10,27,-1025
1564,18.004834,3,5,9,10,26,-1020
1565,18.016384,3,6,9,14,24,-1024
1566,18.027938,2,6,9,12,24,-1024
1567,18.039516,2,6,8,11,23,-1025
1568,18.051063,1,6,9,13,26,-1020
1569,18.062646,2,6,9,15,27,-1016
1570,18.074212,2,6,9,11,23,-1022
1571,18.085839,2,6,8,9,24,-1025
1572,18.097499,3,6,9,12,28,-1019
1573,18.109145,2,6,9,13,30,-1022
1574,18.120801,2,7,9,14,26,-1022
1575,18.132488,2,6,9,19,26,-1018
1576,18.144134,3,6,9,11,24,-1016
1577,18.155791,2,5,9,14,27,-1020
1578,18.16748,2,6,9,10,24,-1020
1579,18.179118,2,6,9,11,20,-1019
1580,18.19079,2,6,8,15,28,-1026
1581,18.202352,2,6,10,11,27,-1020
1582,18.213907,2,6,9,17,25,-1026
1583,18.225477,2,5,9,11,28,-1019
1584,18.237048,2,6,9,9,27,-1021
1585,18.24862,3,6,9,11,28,-1026
1586,18.260162,2,6,9,14,27,-1020
1587,18.271707,3,6,9,13,27,-1028
1588,18.283322,3,6,9,12,24,-1028
1589,18.295029,3,6,9,15,28,-1017
1590,18.306726,2,6,9,19,25,-1024
1591,18.318387,2,5,9,11,29,-1021
1592,18.330046,3,6,9,11,28,-1021
1593,18.341779,2,6,9,16,25,-1023
1594,18.353522,2,6,9,13,27,-1020
1595,18.365209,3,6,9,12,28,-1021
1596,18.376878,2,5,9,17,27,-1019
1597,18.38857,2,6,9,12,27,-1020
1598,18.400279,3,6,8,9,28,-1025
1599,18.411884,2,6,8,14,24,-1024
1600,18.423448,3,6,10,13,26,-1024
1601,18.435005,2,5,9,14,29,-1018
1602,18.446573,3,6,8,10,26,-1019
1603,18.458146,3,6,9,13,23,-1024
1604,18.469688,2,6,9,15,24,-1029
1605,18.481233,2,6,10,16,25,-1024
1606,18.492786,2,6,8,11,24,-1020
1607,18.504431,2,6,9,12,22,-1020
1608,18.516125,2,6,8,14,21,-1021
1609,18.527811,2,6,9,11,24,-1016
1610,18.539477,3,6,9,14,28,-1015
1611,18.55111,3,6,8,16,24,-1021
1612,18.565537,2,6,10,16,25,-1015
1613,18.577231,2,5,9,15,30,-1019
1614,18.58889,3,6,10,10,26,-1024
1615,18.600578,2,6,9,13,23,-1020
1616,18.612273,2,6,9,9,26,-1022
1617,18.623841,2,6,8,15,26,-1025
1618,18.635443,2,6,9,14,24,-1022
1619,18.647036,2,7,9,14,24,-1019
1620,18.658578,2,6,9,14,23,-1020
1621,18.670149,2,5,9,13,29,-1021
1622,18.681692,3,7,10,15,25,-1025
1623,18.693237,2,6,9,12,26,-1015
1624,18.704814,2,5,9,13,22,-1023
1625,18.716451,2,5,9,8,27,-1025
1626,18.728161,2,6,8,12,28,-1017
1627,18.739851,2,5,9,11,30,-1024
1628,18.751537,2,5,10,9,24,-1025
1629,18.763227,3,5,9,14,24,-1019
1630,18.774903,3,6,9,15,29,-1015
1631,18.78659,2,6,9,14,29,-1029
1632,18.798236,2,6,9,13,27,-1026
1633,18.809928,2,6,8,16,27,-1020
1634,18.821601,2,6,8,14,26,-1025
1635,18.833173,2,6,9,13,28,-1018
1636,18.84475,2,5,8,11,28,-1024
1637,18.856296,2,6,9,8,24,-1023
1638,18.867856,3,6,9,14,26,-1025
1639,18.879428,3,6,8,9,26,-1020
1640,18.890983,3,6,9,9,24,-1025
1641,18.902531,3,6,9,13,25,-1020
1642,18.91412,2,6,9,17,25,-1028
1643,18.925746,2,6,9,12,22,-1025
1644,18.937425,3,6,9,9,27,-1020
1645,18.94908,2,5,8,8,27,-1020
1646,18.960729,2,6,8,12,26,-1021
1647,18.972378,2,6,9,14,26,-1023
1648,18.984055,2,5,9,14,29,-1020
1649,18.995744,2,5,9,11,25,-1026
1650,19.007401,2,6,9,14,25,-1021
1651,19.019097,3,5,9,11,22,-1019
1652,19.030768,3,6,9,15,25,-1023
1653,19.042329,3,6,9,15,27,-1020
1654,19.053903,3,6,9,13,23,-1025
1655,19.065454,3,6,8,15,26,-1017
1656,19.077023,2,7,8,13,32,-1023
1657,19.088576,2,6,9,11,24,-1017
1658,19.100122,2,6,8,10,27,-1026
1659,19.11168,2,7,9,11,25,-1020
1660,19.123245,2,6,10,10,28,-1018
1661,19.13485,3,6,9,11,28,-1019
1662,19.146509,2,6,9,7,26,-1016
1663,19.158182,2,6,9,13,25,-1017
1664,19.169837,2,5,9,13,25,-1019
1665,19.181517,2,5,9,13,26,-1024
1666,19.193193,2,6,9,15,25,-1020
1667,19.204835,2,6,8,15,27,-1015
1668,19.216493,2,6,9,15,25,-1020
1669,19.228143,2,6,9,10,25,-1028
1670,19.23971,2,6,9,13,28,-1026
1671,19.251287,2,5,8,15,29,-1028
1672,19.262822,2,6,9,10,26,-1028
1673,19.274373,3,5,9,15,27,-1022
1674,19.285941,2,6,8,10,27,-1023
1675,19.297498,2,7,8,14,23,-1028
1676,19.30905,2,6,9,13,25,-1023
1677,19.320631,2,6,9,11,26,-1029
1678,19.332194,2,6,8,9,28,-1026
1679,19.343894,2,6,8,12,24,-1022
1680,19.355596,3,6,9,12,26,-1028
1681,19.36726,2,6,9,10,24,-1022
1682,19.378958,2,6,9,12,24,-1021
1683,19.390592,2,5,9,11,24,-1026
1684,19.402246,2,6,9,14,24,-1024
1685,19.413922,2,6,9,13,25,-1022
1686,19.425579,2,6,8,11,25,-1023
1687,19.437242,2,6,9,13,24,-1027
1688,19.4489,2,6,9,12,25,-1021
1689,19.460503,2,6,8,13,27,-1025
1690,19.472057,2,5,9,11,23,-1018
1691,19.483629,3,6,9,13,23,-1023
1692,19.495191,3,6,9,13,25,-1016
1693,19.506782,2,6,9,13,29,-1027
1694,19.518345,2,6,9,9,24,-1023
1695,19.529895,2,5,8,16,23,-1020
1696,19.541451,2,7,9,13,23,-1018
1697,19.553104,2,6,8,15,24,-1022
1698,19.564763,2,6,9,8,28,-1020
1699,19.576422,2,7,9,11,22,-1021
1700,19.5881,2,6,9,10,31,-1021
1701,19.599755,2,5,8,16,22,-1020
1702,19.611437,2,6,9,12,26,-1025
1703,19.623108,2,6,8,13,27,-1015
1704,19.634762,3,6,8,12,24,-1024
1705,19.646426,2,6,9,12,25,-1019
1706,19.658085,2,6,9,17,25,-1017
1707,19.66965,2,6,9,13,26,-1027
1708,19.681203,2,6,9,15,26,-1027
1709,19.692753,2,6,9,11,27,-1026
1710,19.704309,1,6,9,16,24,-1020
1711,19.71589,2,6,9,12,25,-1023
1712,19.72745,2,7,9,11,22,-1026
1713,19.739009,2,6,9,11,25,-1023
1714,19.750588,2,6,9,10,29,-1017
1715,19.762215,2,6,8,11,25,-1021
1716,19.773919,3,7,8,11,24,-1017
1717,19.785573,2,6,9,13,24,-1017
1718,19.797225,2,6,9,11,26,-1025
1719,19.808887,3,6,9,12,24,-1024
1720,19.820559,2,5,8,13,22,-1023
1721,19.832212,2,6,9,17,28,-1024
1722,19.843886,3,6,9,13,27,-1018
1723,19.855574,2,5,9,11,26,-1023
1724,19.867235,2,6,9,14,25,-1019
1725,19.878918,2,6,9,10,29,-1025
1726,19.89059,2,5,9,13,23,-1020
1727,19.902238,3,6,9,10,25,-1026
1728,19.913911,2,7,9,11,23,-1022
1729,19.925592,2,6,9,18,26,-1018
1730,19.937247,2,6,9,11,26,-1017
1731,19.948927,2,7,10,9,24,-1026
1732,19.960569,2,6,9,9,23,-1020
1733,19.972142,2,6,8,16,23,-1022
1734,19.9837,2,6,9,14,26,-1022
1735,19.995263,2,6,9,14,27,-1022
1736,20.006821,2,6,8,13,24,-1019
1737,20.01837,2,6,9,13,28,-1026
1738,20.029924,1,6,9,12,26,-1019
1739,20.041519,1,6,9,13,22,-1024
1740,20.053069,2,6,9,13,28,-1024
1741,20.064639,2,6,9,11,23,-1027
1742,20.076323,3,6,8,15,27,-1028
1743,20.087997,3,6,9,15,30,-1021
1744,20.099688,2,6,9,12,27,-1022
1745,20.111365,2,5,9,13,27,-1024
1746,20.123031,2,6,9,15,28,-1025
1747,20.134743,2,6,9,15,30,-1023
1748,20.146414,2,5,9,13,26,-1020
1749,20.158131,2,5,8,11,27,-1020
1750,20.16985,2,6,9,12,29,-1021
1751,20.181417,2,6,9,13,26,-1018
1752,20.192967,3,7,10,13,25,-1027
1753,20.20452,2,6,9,10,27,-1024
1754,20.216106,3,6,8,13,27,-1021
1755,20.227668,3,7,8,8,24,-1021
1756,20.239265,2,6,10,10,25,-1020
1757,20.250817,3,5,9,13,23,-1023
1758,20.262423,2,6,9,10,29,-1021
1759,20.274057,3,6,8,10,29,-1027
1760,20.28571,2,5,9,13,28,-1024
1761,20.297373,2,6,9,12,28,-1015
1762,20.309028,2,7,9,15,28,-1019
1763,20.320696,2,5,9,12,25,-1025
1764,20.33234,2,6,9,14,24,-1022
1765,20.344003,2,7,9,15,26,-1022
1766,20.355679,3,6,9,13,22,-1030
1767,20.367359,2,6,9,16,26,-1012
1768,20.379032,3,6,9,15,24,-1024
1769,20.390638,3,7,9,15,29,-1019
1770,20.402199,3,6,9,12,27,-1025
1771,20.413758,2,6,9,13,26,-1023
1772,20.425302,2,6,9,11,23,-1017
1773,20.436847,3,6,9,12,26,-1020
1774,20.448396,3,7,9,15,23,-1024
1775,20.459948,2,6,9,14,25,-1023
1776,20.471532,3,5,9,11,25,-1023
1777,20.483229,2,6,9,13,24,-1018
1778,20.494913,2,6,8,13,27,-1012
1779,20.506585,2,6,9,14,31,-1020
1780,20.518243,3,6,7,12,25,-1021
1781,20.529895,3,6,9,13,27,-1025
1782,20.541558,3,7,9,12,26,-1025
1783,20.55321,3,5,9,13,26,-1019
1784,20.564857,2,5,9,13,28,-1019
1785,20.576522,2,6,9,11,23,-1021
1786,20.588192,2,6,9,12,28,-1024
1787,20.599778,3,6,9,12,21,-1025
1788,20.6113,2,5,9,11,25,-1024
1789,20.622823,3,5,9,15,31,-1026
1790,20.634377,3,6,9,15,24,-1024
1791,20.645924,2,5,8,14,25,-1018
1792,20.657478,3,6,9,11,26,-1020
1793,20.669053,3,6,9,10,23,-1019
1794,20.680622,2,5,10,9,24,-1024
1795,20.692261,2,6,9,14,26,-1022
1796,20.703941,3,7,8,11,25,-1021
1797,20.715602,3,6,9,14,28,-1023
1798,20.727258,2,6,9,14,24,-1022
1799,20.738964,3,7,9,11,23,-1023
1800,20.750587,3,6,8,12,23,-1021
1801,20.762277,3,6,9,9,23,-1014
1802,20.773936,2,7,9,14,28,-1024
1803,20.785599,2,6,8,15,22,-1016
1804,20.797276,2,6,9,12,25,-1025
1805,20.808935,2,6,9,12,27,-1026
1806,20.820584,2,6,8,15,27,-1023
1807,20.832237,2,7,9,14,27,-1025
1808,20.84387,2,7,9,12,28,-1016
1809,20.855524,2,6,8,11,26,-1019
1810,20.867221,2,6,8,12,27,-1029
1811,20.878849,3,5,9,12,28,-1019
1812,20.890537,3,5,8,12,25,-1019
1813,20.902195,2,6,9,10,23,-1020
1814,20.91384,2,6,8,15,24,-1020
1815,20.925486,3,6,9,18,27,-1020
1816,20.937156,2,6,9,13,25,-1023
1817,20.948806,3,6,9,11,22,-1019
1818,20.960481,2,5,9,14,28,-1025
1819,20.972159,2,6,9,13,25,-1030
1820,20.983813,2,6,8,17,22,-1025
1821,20.995514,2,7,8,15,28,-1023
1822,21.007209,3,6,10,10,27,-1020
1823,21.018843,3,6,9,11,28,-1023
1824,21.030569,2,6,9,19,23,-1025
1825,21.042217,2,6,9,13,29,-1021
1826,21.053875,2,6,9,16,27,-1019
1827,21.065549,2,6,9,13,31,-1022
1828,21.077203,2,7,9,9,28,-1022
1829,21.088851,2,6,10,13,23,-1025
1830,21.100538,3,5,9,12,22,-1021
1831,21.112208,3,6,9,14,28,-1023
1832,21.123792,1,6,9,8,26,-1014
1833,21.135379,3,6,9,10,27,-1024
1834,21.146943,3,6,9,12,27,-1025
1835,21.158504,2,7,9,12,25,-1025
1836,21.170051,2,6,9,10,26,-1021
1837,21.181609,3,6,9,14,22,-1023
1838,21.193158,3,6,9,9,23,-1026
1839,21.204718,2,6,9,12,28,-1027
1840,21.216344,2,6,9,11,20,-1018
1841,21.228006,2,6,8,14,21,-1024
1842,21.239685,2,6,8,13,26,-1024
1843,21.251409,3,6,9,14,26,-1024
1844,21.263262,2,7,9,13,24,-1018
1845,21.274925,2,6,9,13,25,-1026
1846,21.286587,2,6,9,8,23,-1022
1847,21.298247,2,6,9,12,25,-1022
1848,21.309917,3,6,9,12,30,-1025
1849,21.321627,2,6,9,7,27,-1019
1850,21.33319,2,6,8,10,24,-1021
1851,21.344757,2,6,8,11,25,-1019
1852,21.356299,2,5,8,11,27,-1022
1853,21.367861,3,6,10,12,23,-1016
1854,21.379424,2,6,9,12,30,-1018
1855,21.390977,3,7,9,14,23,-1020
1856,21.402615,2,6,9,13,23,-1018
1857,21.414182,2,5,9,11,27,-1021
1858,21.425813,3,6,9,15,25,-1019
1859,21.437475,3,5,8,12,28,-1025
1860,21.449126,2,6,9,17,24,-1018
1861,21.460791,2,6,9,9,27,-1018
1862,21.472447,2,7,9,12,25,-1019
1863,21.48412,2,6,9,13,22,-1018
1864,21.495795,3,6,8,13,27,-1022
1865,21.507482,2,6,8,14,27,-1020
1866,21.519117,2,5,9,13,28,-1015
1867,21.530779,3,6,8,11,27,-1025
1868,21.542344,2,7,8,12,26,-1031
1869,21.553907,2,6,8,9,27,-1025
1870,21.565507,2,7,8,13,25,-1025
1871,21.577062,2,6,9,14,27,-1024
1872,21.588623,2,5,9,16,22,-1020
1873,21.60017,2,6,9,13,20,-1017
1874,21.611718,2,6,9,16,26,-1024
1875,21.623307,3,7,10,9,26,-1024
1876,21.634981,2,6,9,11,25,-1014
1877,21.646663,2,6,9,13,27,-1023
1878,21.65832,2,5,9,13,23,-1021
1879,21.669986,2,6,9,10,25,-1021
1880,21.681648,2,6,9,17,25,-1025
1881,21.693308,2,7,9,12,28,-1023
1882,21.704968,2,5,9,13,27,-1018
1883,21.716636,2,6,8,15,26,-1024
1884,21.728315,2,6,8,15,24,-1015
1885,21.740022,2,6,8,12,27,-1021
1886,21.751724,2,7,8,12,26,-1024
1887,21.763363,2,6,8,11,22,-1027
1888,21.775063,2,5,9,11,24,-1023
1889,21.786738,2,6,9,11,22,-1017
1890,21.798405,2,5,9,17,29,-1027
1891,21.810063,2,6,8,14,30,-1018
1892,21.821726,2,5,8,13,26,-1023
1893,21.83346,2,5,9,12,26,-1019
1894,21.845138,3,6,10,12,28,-1019
1895,21.856758,2,6,9,11,30,-1022
1896,21.868326,2,5,9,14,24,-1029
1897,21.879898,3,6,9,13,26,-1018
1898,21.891456,2,5,9,12,25,-1023
1899,21.903009,3,6,9,16,25,-1017
1900,21.914577,2,6,9,14,28,-1025
1901,21.926128,2,7,9,10,24,-1024
1902,21.937731,2,5,10,17,23,-1018
1903,21.949367,2,6,8,14,25,-1026
1904,21.961048,3,5,9,10,23,-1019
1905,21.972688,3,5,9,17,23,-1021
1906,21.984335,3,5,9,16,29,-1018
1907,21.996023,2,6,8,16,28,-1022
1908,22.007674,2,5,9,10,23,-1021
1909,22.019352,2,5,10,14,28,-1021
1910,22.03105,2,5,9,11,25,-1018
1911,22.04272,2,6,9,15,28,-1022
1912,22.054274,2,6,9,13,23,-1020
1913,22.06583,2,6,9,11,24,-1021
1914,22.077381,3,6,9,13,26,-1024
1915,22.088928,2,6,9,10,24,-1022
1916,22.100475,2,6,9,12,26,-1020
1917,22.112024,2,6,9,15,29,-1019
1918,22.12361,2,6,8,8,21,-1016
1919,22.135182,2,6,8,15,25,-1019
1920,22.146794,3,6,8,12,25,-1026
1921,22.158422,2,6,9,14,22,-1021
1922,22.170078,2,6,8,13,26,-1024
1923,22.18173,2,6,9,14,28,-1025
1924,22.193417,2,6,9,12,23,-1017
1925,22.205065,2,7,8,11,22,-1022
1926,22.216715,3,5,8,14,31,-1023
1927,22.228386,2,6,9,13,25,-1024
1928,22.24007,2,6,8,10,21,-1017
1929,22.251754,2,5,8,14,31,-1017
1930,22.263432,2,6,9,11,28,-1024
1931,22.275013,2,6,9,14,25,-1022
1932,22.286577,2,7,9,11,26,-1028
1933,22.29813,2,7,8,12,28,-1026
1934,22.30974,3,6,8,14,24,-1027
1935,22.321295,3,6,9,11,23,-1019
1936,22.332869,2,5,9,12,24,-1019
1937,22.344435,2,6,9,13,28,-1016
1938,22.356036,3,6,9,10,28,-1025
1939,22.367735,2,5,9,15,20,-1026
1940,22.379422,3,5,9,13,26,-1015
1941,22.391106,3,6,10,16,29,-1022
1942,22.402795,2,6,8,12,30,-1021
1943,22.414446,2,6,8,15,27,-1028
1944,22.426097,2,6,9,10,22,-1021
1945,22.437771,2,7,9,17,28,-1019
1946,22.449419,2,6,9,12,24,-1016
1947,22.461092,3,7,8,14,25,-1022
1948,22.47277,3,7,9,11,25,-1022
1949,22.484356,2,7,8,13,24,-1021
1950,22.495922,3,6,9,11,25,-1020
1951,22.507479,3,5,9,12,27,-1022
1952,22.519082,3,6,9,11,31,-1023
1953,22.530643,2,6,9,15,25,-1016
1954,22.542237,3,5,9,11,30,-1022
1955,22.553789,2,6,9,10,27,-1026
1956,22.565365,2,6,9,13,29,-1021
1957,22.577086,2,7,9,7,28,-1022
1958,22.588778,2,7,8,11,24,-1017
1959,22.600426,2,5,9,11,29,-1020
1960,22.612111,2,6,9,13,26,-1023
1961,22.623809,2,6,9,17,28,-1021
1962,22.635482,3,6,9,14,29,-1018
1963,22.647169,3,6,8,11,23,-1020
1964,22.65885,2,7,9,10,25,-1021
1965,22.670507,2,6,8,12,28,-1017
1966,22.68219,2,6,9,12,27,-1021
1967,22.693752,2,6,8,11,26,-1023
1968,22.7053,2,7,8,13,23,-1025
1969,22.716867,2,6,9,11,26,-1023
1970,22.728436,2,6,9,12,25,-1018
1971,22.740089,2,6,9,12,24,-1028
1972,22.751652,2,6,9,13,26,-1015
1973,22.763241,2,6,9,14,26,-1020
1974,22.774821,2,5,9,15,27,-1026
1975,22.786469,3,5,9,13,22,-1023
1976,22.798156,2,6,10,13,27,-1019
1977,22.80982,2,5,9,11,24,-1025
1978,22.821471,3,6,9,13,24,-1023
1979,22.833147,2,6,9,13,23,-1025
1980,22.844806,2,6,9,14,24,-1025
1981,22.856488,3,6,9,15,26,-1024
1982,22.868172,2,6,9,13,27,-1022
1983,22.879881,2,6,8,13,24,-1020
1984,22.891573,2,6,9,10,27,-1027
1985,22.903152,3,6,9,13,26,-1020
1986,22.914761,3,6,9,15,30,-1019
1987,22.92634,3,6,8,15,24,-1016
1988,22.937885,2,5,8,12,28,-1019
1989,22.949428,2,6,8,12,27,-1025
1990,22.960987,3,5,8,9,28,-1019
1991,22.972546,2,6,9,9,27,-1022
1992,22.98411,2,6,9,14,27,-1018
1993,22.995807,2,6,9,17,24,-1015
1994,23.007506,2,5,9,15,24,-1019
1995,23.019166,2,5,9,8,26,-1026
1996,23.030839,2,6,9,15,28,-1028
1997,23.042512,1,6,9,16,28,-1024
1998,23.054173,2,6,9,11,25,-1022
1999,23.065834,2,6,9,16,27,-1022
