sample,t_s,gyro_x,gyro_y,gyro_z,accel_x,accel_y,accel_z
0,1.2e-05,1,0,1,1032,1,-1546
1,0.011241,1,1,1,1035,2,-1551
2,0.022427,0,0,1,1035,0,-1542
3,0.03361,1,-1,1,1036,0,-1548
4,0.044793,1,0,2,1036,1,-1546
5,0.055977,0,0,1,1035,1,-1552
6,0.067163,0,0,0,1033,0,-1547
7,0.078356,0,0,0,1034,-2,-1547
8,0.08954,0,1,1,1034,1,-1546
9,0.100726,0,0,1,1032,2,-1547
10,0.111923,0,0,2,1033,1,-1545
11,0.123169,0,-1,0,1036,-1,-1549
12,0.134368,0,0,1,1035,-3,-1546
13,0.145553,0,-1,0,1033,3,-1547
14,0.15674,0,-1,0,1035,0,-1543
15,0.167926,0,0,0,1032,1,-1554
16,0.179109,0,-1,0,1036,3,-1545
17,0.190297,0,0,0,1030,3,-1548
18,0.201482,1,-1,0,1033,0,-1544
19,0.212666,1,-1,-1,1037,0,-1541
20,0.223851,0,-1,1,1031,0,-1552
21,0.235036,0,-2,1,1033,1,-1550
22,0.246237,0,0,1,1037,-3,-1548
23,0.25742,0,3,1,1032,2,-1549
24,0.268602,1,1,0,1033,2,-1537
25,0.279786,1,0,-1,1030,1,-1544
26,0.290971,1,-1,0,1034,0,-1545
27,0.302167,1,-1,0,1033,3,-1547
28,0.31335,1,2,2,1032,1,-1544
29,0.324534,1,2,1,1032,0,-1542
30,0.335846,0,1,1,1032,2,-1541
31,0.347196,1,-1,1,1034,1,-1548
32,0.358435,1,1,1,1033,1,-1548
33,0.369631,0,-1,1,1036,2,-1545
34,0.380821,0,-1,0,1033,-1,-1544
35,0.392023,0,-1,0,1031,-2,-1543
36,0.40321,1,0,1,1032,1,-1546
37,0.414404,0,1,1,1033,2,-1544
38,0.425591,1,0,1,1032,-4,-1549
39,0.436781,1,-1,0,1033,-1,-1542
40,0.447972,0,1,0,1033,0,-1547
41,0.459159,-1,0,1,1030,0,-1553
42,0.470355,0,1,-1,1033,0,-1542
43,0.481539,0,1,0,1034,1,-1549
44,0.492722,1,1,1,1029,0,-1545
45,0.503915,1,0,1,1032,4,-1547
46,0.515099,1,0,1,1033,2,-1559
47,0.526243,0,0,1,1036,2,-1545
48,0.537424,1,0,1,1034,2,-1544
49,0.548607,0,-1,0,1033,1,-1548
50,0.559789,0,-1,0,1038,0,-1550
51,0.570998,-1,-1,0,1033,0,-1549
52,0.582279,0,-1,0,1035,2,-1551
53,0.593476,1,1,1,1034,0,-1544
54,0.604658,0,1,1,1033,0,-1542
55,0.615842,0,1,1,1032,3,-1555
56,0.627032,0,1,0,1033,0,-1545
57,0.638218,1,1,1,1038,0,-1541
58,0.649403,1,1,0,1034,2,-1552
59,0.660589,0,1,1,1037,-1,-1551
60,0.671774,0,0,1,1031,-3,-1549
61,0.682961,1,1,1,1030,4,-1552
62,0.694154,1,1,1,1032,2,-1542
63,0.705339,1,1,1,1034,0,-1550
64,0.716527,1,1,1,1033,1,-1538
65,0.727714,0,0,1,1030,2,-1545
66,0.738899,1,1,1,1031,1,-1546
67,0.75006,0,0,2,1036,0,-1548
68,0.761248,0,-1,1,1035,0,-1548
69,0.772433,0,-1,1,1035,1,-1547
70,0.783621,0,-1,0,1034,4,-1545
71,0.794807,1,0,1,1038,5,-1550
72,0.805999,1,0,1,1034,1,-1547
73,0.817188,1,0,1,1032,4,-1540
74,0.828373,0,-1,1,1033,1,-1545
75,0.839558,1,0,1,1035,0,-1545
76,0.850746,1,0,1,1033,-1,-1549
77,0.861937,1,2,1,1031,0,-1548
78,0.873128,0,1,1,1033,0,-1549
79,0.884315,0,0,1,1034,2,-1544
80,0.895501,0,1,1,1032,0,-1551
81,0.906703,0,-1,1,1031,3,-1543
82,0.917875,0,-1,1,1032,2,-1550
83,0.929059,0,-1,2,1034,-1,-1548
84,0.940245,0,-1,1,1037,0,-1546
85,0.951431,-1,-1,1,1038,1,-1550
86,0.962617,0,0,1,1034,1,-1549
87,0.973808,0,-1,1,1036,2,-1550
88,0.984992,0,-1,2,1040,3,-1537
89,0.996173,0,0,1,1035,1,-1548
90,1.007358,1,-1,2,1033,0,-1553
91,1.018545,0,-1,1,1033,1,-1545
92,1.029689,0,-1,1,1035,0,-1541
93,1.040879,0,0,0,1035,1,-1543
94,1.052068,1,0,1,1033,-1,-1550
95,1.063253,0,-2,2,1031,1,-1546
96,1.074429,1,0,1,1030,-1,-1548
97,1.08561,0,1,2,1032,3,-1548
98,1.096794,0,1,1,1038,0,-1547
99,1.107976,0,0,1,1038,2,-1543
100,1.119159,1,1,1,1032,-1,-1549
101,1.130352,0,0,0,1030,1,-1537
102,1.141536,0,0,1,1031,-2,-1542
103,1.15272,1,0,1,1032,2,-1545
104,1.163909,0,0,1,1030,2,-1550
105,1.175092,1,0,0,1033,2,-1541
106,1.186242,0,0,1,1033,4,-1546
107,1.197426,1,0,1,1033,0,-1545
108,1.208611,0,0,0,1037,0,-1544
109,1.219797,1,1,0,1034,5,-1549
110,1.230979,0,1,0,1036,-2,-1553
111,1.242172,0,1,0,1034,1,-1543
112,1.253356,1,0,1,1037,3,-1538
113,1.264538,1,0,1,1037,1,-1549
114,1.275721,1,0,0,1035,2,-1549
115,1.286904,0,0,0,1033,5,-1553
116,1.298059,0,-1,1,1033,0,-1541
117,1.309246,0,0,0,1038,3,-1540
118,1.32043,1,1,1,1032,0,-1544
119,1.331612,0,0,-1,1035,1,-1543
120,1.342795,1,-1,-1,1034,2,-1549
121,1.353984,0,-2,0,1037,0,-1542
122,1.365167,0,-1,1,1037,0,-1548
123,1.376351,0,-1,1,1034,-1,-1542
124,1.387534,0,-1,0,1030,1,-1549
125,1.398725,1,-1,1,1030,-1,-1546
126,1.409912,1,0,1,1036,-1,-1550
127,1.421109,0,1,0,1031,-3,-1545
128,1.432297,0,1,1,1036,-2,-1546
129,1.443484,0,1,1,1035,0,-1545
130,1.45467,1,1,1,1030,-1,-1543
131,1.465871,0,1,2,1034,-2,-1550
132,1.477055,0,0,1,1036,3,-1546
133,1.488242,0,-1,0,1031,4,-1546
134,1.499426,0,-1,0,1032,-2,-1546
135,1.51061,0,-1,0,1032,3,-1546
136,1.521803,-1,0,0,1033,1,-1550
137,1.532988,0,0,0,1031,0,-1545
138,1.544174,1,-1,0,1033,-2,-1544
139,1.555362,1,0,1,1034,1,-1542
140,1.566551,1,0,1,1032,1,-1542
141,1.577737,0,0,1,1032,2,-1549
142,1.588922,0,1,0,1032,-1,-1546
143,1.600108,-1,0,1,1032,3,-1547
144,1.611292,1,0,1,1033,0,-1543
145,1.62248,0,-1,1,1036,2,-1545
146,1.633666,0,0,1,1032,3,-1539
147,1.644851,1,1,1,1033,0,-1547
148,1.656035,0,1,0,1029,2,-1546
149,1.667223,1,0,0,1035,5,-1542
150,1.678417,0,1,1,1038,0,-1548
151,1.689599,0,1,1,1031,-1,-1552
152,1.700782,0,1,1,1034,1,-1544
153,1.711964,0,1,0,1035,1,-1544
154,1.723147,0,0,0,1033,1,-1548
155,1.734333,0,-1,0,1030,0,-1547
156,1.745516,0,0,1,1029,1,-1542
157,1.756701,0,-1,0,1038,1,-1540
158,1.767888,0,-1,1,1033,0,-1539
159,1.779073,0,0,1,1033,1,-1546
160,1.790247,0,-1,0,1037,1,-1548
161,1.801431,0,0,1,1034,-1,-1543
162,1.812617,0,0,1,1032,0,-1545
163,1.823798,1,0,2,1033,-2,-1543
164,1.834982,1,0,2,1038,-1,-1545
165,1.846169,0,0,1,1035,0,-1547
166,1.857352,1,0,1,1032,2,-1544
167,1.868535,1,1,1,1032,4,-1546
168,1.879717,0,1,1,1033,0,-1546
169,1.890923,0,1,1,1030,1,-1552
170,1.902111,0,0,1,1034,1,-1547
171,1.913297,-1,0,2,1036,0,-1547
172,1.924489,0,-1,0,1035,2,-1542
173,1.935678,0,0,0,1032,0,-1546
174,1.946868,0,-1,0,1034,0,-1543
175,1.958062,0,1,1,1033,0,-1541
176,1.969245,0,1,1,1037,0,-1538
177,1.98045,0,0,2,1035,0,-1546
178,1.991644,0,0,0,1033,1,-1549
179,2.00283,1,0,0,1028,0,-1549
180,2.01402,0,0,-1,1032,0,-1545
181,2.025204,1,1,1,1032,1,-1552
182,2.036396,1,2,1,1031,0,-1548
183,2.047582,1,2,2,1033,-2,-1547
184,2.058771,1,1,1,1036,-3,-1549
185,2.069956,1,0,1,1034,0,-1550
186,2.08114,1,1,2,1033,1,-1543
187,2.092328,0,1,1,1033,-2,-1547
188,2.103518,0,1,2,1034,5,-1548
189,2.114712,0,0,2,1037,0,-1548
190,2.125877,0,-1,0,1031,1,-1546
191,2.13707,1,2,1,1034,0,-1542
192,2.148262,1,0,1,1036,1,-1550
193,2.159458,0,0,1,1032,3,-1542
194,2.170612,0,-1,1,1038,2,-1550
195,2.181803,0,1,0,1029,2,-1546
196,2.192986,0,0,0,1036,0,-1539
197,2.204169,0,0,1,1038,1,-1545
198,2.215352,1,1,0,1037,0,-1547
199,2.226537,1,0,0,1039,0,-1542
200,2.237729,0,-1,1,1034,2,-1551
201,2.248918,0,-1,0,1035,2,-1546
202,2.260102,0,0,1,1032,1,-1546
203,2.271284,0,0,1,1037,-1,-1546
204,2.28243,0,0,0,1032,-1,-1543
205,2.293614,0,-1,1,1034,2,-1542
206,2.304797,0,-1,2,1034,1,-1548
207,2.315982,1,0,1,1033,0,-1541
208,2.327166,0,0,1,1032,0,-1544
209,2.338362,0,-1,0,1032,3,-1539
210,2.349546,0,0,1,1034,0,-1548
211,2.360731,0,-1,0,1032,2,-1547
212,2.371913,0,0,0,1035,2,-1545
213,2.383097,1,-1,1,1034,0,-1557
214,2.394244,0,-1,0,1032,7,-1538
215,2.405436,0,-2,0,1035,0,-1550
216,2.416624,0,1,1,1033,1,-1546
217,2.427811,0,0,0,1033,-3,-1549
218,2.439,0,1,0,1034,0,-1546
219,2.450208,0,0,0,1034,1,-1547
220,2.461393,0,-1,1,1032,2,-1547
221,2.472573,0,0,2,1034,0,-1548
222,2.483758,0,0,2,1034,2,-1540
223,2.494944,0,0,2,1034,1,-1548
224,2.506134,0,0,1,1034,0,-1547
225,2.51732,1,0,1,1030,0,-1545
226,2.528505,0,-1,1,1035,-2,-1541
227,2.539691,0,0,1,1030,4,-1548
228,2.550878,0,-2,1,1039,1,-1543
229,2.562066,1,-1,1,1038,0,-1546
230,2.573255,-1,0,2,1033,0,-1545
231,2.584445,0,0,0,1034,2,-1545
232,2.595648,0,1,1,1036,-1,-1544
233,2.606838,1,0,1,1033,1,-1548
234,2.618027,0,0,1,1031,-1,-1537
235,2.629211,1,0,1,1036,0,-1545
236,2.640395,1,0,1,1033,0,-1548
237,2.65158,0,0,1,1034,1,-1542
238,2.662766,0,-1,1,1035,0,-1550
239,2.673954,0,1,2,1035,0,-1544
240,2.685139,1,1,2,1034,0,-1545
241,2.696323,0,-1,1,1033,2,-1551
242,2.707506,0,0,1,1031,4,-1549
243,2.718693,0,0,1,1035,1,-1542
244,2.729878,0,1,1,1037,1,-1538
245,2.741062,0,1,2,1034,-2,-1550
246,2.752247,0,1,1,1033,-1,-1547
247,2.763432,0,1,1,1033,3,-1540
248,2.774614,1,1,1,1033,-1,-1542
249,2.785807,0,1,1,1031,2,-1549
250,2.796992,1,1,2,1035,0,-1547
251,2.80818,0,1,1,1033,0,-1548
252,2.819368,0,-2,2,1033,5,-1550
253,2.830563,0,-1,1,1032,3,-1546
254,2.841754,0,-1,1,1034,0,-1541
255,2.852939,1,-1,0,1033,2,-1546
256,2.864126,1,-1,0,1031,0,-1548
257,2.875309,0,0,0,1031,1,-1550
258,2.886507,1,0,1,1035,1,-1550
259,2.897688,0,1,1,1033,0,-1546
260,2.908875,0,0,0,1035,5,-1552
261,2.920073,1,0,1,1034,3,-1546
262,2.931259,0,-1,1,1036,0,-1546
263,2.942432,0,-1,0,1038,4,-1557
264,2.953643,1,1,1,1034,-1,-1547
265,2.96483,0,0,2,1034,2,-1545
266,2.976015,0,0,1,1035,1,-1549
267,2.9872,0,-1,1,1034,0,-1544
268,2.998386,0,-1,0,1036,5,-1555
269,3.009575,1,-1,1,1033,3,-1541
270,3.020764,0,0,1,1034,1,-1540
271,3.031948,1,0,0,1036,1,-1548
272,3.043134,0,-1,1,1034,2,-1544
273,3.054324,1,-1,1,1031,0,-1541
274,3.065508,1,0,0,1030,2,-1543
275,3.076694,0,0,0,1036,-3,-1542
276,3.087882,1,1,0,1034,0,-1544
277,3.099067,1,1,0,1032,0,-1542
278,3.110247,0,0,1,1035,0,-1545
279,3.121433,0,0,1,1030,-2,-1540
280,3.132624,0,0,0,1036,1,-1544
281,3.143809,1,0,1,1034,3,-1540
282,3.154996,1,2,0,1034,1,-1549
283,3.166189,1,1,0,1034,4,-1544
284,3.177375,0,1,1,1035,4,-1544
285,3.188567,0,0,1,1031,2,-1548
286,3.199761,0,0,2,1038,3,-1544
287,3.210943,1,-1,2,1034,3,-1542
288,3.222132,-1,-1,1,1032,1,-1545
289,3.233317,0,-1,1,1031,0,-1548
290,3.244501,0,-1,1,1034,2,-1549
291,3.255696,0,0,2,1032,0,-1548
292,3.266881,0,-1,1,1035,-1,-1548
293,3.278068,0,0,1,1036,-1,-1545
294,3.28926,0,0,1,1036,1,-1544
295,3.300444,1,1,0,1034,6,-1547
296,3.31164,0,0,0,1031,2,-1547
297,3.322825,0,1,1,1031,1,-1550
298,3.334014,1,0,1,1035,3,-1545
299,3.345198,0,1,1,1041,0,-1547
300,3.35638,0,0,1,1038,4,-1546
301,3.367566,0,1,1,1038,1,-1542
302,3.378751,0,1,1,1035,0,-1549
303,3.38994,0,1,0,1035,-1,-1539
304,3.401127,1,0,0,1031,2,-1539
305,3.41231,0,1,1,1034,-1,-1543
306,3.423496,0,2,2,1031,0,-1546
307,3.434687,0,1,1,1037,-3,-1543
308,3.445875,0,0,1,1032,0,-1546
309,3.457063,0,0,2,1036,0,-1537
310,3.468256,0,-1,1,1036,0,-1546
311,3.479439,0,-2,1,1036,3,-1543
312,3.490617,0,-1,1,1032,3,-1542
313,3.501822,0,0,0,1031,2,-1546
314,3.513007,1,0,1,1032,0,-1550
315,3.5242,1,0,1,1030,2,-1551
316,3.535383,0,1,0,1033,2,-1543
317,3.546573,1,1,0,1036,-1,-1551
318,3.557765,1,1,1,1033,0,-1554
319,3.568948,1,1,1,1037,0,-1553
320,3.580134,1,2,1,1034,0,-1548
321,3.591318,1,1,1,1035,-3,-1541
322,3.602504,0,1,1,1034,0,-1543
323,3.613691,0,1,1,1038,2,-1543
324,3.624875,0,1,1,1035,2,-1543
325,3.636069,1,0,1,1034,4,-1542
326,3.647252,0,0,1,1033,3,-1544
327,3.65843,0,1,1,1035,2,-1543
328,3.669626,1,1,1,1035,0,-1552
329,3.68081,0,0,2,1036,0,-1545
330,3.692,0,1,2,1032,-4,-1542
331,3.703186,0,0,1,1034,2,-1548
332,3.714376,0,-1,1,1034,-2,-1552
333,3.725561,0,-1,1,1036,3,-1544
334,3.736749,0,-1,0,1035,1,-1547
335,3.747939,0,0,1,1033,-1,-1553
336,3.759124,0,-1,1,1035,-4,-1547
337,3.770313,0,0,1,1034,0,-1543
338,3.781496,0,0,0,1035,-1,-1543
339,3.792682,0,-2,0,1036,2,-1546
340,3.803867,1,-1,0,1037,2,-1552
341,3.815054,1,0,0,1035,1,-1544
342,3.826248,1,-1,0,1033,0,-1546
343,3.837433,1,1,1,1033,0,-1540
344,3.848623,0,2,0,1035,2,-1545
345,3.859812,1,2,1,1034,0,-1548
346,3.870999,1,1,0,1036,1,-1542
347,3.882189,1,1,2,1034,-1,-1542
348,3.893373,1,2,2,1037,3,-1545
349,3.904559,1,2,1,1030,3,-1546
350,3.915745,1,1,1,1037,-1,-1548
351,3.92693,0,1,1,1031,1,-1552
352,3.938122,0,1,1,1035,3,-1547
353,3.94931,0,0,2,1031,-1,-1541
354,3.960525,0,-1,1,1032,2,-1547
355,3.972264,0,0,1,1036,0,-1549
356,3.983942,0,0,0,1036,0,-1543
357,3.995593,0,0,1,1035,0,-1542
358,4.00729,0,0,1,1033,1,-1548
359,4.018942,0,0,1,1031,-1,-1547
360,4.030651,0,0,0,1035,2,-1543
361,4.042322,0,0,0,1035,3,-1546
362,4.053994,1,0,0,1034,2,-1544
363,4.065663,0,-1,1,1032,0,-1550
364,4.07736,1,0,1,1036,1,-1542
365,4.08896,1,0,1,1034,3,-1543
366,4.100506,0,1,0,1033,0,-1544
367,4.112057,0,0,0,1032,2,-1547
368,4.123642,1,-1,1,1034,0,-1548
369,4.135197,1,-1,1,1039,1,-1544
370,4.146759,0,0,1,1035,0,-1550
371,4.158349,0,0,1,1033,-2,-1549
372,4.169928,1,-1,0,1035,0,-1547
373,4.181548,1,-1,1,1035,0,-1545
374,4.193218,0,0,1,1035,0,-1547
375,4.204876,-1,0,0,1032,2,-1544
376,4.21652,0,0,0,1033,-1,-1542
377,4.228174,0,0,0,1032,1,-1544
378,4.239873,0,0,1,1036,0,-1542
379,4.251522,0,0,1,1034,4,-1548
380,4.263184,1,0,0,1037,2,-1541
381,4.274876,0,0,1,1036,0,-1544
382,4.286526,0,1,1,1033,3,-1540
383,4.298106,0,-1,1,1033,1,-1549
384,4.30966,0,0,1,1033,2,-1544
385,4.321214,0,0,1,1032,4,-1543
386,4.332783,0,0,1,1035,5,-1544
387,4.344349,1,0,1,1034,-1,-1548
388,4.355948,1,-1,1,1030,-3,-1544
389,4.367494,1,0,1,1033,1,-1544
390,4.379078,1,0,0,1031,-1,-1542
391,4.390705,0,0,1,1030,-3,-1550
392,4.402401,0,0,1,1030,0,-1545
393,4.414072,0,0,1,1031,2,-1552
394,4.425745,0,0,0,1033,0,-1544
395,4.437403,0,0,0,1030,1,-1544
396,4.449059,0,-1,1,1032,0,-1544
397,4.460732,0,0,0,1033,1,-1545
398,4.4724,0,0,1,1034,-3,-1545
399,4.484063,0,0,0,1037,0,-1550
400,4.495757,0,0,0,1033,4,-1547
401,4.507338,0,-1,1,1031,5,-1542
402,4.518929,1,-1,1,1036,1,-1546
403,4.530456,1,0,0,1032,1,-1545
404,4.542006,0,0,2,1032,3,-1545
405,4.553553,0,-1,2,1034,0,-1548
406,4.565096,0,-1,1,1034,-2,-1547
407,4.576668,0,0,2,1033,0,-1550
408,4.588237,0,-1,1,1032,0,-1541
409,4.599881,0,0,0,1035,2,-1549
410,4.611541,0,0,0,1038,2,-1543
411,4.623192,0,0,0,1035,1,-1542
412,4.634846,0,0,1,1033,3,-1546
413,4.646516,0,0,0,1034,1,-1543
414,4.658161,1,0,1,1033,2,-1549
415,4.669808,1,-1,1,1031,1,-1542
416,4.681478,0,0,1,1034,0,-1544
417,4.693148,0,0,1,1034,3,-1551
418,4.704801,1,0,0,1032,1,-1544
419,4.716363,1,0,1,1040,-2,-1544
420,4.72796,1,0,1,1033,3,-1545
421,4.739519,1,1,2,1031,1,-1541
422,4.751086,0,0,1,1033,5,-1546
423,4.762642,0,1,1,1034,-2,-1548
424,4.774233,0,0,1,1029,1,-1547
425,4.785775,0,0,1,1033,0,-1543
426,4.797334,1,0,0,1037,-1,-1546
427,4.808952,0,0,1,1038,-2,-1545
428,4.820607,1,0,1,1034,0,-1541
429,4.832267,0,0,1,1034,0,-1545
430,4.843925,1,0,1,1032,0,-1545
431,4.855574,0,0,1,1031,1,-1547
432,4.867275,1,0,1,1036,-1,-1549
433,4.878937,0,0,1,1035,3,-1548
434,4.890589,0,0,1,1040,-2,-1549
435,4.902241,0,0,1,1035,3,-1541
436,4.913793,1,1,1,1035,-1,-1553
437,4.925337,0,0,0,1037,0,-1547
438,4.936899,0,0,1,1031,0,-1548
439,4.948463,0,1,1,1035,1,-1547
440,4.960012,1,0,1,1028,1,-1543
441,4.971573,0,0,1,1034,0,-1544
442,4.983129,0,-1,1,1034,0,-1547
443,4.994771,0,0,1,1035,2,-1545
444,5.006352,0,1,1,1033,0,-1541
445,5.018001,0,0,1,1036,-2,-1550
446,5.029654,0,0,1,1034,1,-1543
447,5.041307,0,0,1,1031,0,-1546
448,5.052981,0,0,1,1033,-1,-1542
449,5.064634,1,1,1,1032,1,-1545
450,5.076283,0,0,1,1033,0,-1547
451,5.08793,0,0,1,1033,2,-1542
452,5.099652,0,1,1,1037,0,-1552
453,5.111319,0,0,0,1035,3,-1539
454,5.122988,0,-1,1,1030,2,-1550
455,5.134613,0,0,1,1033,2,-1542
456,5.146216,1,0,0,1035,0,-1545
457,5.157771,0,0,1,1037,1,-1542
458,5.169321,0,0,1,1035,0,-1549
459,5.180872,0,-1,1,1035,0,-1546
460,5.192437,0,0,1,1036,2,-1553
461,5.20399,1,0,1,1039,0,-1542
462,5.215581,1,0,1,1028,0,-1549
463,5.227247,1,0,1,1036,1,-1546
464,5.238918,-1,0,1,1036,0,-1549
465,5.250594,0,0,1,1033,3,-1540
466,5.262243,0,0,1,1034,2,-1543
467,5.273903,0,0,0,1032,0,-1547
468,5.285555,0,0,1,1034,2,-1554
469,5.297221,0,0,1,1033,2,-1543
470,5.308876,1,0,1,1032,4,-1541
471,5.320538,0,-1,1,1032,0,-1541
472,5.332196,1,0,0,1037,2,-1546
473,5.343756,0,0,0,1035,0,-1549
474,5.355306,0,0,1,1032,0,-1548
475,5.366867,0,0,1,1035,3,-1546
476,5.378456,0,0,2,1033,4,-1548
477,5.390014,1,0,2,1038,-1,-1550
478,5.401571,0,0,1,1032,3,-1544
479,5.413112,0,0,1,1036,0,-1544
480,5.424677,0,0,0,1035,0,-1547
481,5.436297,0,0,1,1034,1,-1541
482,5.447952,0,0,1,1038,0,-1543
483,5.459633,1,0,1,1035,1,-1546
484,5.47132,0,0,1,1038,-1,-1548
485,5.483008,1,0,1,1035,3,-1551
486,5.494671,0,0,1,1032,0,-1548
487,5.506348,0,1,1,1036,1,-1542
488,5.517994,0,0,0,1033,2,-1547
489,5.529659,0,0,1,1035,0,-1541
490,5.541332,0,0,1,1034,0,-1549
491,5.552895,0,-1,2,1036,1,-1545
492,5.564456,0,0,2,1034,0,-1547
493,5.576002,0,0,1,1031,3,-1547
494,5.58755,0,1,1,1035,3,-1548
495,5.599102,0,0,1,1031,4,-1549
496,5.610699,0,0,0,1034,0,-1548
497,5.622268,0,0,1,1035,2,-1548
498,5.63387,0,0,1,1035,1,-1541
499,5.645502,0,0,0,1034,2,-1542
500,5.657164,1,-1,1,1034,0,-1546
501,5.668809,0,0,1,1038,-4,-1542
502,5.680489,0,0,0,1033,0,-1545
503,5.692142,1,0,2,1034,0,-1546
504,5.703784,1,0,1,1033,0,-1548
505,5.715432,0,0,1,1035,3,-1547
506,5.727108,0,0,1,1035,0,-1537
507,5.738773,0,0,1,1035,0,-1541
508,5.750442,0,-1,1,1038,-1,-1545
509,5.761972,0,0,1,1037,3,-1544
510,5.773515,0,0,1,1034,2,-1547
511,5.785071,0,0,1,1035,0,-1547
512,5.796624,0,0,1,1030,-4,-1546
513,5.808194,0,0,1,1036,1,-1543
514,5.819757,0,0,1,1038,5,-1550
515,5.831324,0,-1,1,1033,0,-1543
516,5.84296,0,0,0,1035,0,-1545
517,5.854591,0,0,0,1037,1,-1547
518,5.866246,0,0,1,1036,-7,-1543
519,5.87792,1,0,0,1030,-2,-1554
520,5.889599,0,0,1,1036,3,-1547
521,5.901265,1,0,0,1035,1,-1545
522,5.912914,0,0,1,1034,0,-1549
523,5.924588,0,0,0,1039,0,-1543
524,5.936237,0,0,1,1035,3,-1549
525,5.947897,0,0,1,1030,3,-1545
526,5.959561,0,1,1,1036,-2,-1546
527,5.971122,0,0,1,1033,1,-1542
528,5.982698,0,0,1,1030,0,-1545
529,5.994253,0,-1,1,1033,-1,-1540
530,6.005853,0,0,1,1033,0,-1551
531,6.017437,0,0,1,1034,0,-1544
532,6.028986,0,0,1,1036,0,-1547
533,6.040535,0,0,1,1032,0,-1545
534,6.052099,0,0,1,1032,-2,-1543
535,6.063734,0,0,1,1032,1,-1544
536,6.07539,-1,0,2,1033,2,-1545
537,6.087041,0,0,1,1037,2,-1547
538,6.098714,-1,0,1,1030,0,-1544
539,6.110425,0,0,0,1035,2,-1552
540,6.12227,0,-1,1,1034,0,-1546
541,6.134003,0,0,1,1035,1,-1545
542,6.145667,0,1,1,1032,-1,-1544
543,6.157363,1,1,0,1033,4,-1549
544,6.169027,0,1,0,1035,-1,-1545
545,6.180689,0,0,1,1035,-3,-1548
546,6.192352,0,0,1,1033,-2,-1540
547,6.204047,0,0,1,1032,0,-1550
548,6.215722,1,0,1,1032,2,-1540
549,6.227373,0,1,1,1038,2,-1547
550,6.239031,1,0,0,1031,-1,-1549
551,6.250726,0,0,1,1035,0,-1543
552,6.262425,1,0,1,1034,0,-1548
553,6.274116,1,-1,1,1031,1,-1547
554,6.285743,0,0,1,1035,2,-1546
555,6.297398,0,0,1,1035,2,-1548
556,6.309055,0,0,1,1034,5,-1544
557,6.320701,0,0,1,1035,0,-1545
558,6.332361,0,0,0,1036,0,-1551
559,6.344012,1,-1,1,1031,0,-1547
560,6.355653,0,0,1,1038,0,-1545
561,6.367327,0,0,1,1036,-1,-1542
562,6.379017,1,-1,1,1034,4,-1548
563,6.390671,0,0,1,1033,1,-1551
564,6.402325,-1,-1,1,1032,0,-1548
565,6.413999,1,0,1,1033,4,-1542
566,6.425642,0,0,1,1035,-2,-1542
567,6.437293,0,0,0,1035,3,-1543
568,6.448962,0,0,0,1035,1,-1543
569,6.460618,0,0,1,1033,0,-1548
570,6.472283,0,0,0,1038,0,-1548
571,6.483974,0,1,1,1031,0,-1545
572,6.495557,0,0,1,1034,0,-1546
573,6.507116,0,0,1,1035,3,-1548
574,6.518695,-1,0,0,1034,1,-1544
575,6.530321,0,0,0,1033,1,-1552
576,6.541895,0,-1,0,1034,2,-1543
577,6.553448,0,-1,1,1030,5,-1546
578,6.565002,0,0,1,1031,1,-1539
579,6.576594,0,1,1,1038,-4,-1548
580,6.58825,0,0,0,1031,2,-1547
581,6.599905,0,0,1,1035,-2,-1544
582,6.611555,1,-1,1,1034,-2,-1546
583,6.62325,1,0,1,1033,-1,-1538
584,6.634912,0,-1,1,1035,-2,-1549
585,6.64657,1,0,1,1032,1,-1539
586,6.65825,0,0,1,1035,0,-1546
587,6.669903,0,1,1,1034,-1,-1549
588,6.681569,0,1,2,1037,4,-1546
589,6.693237,0,0,1,1036,0,-1541
590,6.704814,1,-1,0,1030,1,-1545
591,6.716363,0,0,1,1031,0,-1544
592,6.727927,0,0,1,1035,-2,-1543
593,6.739489,0,0,0,1034,2,-1548
594,6.751067,0,0,1,1033,-1,-1545
595,6.762624,0,1,0,1034,1,-1542
596,6.774208,0,0,1,1038,2,-1538
597,6.785741,0,0,1,1030,0,-1550
598,6.79736,0,0,1,1031,-2,-1541
599,6.809017,0,-1,1,1033,2,-1545
600,6.820667,1,-1,1,1038,2,-1546
601,6.832338,1,0,1,1034,1,-1542
602,6.84399,0,1,0,1032,1,-1546
603,6.855644,0,0,0,1033,0,-1550
604,6.867293,0,0,1,1037,-2,-1547
605,6.878948,0,-1,1,1034,2,-1550
606,6.89065,0,1,1,1032,1,-1548
607,6.902331,0,0,1,1032,3,-1546
608,6.914053,1,0,1,1033,5,-1548
609,6.92574,0,0,0,1031,0,-1550
610,6.937389,0,1,1,1034,5,-1544
611,6.94909,1,0,0,1033,2,-1544
612,6.960735,0,0,1,1031,3,-1549
613,6.972387,1,0,1,1031,2,-1550
614,6.984038,0,1,1,1033,3,-1542
615,6.995758,0,0,2,1035,0,-1542
616,7.007411,1,0,1,1034,0,-1543
617,7.019092,0,0,0,1035,-3,-1543
618,7.03077,-1,0,1,1035,2,-1543
619,7.042499,1,0,1,1035,0,-1543
620,7.05417,0,0,1,1034,0,-1544
621,7.065825,1,1,1,1037,3,-1541
622,7.077485,1,0,1,1033,2,-1547
623,7.089138,0,0,1,1031,0,-1547
624,7.100778,0,0,0,1036,3,-1542
625,7.112381,0,0,1,1031,1,-1546
626,7.123955,0,0,1,1038,0,-1546
627,7.135542,0,0,1,1034,2,-1542
628,7.147102,0,0,1,1034,-2,-1544
629,7.158688,0,0,1,1037,3,-1542
630,7.170205,0,0,1,1028,1,-1547
631,7.181729,0,0,0,1033,2,-1548
632,7.193268,1,0,2,1035,0,-1548
633,7.204828,0,0,2,1034,2,-1541
634,7.216472,0,0,1,1030,0,-1541
635,7.228132,0,0,1,1032,-2,-1547
636,7.239789,0,-1,1,1036,1,-1544
637,7.25146,1,0,1,1034,0,-1546
638,7.263193,0,0,1,1033,1,-1538
639,7.275008,0,0,1,1032,3,-1547
640,7.286679,0,0,0,1030,5,-1551
641,7.298386,0,0,1,1036,0,-1539
642,7.310062,0,0,1,1037,0,-1542
643,7.321809,-1,0,0,1034,2,-1542
644,7.333365,1,0,2,1035,0,-1551
645,7.344919,0,0,1,1036,0,-1539
646,7.356471,0,0,2,1034,0,-1544
647,7.368037,0,-1,1,1034,-1,-1551
648,7.379595,0,0,0,1034,1,-1549
649,7.391191,1,0,1,1033,-2,-1552
650,7.402748,0,0,1,1034,2,-1538
651,7.414332,0,0,1,1029,0,-1550
652,7.425982,0,0,2,1032,4,-1541
653,7.437633,0,0,1,1030,1,-1545
654,7.449283,0,0,1,1031,-1,-1545
655,7.460952,0,-1,1,1039,0,-1545
656,7.472613,0,-1,0,1035,0,-1543
657,7.484264,0,0,1,1034,0,-1548
658,7.495929,1,0,1,1031,2,-1545
659,7.507601,1,0,1,1036,-1,-1547
660,7.519291,0,0,1,1033,0,-1548
661,7.530955,-1,0,0,1034,3,-1545
662,7.542526,1,1,1,1033,2,-1539
663,7.554096,0,0,2,1032,-2,-1546
664,7.565646,1,1,1,1032,1,-1541
665,7.577199,0,0,1,1033,2,-1544
666,7.588812,0,-1,1,1034,1,-1542
667,7.60037,0,0,1,1033,2,-1547
668,7.611938,0,0,1,1034,0,-1551
669,7.623495,0,0,1,1031,1,-1547
670,7.63514,0,0,0,1034,3,-1547
671,7.646761,0,0,1,1035,-4,-1541
672,7.658422,0,-1,1,1033,0,-1544
673,7.670129,1,0,1,1030,3,-1549
674,7.681778,1,0,1,1032,-3,-1551
675,7.693464,0,0,0,1031,2,-1542
676,7.705132,0,-1,1,1033,1,-1541
677,7.716776,0,0,2,1036,-1,-1547
678,7.728439,0,0,2,1031,-1,-1546
679,7.740129,0,0,1,1032,-3,-1546
680,7.751703,1,0,0,1034,0,-1545
681,7.763252,1,0,0,1033,0,-1542
682,7.774824,1,0,1,1033,3,-1546
683,7.786416,0,0,0,1032,0,-1542
684,7.797971,0,-1,1,1032,0,-1550
685,7.809517,0,-1,1,1034,3,-1552
686,7.821065,1,0,1,1033,2,-1543
687,7.832654,1,-1,0,1031,5,-1544
688,7.844282,1,-1,0,1035,0,-1544
689,7.855956,0,0,1,1032,0,-1550
690,7.867631,1,0,1,1035,-3,-1541
691,7.879281,0,0,0,1034,1,-1550
692,7.890956,0,-1,1,1030,3,-1546
693,7.902636,0,-1,0,1036,-1,-1548
694,7.914295,0,0,1,1035,1,-1546
695,7.925988,0,0,1,1034,0,-1541
696,7.937643,0,-1,1,1036,-1,-1543
697,7.949324,0,0,1,1034,3,-1543
698,7.960925,2,1,1,1033,1,-1546
699,7.972477,1,0,1,1031,6,-1548
700,7.984038,0,0,1,1033,0,-1547
701,7.995597,1,0,1,1033,0,-1549
702,8.00718,0,0,1,1030,4,-1549
703,8.018786,0,-1,1,1036,1,-1547
704,8.030349,0,0,1,1032,3,-1544
705,8.041924,0,1,1,1033,-1,-1540
706,8.053566,0,-1,1,1034,0,-1541
707,8.06527,0,0,0,1037,0,-1544
708,8.076987,1,0,1,1035,0,-1547
709,8.088652,1,0,0,1031,0,-1543
710,8.100331,0,0,1,1033,-2,-1547
711,8.111988,0,0,1,1033,0,-1546
712,8.123651,0,0,1,1037,0,-1549
713,8.135297,0,0,0,1034,0,-1543
714,8.147003,-1,-1,1,1033,2,-1545
715,8.158686,0,0,0,1036,-1,-1542
716,8.170261,0,0,1,1036,2,-1553
717,8.181811,0,1,1,1033,0,-1549
718,8.193355,0,0,1,1034,2,-1546
719,8.204901,0,0,1,1034,-3,-1545
720,8.216451,0,0,1,1030,0,-1548
721,8.227997,0,0,1,1033,-1,-1546
722,8.239541,0,0,1,1035,0,-1554
723,8.251105,1,0,1,1036,2,-1536
724,8.262756,1,0,1,1032,3,-1545
725,8.274437,0,0,2,1030,2,-1543
726,8.286121,0,0,1,1033,3,-1546
727,8.297741,1,0,0,1036,1,-1541
728,8.309385,1,0,1,1035,1,-1553
729,8.321035,0,-1,1,1032,2,-1540
730,8.332712,1,0,1,1029,-2,-1549
731,8.344361,0,0,1,1032,-1,-1556
732,8.356022,1,-1,1,1034,0,-1549
733,8.367698,0,0,0,1035,2,-1546
734,8.379302,1,0,1,1032,0,-1555
735,8.39087,0,0,1,1029,1,-1542
736,8.402441,1,0,1,1037,-1,-1542
737,8.413966,0,0,0,1034,-1,-1547
738,8.425534,0,0,2,1031,0,-1547
739,8.437089,-1,0,1,1033,2,-1547
740,8.448657,0,1,1,1032,-4,-1543
741,8.460227,0,-1,1,1036,-1,-1539
742,8.471875,0,0,1,1031,1,-1545
743,8.483546,0,1,1,1033,1,-1543
744,8.495214,0,0,1,1034,1,-1546
745,8.506891,0,0,1,1037,-1,-1552
746,8.51857,0,0,1,1035,-1,-1545
747,8.530243,0,0,1,1032,6,-1549
748,8.541894,1,0,0,1034,0,-1551
749,8.553567,0,0,0,1035,1,-1549
750,8.56525,0,0,1,1031,2,-1544
751,8.576908,0,-1,0,1035,0,-1545
752,8.588469,0,0,1,1032,3,-1551
753,8.600019,0,0,2,1032,-2,-1545
754,8.611569,0,0,1,1033,2,-1543
755,8.623158,0,0,2,1036,1,-1549
756,8.63469,0,-1,1,1032,0,-1551
757,8.646267,0,0,1,1031,1,-1551
758,8.657829,0,0,1,1031,-1,-1546
759,8.669382,0,1,1,1034,0,-1544
760,8.681001,0,0,0,1035,3,-1546
761,8.692654,0,0,0,1036,0,-1542
762,8.704304,0,0,0,1035,1,-1550
763,8.715968,0,0,1,1030,0,-1546
764,8.727641,1,-1,1,1037,0,-1547
765,8.739291,0,0,1,1035,2,-1555
766,8.750971,0,0,1,1035,-1,-1546
767,8.762632,-1,0,0,1033,0,-1547
768,8.774305,-1,-1,1,1033,0,-1542
769,8.785968,0,-1,1,1035,0,-1542
770,8.797567,1,0,1,1033,0,-1545
771,8.80916,0,0,1,1035,0,-1540
772,8.820722,0,0,1,1032,0,-1546
773,8.832305,0,0,1,1031,-2,-1550
774,8.843876,0,0,1,1035,3,-1555
775,8.855426,0,-1,0,1033,1,-1546
776,8.86698,1,0,1,1036,0,-1548
777,8.878572,1,0,1,1032,4,-1543
778,8.89025,0,0,1,1037,0,-1547
779,8.901905,1,0,1,1035,3,-1544
780,8.913581,0,0,1,1031,0,-1546
781,8.925238,0,0,2,1036,2,-1544
782,8.936896,1,1,2,1038,1,-1552
783,8.948566,1,-1,1,1035,-1,-1543
784,8.960221,0,0,0,1035,1,-1549
785,8.971864,1,0,1,1037,3,-1545
786,8.983525,-1,0,1,1035,3,-1548
787,8.995203,0,-1,2,1035,2,-1546
788,9.006766,0,-1,1,1035,1,-1544
789,9.01834,0,0,1,1032,-1,-1548
790,9.029922,1,0,1,1036,0,-1549
791,9.041475,0,0,0,1032,0,-1544
792,9.053039,0,0,1,1033,2,-1546
793,9.064585,0,1,1,1036,0,-1540
794,9.076158,1,0,1,1033,3,-1546
795,9.087725,0,-1,1,1030,0,-1548
796,9.099366,0,0,0,1034,0,-1547
797,9.111029,0,0,1,1034,0,-1546
798,9.122705,0,0,0,1035,1,-1553
799,9.13438,0,0,1,1036,2,-1547
800,9.146037,0,0,1,1035,-1,-1553
801,9.157731,0,-1,1,1032,-3,-1543
802,9.169403,0,-1,2,1034,6,-1544
803,9.181055,0,0,1,1035,-1,-1542
804,9.192736,0,0,2,1032,0,-1542
805,9.204396,0,0,1,1035,1,-1545
806,9.215973,0,0,1,1031,6,-1545
807,9.227528,1,0,1,1032,0,-1547
808,9.239089,0,-1,0,1032,2,-1550
809,9.250683,0,0,1,1031,-1,-1547
810,9.262298,0,0,1,1033,-2,-1547
811,9.273865,0,0,0,1033,0,-1549
812,9.285418,0,0,1,1030,4,-1551
813,9.296973,0,0,1,1030,0,-1550
814,9.308601,0,0,1,1033,0,-1547
815,9.32025,0,0,1,1034,3,-1547
816,9.331909,1,0,1,1030,5,-1543
817,9.343558,0,-1,1,1037,-2,-1545
818,9.355235,0,0,1,1035,0,-1548
819,9.366903,0,-1,2,1033,1,-1542
820,9.378569,-1,0,2,1034,0,-1549
821,9.390249,-1,-1,1,1036,2,-1540
822,9.40194,1,0,1,1032,0,-1549
823,9.413594,0,0,1,1030,3,-1541
824,9.425167,1,0,1,1035,1,-1548
825,9.436718,1,0,1,1032,2,-1552
826,9.448288,0,0,2,1036,0,-1543
827,9.459834,1,-1,1,1037,4,-1538
828,9.471378,0,0,1,1030,-1,-1549
829,9.482938,0,0,0,1033,3,-1546
830,9.494486,1,-1,0,1031,0,-1546
831,9.506054,0,-1,1,1033,-3,-1547
832,9.517764,0,-1,2,1033,-1,-1545
833,9.529443,0,1,1,1033,-1,-1545
834,9.541121,0,0,0,1036,2,-1543
835,9.552775,0,0,1,1036,0,-1546
836,9.564451,0,-1,0,1030,2,-1546
837,9.576101,0,0,1,1032,0,-1541
838,9.587775,0,1,0,1036,0,-1544
839,9.59942,0,0,1,1035,4,-1543
840,9.611101,1,1,0,1037,0,-1547
841,9.622765,0,0,0,1030,0,-1546
842,9.634336,0,-1,1,1034,0,-1547
843,9.645916,0,1,1,1035,2,-1542
844,9.657466,0,0,0,1036,0,-1543
845,9.669019,0,1,1,1036,1,-1547
846,9.680571,0,0,1,1034,2,-1548
847,9.692124,0,-1,0,1032,1,-1546
848,9.703686,0,-1,1,1039,4,-1545
849,9.715289,0,0,1,1033,0,-1547
850,9.726975,1,-1,1,1033,0,-1547
851,9.738642,0,0,1,1030,-1,-1543
852,9.750302,0,0,1,1031,5,-1548
853,9.761995,0,0,1,1034,1,-1544
854,9.773644,1,0,0,1034,2,-1546
855,9.785282,0,0,1,1033,-2,-1545
856,9.79696,0,0,1,1031,0,-1543
857,9.808612,0,0,0,1035,2,-1544
858,9.820267,0,0,2,1031,-1,-1547
859,9.831945,0,1,0,1032,1,-1552
860,9.843502,0,0,0,1036,1,-1546
861,9.855077,1,0,1,1032,1,-1542
862,9.866659,0,0,1,1033,0,-1544
863,9.878208,0,0,1,1038,-5,-1544
864,9.889791,0,0,0,1030,0,-1545
865,9.901336,1,0,1,1034,0,-1544
866,9.912913,0,-1,0,1038,0,-1552
867,9.92447,1,0,1,1033,1,-1545
868,9.936092,0,1,2,1034,1,-1551
869,9.947748,0,0,0,1032,0,-1544
870,9.95944,1,-1,1,1034,-2,-1546
871,9.971095,1,0,1,1035,0,-1548
872,9.982763,0,0,1,1033,0,-1543
873,9.994436,1,0,0,1033,4,-1543
874,10.006113,1,0,1,1036,5,-1546
875,10.017735,1,0,0,1031,1,-1552
876,10.029399,1,0,1,1038,-2,-1542
877,10.041055,0,1,1,1033,0,-1544
878,10.052655,1,0,1,1034,1,-1543
879,10.064194,0,0,1,1034,2,-1546
880,10.075737,1,0,1,1034,4,-1548
881,10.087288,0,1,0,1034,0,-1553
882,10.098847,1,-1,1,1035,2,-1538
883,10.110426,0,-1,1,1035,5,-1548
884,10.122061,0,0,1,1031,3,-1544
885,10.133659,1,-1,1,1034,1,-1541
886,10.145346,0,-1,1,1033,4,-1543
887,10.157013,0,-1,1,1034,6,-1545
888,10.168658,1,0,1,1035,0,-1546
889,10.180325,0,1,1,1037,0,-1544
890,10.191981,0,0,1,1033,4,-1545
891,10.203628,0,0,1,1037,1,-1550
892,10.21528,0,0,1,1036,3,-1543
893,10.226959,0,-1,1,1030,0,-1546
894,10.238652,1,-1,0,1033,4,-1547
895,10.250366,0,-1,0,1033,1,-1543
896,10.261951,0,0,1,1035,0,-1552
897,10.273506,0,0,1,1031,-1,-1547
898,10.285096,0,0,0,1032,4,-1551
899,10.296656,0,1,1,1032,1,-1539
900,10.30822,-1,0,1,1036,2,-1542
901,10.319805,0,0,1,1032,1,-1544
902,10.331396,0,1,1,1035,1,-1541
903,10.342954,0,0,0,1033,0,-1544
904,10.354647,1,0,1,1035,0,-1544
905,10.366342,1,-1,1,1035,1,-1548
906,10.377996,0,-1,1,1034,2,-1541
907,10.389662,0,0,1,1036,3,-1552
908,10.401344,0,1,1,1030,0,-1541
909,10.41299,0,0,1,1038,-2,-1550
910,10.424648,0,-1,1,1037,1,-1545
911,10.436336,0,0,1,1032,1,-1545
912,10.447995,0,0,1,1032,0,-1544
913,10.459665,0,0,1,1034,0,-1543
914,10.471242,1,0,1,1035,2,-1542
915,10.482805,1,0,0,1034,2,-1549
916,10.494357,0,0,2,1038,0,-1552
917,10.505923,0,0,0,1036,-2,-1549
918,10.51747,0,0,0,1031,0,-1549
919,10.529014,1,1,1,1032,0,-1551
920,10.540563,0,0,1,1033,0,-1540
921,10.552152,1,-1,0,1036,2,-1545
922,10.563785,0,0,1,1035,2,-1548
923,10.575456,1,0,0,1036,3,-1545
924,10.587135,0,0,0,1032,0,-1548
925,10.598764,1,0,1,1034,-2,-1546
926,10.610432,1,0,0,1034,0,-1544
927,10.622114,1,0,0,1034,0,-1546
928,10.633797,0,0,1,1030,-2,-1546
929,10.645448,0,0,1,1038,2,-1550
930,10.657146,-1,0,0,1033,1,-1545
931,10.668806,1,0,1,1034,2,-1544
932,10.68039,1,0,0,1032,3,-1543
933,10.691949,0,0,1,1033,-2,-1547
934,10.703547,0,0,0,1031,2,-1543
935,10.715116,0,0,1,1035,2,-1545
936,10.726679,0,-1,1,1035,0,-1542
937,10.738206,1,0,1,1033,3,-1548
938,10.749724,1,-1,1,1035,2,-1545
939,10.761286,0,0,1,1032,1,-1544
940,10.77293,0,1,1,1033,1,-1547
941,10.784589,0,0,0,1030,3,-1552
942,10.796247,1,1,1,1029,0,-1545
943,10.807919,1,-1,1,1033,-3,-1545
944,10.819582,1,0,1,1037,0,-1542
945,10.831289,1,0,0,1035,3,-1546
946,10.842964,0,1,0,1031,1,-1539
947,10.854639,0,0,1,1035,2,-1547
948,10.866301,1,1,1,1032,2,-1545
949,10.877876,1,0,1,1033,1,-1547
950,10.889421,0,-1,1,1031,2,-1547
951,10.900969,0,0,1,1035,0,-1545
952,10.91252,0,0,1,1034,-3,-1545
953,10.924068,1,0,1,1037,1,-1549
954,10.935646,1,0,2,1036,0,-1545
955,10.947211,0,0,1,1035,-2,-1546
956,10.958777,0,0,0,1038,3,-1547
957,10.970383,0,-1,0,1036,-3,-1546
958,10.982021,0,0,1,1032,5,-1548
959,10.993728,0,0,1,1034,2,-1545
960,11.005399,1,0,1,1033,3,-1541
961,11.017067,0,1,1,1035,2,-1548
962,11.028753,0,0,1,1034,0,-1553
963,11.04042,0,0,1,1036,0,-1548
964,11.052077,0,0,1,1037,1,-1547
965,11.063753,0,0,1,1035,4,-1548
966,11.075441,0,-1,1,1037,1,-1547
967,11.087097,0,0,1,1032,1,-1544
968,11.098689,0,0,1,1035,5,-1548
969,11.11028,0,0,1,1037,0,-1552
970,11.121859,0,0,1,1033,0,-1545
971,11.133413,0,0,1,1032,0,-1539
972,11.144975,1,1,1,1034,0,-1540
973,11.156527,0,1,1,1033,0,-1542
974,11.168091,0,0,1,1030,0,-1552
975,11.179669,1,0,1,1034,0,-1550
976,11.191316,0,0,1,1034,1,-1552
977,11.203006,1,0,1,1033,1,-1544
978,11.214661,0,1,1,1031,0,-1543
979,11.226324,0,-1,1,1033,0,-1540
980,11.237999,0,0,1,1033,0,-1544
981,11.249644,0,1,1,1034,0,-1545
982,11.261294,0,1,1,1033,0,-1544
983,11.272958,0,-1,0,1034,0,-1542
984,11.284618,0,0,0,1035,-1,-1546
985,11.296277,1,1,0,1036,0,-1542
986,11.307842,1,0,1,1034,0,-1560
987,11.319393,0,0,2,1037,-1,-1543
988,11.330942,0,0,1,1032,1,-1542
989,11.342531,1,0,1,1034,2,-1547
990,11.354091,0,1,0,1036,2,-1547
991,11.365649,0,0,1,1034,-2,-1541
992,11.377204,0,1,1,1031,2,-1546
993,11.388812,1,0,0,1035,0,-1546
994,11.400456,1,0,0,1034,0,-1543
995,11.412117,0,-1,0,1036,2,-1544
996,11.423768,1,0,1,1034,-2,-1549
997,11.435442,1,0,0,1032,3,-1545
998,11.447105,0,0,0,1033,-2,-1548
999,11.458759,0,-1,0,1033,4,-1545
1000,11.470445,0,0,1,1035,0,-1545
1001,11.482124,1,0,1,1034,3,-1540
1002,11.493793,0,0,1,1033,0,-1544
1003,11.505452,0,0,1,1034,0,-1545
1004,11.517021,0,1,1,1037,0,-1546
1005,11.528568,1,0,1,1034,1,-1548
1006,11.540119,1,0,1,1034,0,-1543
1007,11.551671,0,1,1,1032,0,-1546
1008,11.563221,1,0,1,1033,-1,-1548
1009,11.574769,1,1,1,1031,0,-1546
1010,11.586339,1,-1,1,1036,0,-1541
1011,11.597909,0,0,0,1036,-1,-1549
1012,11.609566,0,0,1,1033,2,-1544
1013,11.621219,0,1,1,1033,-2,-1542
1014,11.632866,0,0,1,1037,2,-1540
1015,11.64453,0,0,1,1033,-3,-1551
1016,11.656194,0,0,1,1031,0,-1549
1017,11.667838,1,0,1,1033,2,-1545
1018,11.679493,0,0,1,1035,-1,-1552
1019,11.691151,1,0,2,1037,2,-1547
1020,11.702832,0,0,1,1030,0,-1548
1021,11.714526,1,0,1,1032,1,-1545
1022,11.726188,1,0,1,1032,0,-1545
1023,11.737856,0,0,1,1032,-1,-1548
1024,11.749515,0,0,0,1031,3,-1544
1025,11.761183,0,0,1,1031,0,-1547
1026,11.772834,0,0,1,1036,2,-1543
1027,11.78449,0,0,2,1035,0,-1545
1028,11.796139,0,0,0,1036,-2,-1550
1029,11.807882,0,0,0,1035,0,-1551
1030,11.819551,0,0,0,1034,1,-1549
1031,11.831214,0,0,1,1033,0,-1547
1032,11.842902,0,0,1,1035,1,-1549
1033,11.854572,0,0,1,1032,-2,-1546
1034,11.866243,0,0,1,1036,0,-1544
1035,11.877918,0,0,1,1034,-2,-1546
1036,11.889575,0,0,1,1032,3,-1546
1037,11.90123,0,0,1,1035,0,-1546
1038,11.912902,1,1,1,1033,-1,-1546
1039,11.924565,0,0,1,1034,3,-1548
1040,11.936223,0,0,0,1030,0,-1545
1041,11.947873,1,0,0,1032,-2,-1545
1042,11.959522,0,-1,1,1032,0,-1544
1043,11.971196,0,0,1,1033,-2,-1553
1044,11.982875,0,0,1,1034,-5,-1542
1045,11.994507,1,0,1,1036,0,-1543
1046,12.006185,0,-1,1,1034,2,-1551
1047,12.017864,0,0,1,1034,0,-1545
1048,12.029543,-1,0,1,1033,7,-1544
1049,12.041137,0,0,1,1037,2,-1553
1050,12.052683,0,0,1,1031,-5,-1537
1051,12.064233,0,-1,1,1033,1,-1543
1052,12.075784,0,-1,0,1032,0,-1548
1053,12.087332,0,1,1,1037,1,-1546
1054,12.098907,0,0,0,1029,4,-1545
1055,12.110526,0,0,1,1030,-4,-1540
1056,12.122364,0,0,1,1036,6,-1546
1057,12.134004,1,0,1,1035,1,-1540
1058,12.145587,1,0,1,1033,4,-1544
1059,12.157149,1,0,0,1033,2,-1542
1060,12.168705,0,0,2,1034,1,-1546
1061,12.180283,0,0,1,1032,3,-1539
1062,12.191877,0,0,1,1030,1,-1547
1063,12.203428,0,1,1,1037,1,-1545
1064,12.215011,1,0,1,1032,0,-1543
1065,12.226588,0,0,1,1033,2,-1544
1066,12.23825,0,0,1,1032,-1,-1550
1067,12.24993,0,0,1,1034,3,-1544
1068,12.261588,0,0,1,1034,5,-1538
1069,12.273255,-1,-1,2,1034,0,-1540
1070,12.284924,1,-1,1,1033,0,-1545
1071,12.296587,0,0,0,1034,-1,-1543
1072,12.308253,1,0,1,1030,0,-1549
1073,12.319927,1,1,1,1035,1,-1546
1074,12.331601,0,0,1,1036,-4,-1552
1075,12.343314,1,0,1,1034,0,-1551
1076,12.354892,0,0,0,1033,3,-1540
1077,12.366449,0,0,0,1037,0,-1546
1078,12.378013,0,0,1,1027,0,-1545
1079,12.389561,1,0,1,1033,1,-1545
1080,12.401136,0,0,1,1030,0,-1538
1081,12.412677,0,0,0,1032,-2,-1542
1082,12.424229,0,-1,0,1030,0,-1544
1083,12.435797,0,0,0,1034,5,-1545
1084,12.447382,1,-1,1,1035,-2,-1545
1085,12.45896,1,1,1,1032,1,-1545
1086,12.470518,0,1,0,1031,3,-1543
1087,12.482083,1,0,1,1035,1,-1544
1088,12.493636,0,0,1,1032,0,-1541
1089,12.505215,0,0,1,1035,1,-1547
1090,12.516765,0,0,1,1036,0,-1546
1091,12.52833,0,0,2,1037,0,-1543
1092,12.539905,1,1,1,1032,0,-1546
1093,12.551572,0,0,1,1032,-2,-1541
1094,12.563282,1,0,1,1037,-1,-1550
1095,12.574952,0,1,1,1035,2,-1543
1096,12.586644,1,1,1,1034,3,-1551
1097,12.59832,0,0,1,1034,0,-1540
1098,12.60999,-1,0,1,1034,0,-1547
1099,12.621665,-1,0,0,1034,0,-1537
1100,12.633315,0,0,1,1032,-1,-1545
1101,12.644987,0,-1,0,1033,-2,-1547
1102,12.656662,1,0,1,1030,0,-1545
1103,12.668228,0,0,0,1039,2,-1548
1104,12.679784,0,0,1,1036,1,-1547
1105,12.691333,0,0,2,1035,2,-1544
1106,12.702917,1,0,1,1032,4,-1548
1107,12.714518,0,-1,1,1037,3,-1540
1108,12.726091,0,0,0,1033,3,-1544
1109,12.73764,1,0,1,1035,4,-1548
1110,12.749197,1,0,1,1037,1,-1549
1111,12.760826,0,0,1,1030,3,-1544
1112,12.772479,1,0,0,1034,3,-1546
1113,12.784152,0,0,-1,1031,0,-1546
1114,12.795822,0,0,1,1032,4,-1548
1115,12.807467,0,1,1,1033,0,-1546
1116,12.819151,0,0,1,1032,0,-1549
1117,12.830837,-1,0,1,1031,1,-1544
1118,12.842504,0,1,1,1036,-1,-1546
1119,12.854204,-1,-1,1,1034,0,-1546
1120,12.865859,0,0,1,1030,4,-1547
1121,12.877443,-1,0,0,1033,4,-1547
1122,12.888997,0,0,1,1033,3,-1549
1123,12.900554,0,0,1,1036,-2,-1542
1124,12.912102,0,0,0,1033,2,-1542
1125,12.923674,0,0,1,1031,0,-1549
1126,12.935224,-1,0,1,1033,0,-1553
1127,12.946771,0,0,0,1039,1,-1545
1128,12.95836,0,0,1,1030,-2,-1550
1129,12.970063,1,0,1,1031,1,-1541
1130,12.981731,0,0,1,1033,0,-1542
1131,12.99338,0,0,1,1036,2,-1543
1132,13.005066,0,0,1,1033,3,-1550
1133,13.016706,0,-1,1,1029,3,-1548
1134,13.028357,0,-1,0,1034,1,-1544
1135,13.040054,0,0,1,1035,1,-1552
1136,13.05174,0,0,1,1035,3,-1542
1137,13.063467,1,0,1,1035,-1,-1553
1138,13.075067,1,0,0,1032,4,-1544
1139,13.08664,0,0,1,1033,-1,-1543
1140,13.098199,0,0,0,1029,2,-1545
1141,13.109726,0,0,0,1033,2,-1551
1142,13.121278,0,0,1,1036,0,-1542
1143,13.132864,0,-1,1,1034,0,-1552
1144,13.144416,0,0,1,1037,0,-1538
1145,13.156016,0,0,1,1034,1,-1543
1146,13.167662,0,0,1,1032,2,-1544
1147,13.179321,0,0,1,1031,3,-1546
1148,13.191048,1,-1,1,1038,3,-1548
1149,13.202694,0,0,0,1034,2,-1548
1150,13.214376,0,0,1,1031,0,-1544
1151,13.226059,1,-1,0,1035,0,-1545
1152,13.237724,0,0,1,1035,-1,-1548
1153,13.249417,0,-1,1,1032,-1,-1543
1154,13.261098,1,0,1,1032,0,-1547
1155,13.272772,1,0,1,1033,2,-1544
1156,13.28433,0,0,1,1037,2,-1545
1157,13.295914,0,0,1,1029,1,-1548
1158,13.307463,1,0,1,1036,2,-1543
1159,13.319011,0,0,0,1032,0,-1541
1160,13.3306,0,0,0,1031,3,-1543
1161,13.342152,0,0,1,1033,0,-1545
1162,13.353724,0,0,1,1030,3,-1541
1163,13.365276,0,0,1,1034,2,-1545
1164,13.376908,0,0,1,1031,3,-1545
1165,13.38856,0,-1,1,1031,3,-1540
1166,13.400212,0,0,0,1035,0,-1539
1167,13.411874,0,0,0,1035,1,-1547
1168,13.423543,0,0,0,1034,3,-1546
1169,13.435202,0,1,1,1034,3,-1542
1170,13.446881,-1,1,1,1031,1,-1542
1171,13.458508,0,0,1,1033,0,-1538
1172,13.470192,0,0,0,1033,3,-1544
1173,13.481857,0,0,0,1037,1,-1542
1174,13.493424,-1,0,1,1033,-3,-1548
1175,13.505008,1,1,1,1031,0,-1546
1176,13.516562,0,0,1,1033,0,-1544
1177,13.528132,1,0,1,1034,2,-1550
1178,13.539681,0,0,0,1034,1,-1551
1179,13.551228,0,0,1,1032,-1,-1545
1180,13.562801,0,0,1,1037,2,-1550
1181,13.574383,0,0,1,1031,5,-1542
1182,13.586072,0,0,1,1033,0,-1544
1183,13.597738,0,0,1,1036,3,-1545
1184,13.609384,0,0,1,1034,7,-1549
1185,13.621063,1,-1,0,1032,0,-1549
1186,13.63272,0,0,0,1033,0,-1553
1187,13.644369,0,0,1,1033,0,-1550
1188,13.656034,0,0,1,1033,3,-1549
1189,13.667709,0,0,1,1034,0,-1555
1190,13.679386,1,0,1,1034,1,-1549
1191,13.691035,1,-1,0,1033,3,-1546
1192,13.702697,0,-1,0,1041,2,-1542
1193,13.714388,0,1,0,1036,-1,-1550
1194,13.726056,0,0,1,1030,0,-1548
1195,13.737725,0,0,0,1032,0,-1548
1196,13.749397,-1,0,1,1030,0,-1541
1197,13.761051,0,-1,1,1033,2,-1545
1198,13.772708,0,0,0,1035,1,-1548
1199,13.784383,0,0,1,1033,-3,-1542
1200,13.79605,1,0,1,1037,0,-1548
1201,13.8077,0,0,1,1031,0,-1542
1202,13.81935,0,0,0,1032,1,-1554
1203,13.831036,0,-1,1,1032,0,-1545
1204,13.842696,0,-1,1,1036,1,-1544
1205,13.854389,1,0,1,1032,-3,-1547
1206,13.866053,0,0,1,1033,1,-1551
1207,13.877724,0,0,1,1039,3,-1548
1208,13.889421,0,-1,0,1033,3,-1549
1209,13.901067,0,0,1,1035,2,-1546
1210,13.912715,0,0,1,1033,2,-1545
1211,13.92438,0,1,0,1033,-2,-1543
1212,13.936047,0,1,1,1035,0,-1546
1213,13.9477,0,0,0,1034,0,-1545
1214,13.959344,0,0,1,1033,1,-1550
1215,13.971018,0,-1,1,1035,3,-1541
1216,13.982693,0,-1,2,1034,0,-1549
1217,13.994392,1,0,0,1030,0,-1547
1218,14.006119,0,1,1,1033,-4,-1548
1219,14.017675,0,0,1,1034,3,-1546
1220,14.029245,-1,0,1,1033,0,-1542
1221,14.040794,0,0,1,1033,0,-1547
1222,14.052363,0,0,1,1037,0,-1544
1223,14.063918,0,0,0,1036,0,-1543
1224,14.075489,1,-1,1,1032,4,-1543
1225,14.087062,0,0,0,1035,0,-1545
1226,14.098683,0,1,1,1032,-1,-1551
1227,14.110325,0,0,1,1031,0,-1549
1228,14.122044,0,0,1,1038,1,-1545
1229,14.133726,0,0,1,1036,2,-1542
1230,14.145409,0,0,1,1034,0,-1546
1231,14.157059,0,0,1,1033,2,-1546
1232,14.168713,0,0,1,1039,2,-1538
1233,14.180388,0,0,0,1031,-2,-1551
1234,14.192055,-1,0,0,1034,0,-1553
1235,14.203715,1,0,1,1036,-1,-1552
1236,14.215293,0,0,1,1038,-1,-1549
1237,14.226874,1,0,1,1031,2,-1542
1238,14.238448,0,0,0,1031,1,-1540
1239,14.24998,0,1,1,1033,0,-1549
1240,14.261524,0,0,0,1034,3,-1544
1241,14.273081,0,0,0,1031,0,-1543
1242,14.284635,0,0,1,1035,1,-1546
1243,14.296183,0,1,1,1032,3,-1542
1244,14.307801,0,0,0,1032,3,-1551
1245,14.31943,1,0,1,1033,1,-1543
1246,14.331101,0,0,0,1032,-3,-1546
1247,14.342774,0,0,1,1036,0,-1545
1248,14.354469,0,0,1,1035,1,-1547
1249,14.366155,0,0,1,1034,1,-1543
1250,14.377806,0,0,0,1034,3,-1538
1251,14.38946,0,0,0,1034,0,-1545
1252,14.401138,1,0,0,1038,5,-1550
1253,14.412812,0,0,0,1033,1,-1546
1254,14.424474,0,-1,1,1033,0,-1547
1255,14.436144,0,0,2,1035,0,-1544
1256,14.44781,0,0,1,1032,-1,-1544
1257,14.459456,0,0,1,1030,4,-1547
1258,14.471152,0,0,0,1036,-1,-1545
1259,14.482825,0,0,0,1032,-1,-1547
1260,14.494501,0,0,0,1035,1,-1549
1261,14.506181,0,0,1,1032,1,-1547
1262,14.517929,1,0,1,1033,-1,-1544
1263,14.529573,1,0,0,1035,0,-1545
1264,14.541133,1,0,1,1031,0,-1552
1265,14.552713,1,1,0,1033,4,-1544
1266,14.564261,0,0,1,1037,-2,-1548
1267,14.575809,0,1,0,1031,2,-1546
1268,14.587363,0,-1,0,1032,1,-1548
1269,14.598932,0,0,1,1035,-1,-1541
1270,14.610493,0,0,1,1036,1,-1543
1271,14.622062,0,0,1,1035,4,-1548
1272,14.63372,0,0,1,1033,2,-1547
1273,14.645401,0,0,1,1035,2,-1547
1274,14.657048,0,0,1,1032,0,-1544
1275,14.668701,0,0,1,1033,1,-1546
1276,14.68036,-1,0,1,1034,1,-1547
1277,14.692034,0,0,1,1032,2,-1547
1278,14.703687,0,0,1,1033,0,-1542
1279,14.715338,0,0,1,1029,2,-1547
1280,14.727062,0,0,1,1032,-1,-1545
1281,14.738756,1,1,1,1035,2,-1541
1282,14.750358,0,0,1,1034,-2,-1543
1283,14.76191,1,0,1,1030,-4,-1549
1284,14.773504,0,0,0,1034,1,-1543
1285,14.78506,-1,1,1,1035,0,-1544
1286,14.796611,0,-1,1,1031,6,-1544
1287,14.808159,0,0,1,1034,1,-1546
1288,14.819702,0,1,0,1032,1,-1547
1289,14.83126,1,0,1,1035,0,-1548
1290,14.842958,0,1,1,1034,0,-1549
1291,14.854651,-1,0,0,1034,-1,-1553
1292,14.866314,-1,1,0,1033,1,-1542
1293,14.877987,0,1,1,1035,0,-1543
1294,14.889667,0,0,1,1037,2,-1548
1295,14.901314,1,0,0,1034,1,-1547
1296,14.912965,0,-1,1,1035,1,-1544
1297,14.924636,0,-1,1,1032,1,-1544
1298,14.936308,0,0,1,1031,-2,-1547
1299,14.947983,0,0,1,1035,0,-1548
1300,14.959556,1,0,1,1035,0,-1542
1301,14.971122,1,0,1,1034,0,-1543
1302,14.982685,1,0,1,1033,-2,-1541
1303,14.994227,1,0,1,1034,1,-1540
1304,15.005779,0,-1,0,1032,3,-1547
1305,15.017321,0,0,0,1035,0,-1550
1306,15.028874,0,0,0,1035,2,-1548
1307,15.040435,0,0,1,1035,3,-1545
1308,15.052054,0,0,1,1035,-2,-1541
1309,15.063711,0,0,1,1031,1,-1541
1310,15.075387,0,0,0,1033,-3,-1545
1311,15.087033,0,1,0,1036,5,-1548
1312,15.098718,1,0,1,1036,3,-1547
1313,15.110398,0,1,0,1034,0,-1550
1314,15.122052,0,-1,1,1033,1,-1549
1315,15.133726,0,0,1,1032,-1,-1542
1316,15.145432,0,0,0,1032,4,-1547
1317,15.157086,0,0,1,1035,5,-1548
1318,15.16864,1,0,1,1031,0,-1544
1319,15.180224,0,1,1,1032,-2,-1541
1320,15.191765,0,0,1,1034,2,-1545
1321,15.203304,0,0,1,1036,-5,-1541
1322,15.214861,1,0,0,1035,2,-1545
1323,15.226449,0,0,1,1032,-2,-1546
1324,15.238019,0,0,1,1037,0,-1549
1325,15.249573,0,1,0,1034,2,-1546
1326,15.261125,0,1,0,1035,0,-1546
1327,15.272672,1,0,1,1035,0,-1545
1328,15.28422,0,0,1,1032,-3,-1545
1329,15.295769,0,0,1,1034,2,-1548
1330,15.30735,1,1,0,1035,0,-1547
1331,15.318932,0,1,1,1035,0,-1546
1332,15.33047,0,0,0,1029,0,-1553
1333,15.342019,0,0,1,1034,2,-1548
1334,15.353616,0,0,2,1035,0,-1550
1335,15.365247,0,1,0,1036,0,-1539
1336,15.37694,0,0,1,1034,-2,-1547
1337,15.388611,1,-1,1,1033,3,-1545
1338,15.400275,1,0,2,1033,6,-1545
1339,15.41193,0,-1,0,1034,0,-1547
1340,15.423586,1,-1,0,1034,0,-1550
1341,15.435274,0,-1,1,1036,0,-1550
1342,15.446944,0,1,1,1029,1,-1541
1343,15.458649,0,1,0,1033,-1,-1546
1344,15.470347,1,-1,1,1033,0,-1548
1345,15.482005,0,1,0,1034,8,-1549
1346,15.493677,0,1,1,1031,0,-1543
1347,15.50534,1,0,0,1030,3,-1545
1348,15.517006,0,0,0,1029,-1,-1548
1349,15.528672,0,-1,0,1035,-2,-1546
1350,15.540331,0,-1,0,1036,0,-1544
1351,15.551988,0,0,0,1033,0,-1549
1352,15.563668,-1,1,1,1035,3,-1545
1353,15.575309,0,0,2,1034,2,-1546
1354,15.586872,1,1,1,1032,1,-1550
1355,15.598481,0,0,1,1034,0,-1543
1356,15.61004,0,0,1,1035,1,-1549
1357,15.621605,0,0,1,1033,0,-1543
1358,15.633146,0,0,1,1032,1,-1546
1359,15.644693,1,-1,0,1035,2,-1546
1360,15.656248,1,1,0,1034,1,-1548
1361,15.667847,0,1,1,1031,0,-1545
1362,15.679475,0,0,1,1036,1,-1545
1363,15.691168,0,0,0,1034,0,-1544
1364,15.702828,1,0,1,1034,-3,-1544
1365,15.714516,1,0,0,1031,-1,-1552
1366,15.72618,0,0,1,1029,1,-1548
1367,15.737859,-1,0,1,1033,1,-1546
1368,15.749522,0,-1,1,1033,-1,-1543
1369,15.76118,0,0,1,1033,0,-1548
1370,15.772837,0,0,1,1030,0,-1549
1371,15.784489,0,0,1,1036,0,-1542
1372,15.796158,0,0,0,1032,-4,-1547
1373,15.807801,0,0,1,1032,0,-1549
1374,15.819455,0,0,0,1035,-4,-1541
1375,15.831152,0,1,0,1034,0,-1542
1376,15.842836,0,0,1,1029,1,-1541
1377,15.854514,0,-1,1,1032,0,-1545
1378,15.866173,0,-1,1,1031,1,-1546
1379,15.877849,1,-1,0,1034,2,-1548
1380,15.889526,0,0,0,1029,0,-1545
1381,15.901185,1,0,1,1031,2,-1547
1382,15.912829,0,0,0,1030,2,-1547
1383,15.924478,1,0,1,1034,0,-1543
1384,15.936151,0,-1,1,1031,-1,-1547
1385,15.947799,0,0,0,1034,2,-1545
1386,15.959448,1,0,1,1034,3,-1541
1387,15.971115,1,0,0,1032,-1,-1548
1388,15.98281,0,0,1,1035,0,-1544
1389,15.994509,0,0,1,1033,-3,-1546
1390,16.006172,0,0,0,1034,-3,-1544
1391,16.017857,0,0,1,1033,1,-1550
1392,16.029528,1,0,1,1031,4,-1546
1393,16.041177,0,0,1,1032,1,-1542
1394,16.052825,0,-1,1,1034,0,-1546
1395,16.064491,1,0,1,1034,-4,-1553
1396,16.076142,0,0,0,1035,3,-1539
1397,16.087803,0,0,0,1031,0,-1548
1398,16.099464,0,0,0,1036,0,-1543
1399,16.111154,0,0,1,1029,0,-1544
1400,16.122809,1,0,1,1030,0,-1545
1401,16.134505,0,0,1,1036,2,-1546
1402,16.146162,0,0,1,1033,0,-1543
1403,16.157807,0,-1,1,1037,0,-1550
1404,16.169461,0,1,1,1037,0,-1545
1405,16.181112,1,-1,1,1028,3,-1541
1406,16.192806,1,0,0,1035,0,-1546
1407,16.204462,0,0,0,1030,1,-1542
1408,16.216143,0,-1,0,1034,0,-1548
1409,16.22779,0,0,1,1036,0,-1545
1410,16.239441,0,1,1,1034,3,-1549
1411,16.251112,1,0,0,1033,3,-1549
1412,16.262789,0,0,0,1035,0,-1542
1413,16.274453,1,0,0,1033,0,-1546
1414,16.286137,1,0,1,1034,0,-1545
1415,16.297804,0,-1,1,1033,2,-1545
1416,16.309491,1,-1,1,1030,-2,-1545
1417,16.321066,0,1,1,1035,0,-1550
1418,16.33261,0,0,1,1034,-2,-1540
1419,16.344151,0,0,1,1034,2,-1546
1420,16.3557,0,1,1,1034,2,-1549
1421,16.367247,0,0,0,1033,1,-1549
1422,16.37882,0,0,1,1035,0,-1543
1423,16.390376,0,0,1,1030,2,-1541
1424,16.401999,0,0,0,1033,1,-1545
1425,16.413666,1,0,0,1033,-1,-1549
1426,16.42533,0,0,1,1035,-1,-1547
1427,16.436979,1,0,0,1030,0,-1548
1428,16.448656,0,0,0,1030,0,-1546
1429,16.460314,0,1,1,1036,-1,-1546
1430,16.471968,1,0,1,1036,3,-1554
1431,16.483649,0,0,1,1031,3,-1545
1432,16.495301,0,0,1,1031,1,-1548
1433,16.506969,0,0,1,1034,-1,-1545
1434,16.518629,0,0,1,1035,-4,-1544
1435,16.530216,0,0,0,1038,1,-1543
1436,16.541771,0,0,0,1034,1,-1547
1437,16.553322,1,0,1,1032,-1,-1551
1438,16.564884,0,0,1,1034,1,-1541
1439,16.576485,0,0,1,1035,-1,-1544
1440,16.588081,1,0,1,1033,6,-1547
1441,16.599635,0,-1,1,1036,1,-1546
1442,16.611193,-1,-1,1,1034,0,-1543
1443,16.622826,0,-1,1,1035,0,-1545
1444,16.634537,0,0,1,1033,-6,-1546
1445,16.646247,0,-1,1,1037,3,-1550
1446,16.657911,1,0,1,1031,0,-1543
1447,16.669568,1,-1,1,1034,3,-1543
1448,16.681245,0,-1,0,1036,0,-1545
1449,16.692915,0,0,0,1033,3,-1549
1450,16.704576,0,-1,1,1030,0,-1544
1451,16.716292,0,-1,0,1034,-4,-1548
1452,16.727942,1,0,1,1035,-1,-1550
1453,16.739514,0,0,0,1033,-1,-1550
1454,16.751101,1,0,1,1030,2,-1546
1455,16.76268,1,0,1,1033,1,-1543
1456,16.774207,0,0,1,1032,-1,-1538
1457,16.785728,0,0,0,1034,6,-1547
1458,16.797271,-1,0,1,1034,0,-1543
1459,16.808833,1,0,1,1034,3,-1551
1460,16.820397,0,-1,0,1035,-1,-1544
1461,16.832027,0,0,1,1032,4,-1545
1462,16.843693,1,0,0,1030,1,-1540
1463,16.855364,0,0,1,1035,0,-1545
1464,16.867034,0,0,1,1034,5,-1547
1465,16.8787,1,0,1,1033,-3,-1548
1466,16.890389,0,0,0,1034,0,-1544
1467,16.902052,0,0,1,1035,-1,-1550
1468,16.913745,0,0,1,1036,2,-1546
1469,16.925411,-1,0,1,1032,0,-1550
1470,16.937068,0,0,1,1033,-1,-1550
1471,16.94864,0,0,1,1034,4,-1544
1472,16.960235,1,-1,0,1033,1,-1545
1473,16.971798,0,0,1,1034,3,-1546
1474,16.983356,1,0,1,1034,3,-1548
1475,16.994954,0,0,1,1032,5,-1551
1476,17.006515,0,1,1,1033,0,-1542
1477,17.018094,0,0,1,1035,-1,-1546
1478,17.029656,0,0,1,1035,-2,-1550
1479,17.041277,0,1,1,1037,3,-1538
1480,17.052934,0,0,1,1031,0,-1546
1481,17.064604,0,0,1,1036,0,-1550
1482,17.07627,0,0,1,1031,4,-1546
1483,17.087923,0,0,1,1035,3,-1547
1484,17.099577,0,0,1,1031,0,-1544
1485,17.11127,0,-1,1,1031,1,-1546
1486,17.122933,0,-1,1,1030,0,-1553
1487,17.134624,0,0,1,1034,0,-1549
1488,17.14628,0,0,0,1032,3,-1542
1489,17.157857,1,0,0,1036,1,-1550
1490,17.169405,0,0,0,1035,-1,-1546
1491,17.180956,0,0,0,1035,4,-1541
1492,17.192507,0,0,1,1033,2,-1547
1493,17.204085,1,0,1,1036,1,-1550
1494,17.215641,0,0,1,1035,0,-1543
1495,17.22721,0,1,0,1034,2,-1545
1496,17.238771,0,0,0,1029,1,-1541
1497,17.250461,0,0,1,1034,2,-1547
1498,17.262134,1,0,1,1036,0,-1545
1499,17.273786,0,0,1,1036,0,-1543
1500,17.285447,0,-1,0,1030,1,-1545
1501,17.297101,1,0,1,1036,0,-1546
1502,17.308787,1,1,1,1034,1,-1547
1503,17.320459,1,0,1,1031,3,-1547
1504,17.332135,0,-1,1,1031,1,-1548
1505,17.343806,-1,0,2,1033,0,-1544
1506,17.355464,0,0,1,1033,0,-1544
1507,17.367111,0,1,1,1037,6,-1544
1508,17.378725,0,-1,1,1035,4,-1543
1509,17.390287,1,0,1,1034,2,-1547
1510,17.401864,0,0,1,1034,-5,-1547
1511,17.413411,0,0,1,1032,1,-1544
1512,17.424965,0,0,1,1037,4,-1544
1513,17.436517,-1,0,1,1035,4,-1545
1514,17.448101,0,-1,0,1034,1,-1545
1515,17.459803,0,1,0,1030,1,-1545
1516,17.471481,-1,1,1,1034,1,-1548
1517,17.483164,0,0,0,1035,5,-1549
1518,17.494825,0,0,0,1034,1,-1546
1519,17.506569,0,-1,1,1031,-3,-1546
1520,17.518338,0,0,0,1031,0,-1546
1521,17.530011,0,0,0,1032,0,-1552
1522,17.541653,0,-1,0,1032,3,-1544
1523,17.553325,0,0,2,1034,-4,-1549
1524,17.565021,0,0,1,1035,3,-1542
1525,17.576598,0,0,0,1034,2,-1547
1526,17.588141,0,0,0,1031,0,-1543
1527,17.599687,0,-1,1,1034,-1,-1544
1528,17.611236,1,-1,0,1034,5,-1544
1529,17.622819,0,-1,0,1033,0,-1550
1530,17.634379,0,0,1,1034,1,-1543
1531,17.645981,0,-1,1,1033,0,-1541
1532,17.657552,0,0,1,1035,0,-1544
1533,17.669167,0,0,1,1034,2,-1549
1534,17.680837,0,0,0,1033,-2,-1552
1535,17.692532,-1,-1,0,1031,1,-1547
1536,17.704188,0,0,0,1033,-1,-1548
1537,17.715867,0,0,0,1032,1,-1547
1538,17.727537,0,0,1,1036,-1,-1544
1539,17.739231,1,0,1,1035,2,-1544
1540,17.750908,1,0,1,1035,2,-1548
1541,17.762585,0,0,0,1032,1,-1547
1542,17.774257,1,0,0,1035,2,-1547
1543,17.785857,0,0,1,1033,3,-1545
1544,17.797439,0,0,1,1033,0,-1550
1545,17.808991,0,0,1,1033,0,-1545
1546,17.820545,0,0,1,1035,0,-1547
1547,17.832098,-1,0,1,1035,5,-1544
1548,17.843645,0,0,1,1033,1,-1543
1549,17.855193,0,0,1,1033,1,-1546
1550,17.866767,0,0,1,1030,4,-1543
1551,17.878374,0,0,1,1034,3,-1550
1552,17.890032,0,0,1,1037,0,-1547
1553,17.901726,0,1,1,1035,-1,-1550
1554,17.913372,0,-1,0,1034,-1,-1543
1555,17.925027,0,0,1,1035,0,-1543
1556,17.93668,1,0,0,1033,4,-1551
1557,17.948325,0,0,1,1032,0,-1548
1558,17.95998,0,-1,1,1035,1,-1543
1559,17.971666,-1,-1,1,1031,1,-1538
1560,17.983318,0,1,1,1035,-1,-1546
1561,17.995,0,0,1,1031,3,-1549
1562,18.006661,0,1,0,1031,0,-1545
1563,18.018312,0,0,1,1035,1,-1547
1564,18.029988,0,1,1,1033,2,-1547
1565,18.041644,1,0,0,1036,4,-1555
1566,18.053292,0,0,0,1031,2,-1542
1567,18.064984,0,0,0,1031,1,-1550
1568,18.076673,1,0,0,1034,0,-1547
1569,18.088343,0,0,0,1034,1,-1540
1570,18.100009,0,0,1,1034,3,-1549
1571,18.111703,0,0,1,1033,1,-1550
1572,18.123473,1,0,0,1029,3,-1547
1573,18.135183,0,0,1,1037,2,-1547
1574,18.146839,0,0,1,1033,3,-1548
1575,18.15852,1,0,1,1034,2,-1540
1576,18.172481,1,0,1,1028,0,-1545
1577,18.184208,0,0,1,1034,2,-1548
1578,18.195922,1,0,1,1035,2,-1548
1579,18.207473,0,0,0,1033,0,-1542
1580,18.219056,0,0,1,1031,2,-1544
1581,18.230617,0,0,1,1034,4,-1552
1582,18.242189,0,0,1,1033,0,-1554
1583,18.253726,0,0,0,1035,4,-1541
1584,18.265308,0,0,1,1036,0,-1541
1585,18.276864,0,0,1,1034,0,-1546
1586,18.288424,0,1,1,1035,0,-1545
1587,18.300042,0,0,1,1032,2,-1546
1588,18.311732,0,0,1,1031,2,-1549
1589,18.323386,0,0,1,1031,2,-1546
1590,18.335027,0,0,0,1035,0,-1540
1591,18.34669,0,0,0,1034,0,-1541
1592,18.358383,0,0,1,1028,2,-1549
1593,18.37004,1,0,1,1033,4,-1543
1594,18.381727,0,0,1,1036,0,-1551
1595,18.393389,0,0,1,1034,0,-1547
1596,18.405069,0,0,1,1028,1,-1545
1597,18.41662,0,0,1,1031,0,-1550
1598,18.428168,1,-1,1,1035,3,-1545
1599,18.439759,0,-1,1,1028,2,-1542
1600,18.451311,0,0,0,1033,2,-1547
1601,18.462874,0,-1,1,1031,2,-1549
1602,18.474471,0,0,1,1036,0,-1549
1603,18.486076,0,-1,1,1029,2,-1542
1604,18.497634,0,0,1,1031,5,-1540
1605,18.509263,0,0,1,1034,0,-1543
1606,18.520917,0,0,1,1033,1,-1547
1607,18.532575,1,0,1,1031,6,-1542
1608,18.544236,0,0,2,1034,2,-1550
1609,18.555894,1,-1,1,1033,2,-1551
1610,18.567547,0,0,1,1033,7,-1542
1611,18.579197,1,0,1,1033,2,-1548
1612,18.590897,0,0,0,1032,1,-1550
1613,18.602573,0,1,1,1033,-1,-1540
1614,18.61423,0,0,0,1031,1,-1540
1615,18.62579,0,0,1,1031,0,-1544
1616,18.637343,0,0,1,1032,0,-1548
1617,18.648889,0,1,0,1034,2,-1543
1618,18.660443,-1,1,1,1033,-3,-1544
1619,18.671994,0,0,1,1034,1,-1548
1620,18.683573,0,0,1,1031,1,-1547
1621,18.69513,1,0,0,1035,2,-1542
1622,18.706717,0,0,1,1033,2,-1551
1623,18.718331,0,0,1,1030,1,-1546
1624,18.730007,1,0,2,1031,0,-1544
1625,18.741659,1,0,1,1033,4,-1543
1626,18.753319,0,0,1,1035,2,-1547
1627,18.76499,0,0,0,1036,1,-1546
1628,18.776642,0,0,1,1033,3,-1550
1629,18.788291,0,1,1,1034,-2,-1544
1630,18.799942,0,-1,1,1034,3,-1541
1631,18.811625,0,0,1,1034,-3,-1543
1632,18.823179,0,1,1,1031,3,-1541
1633,18.834736,0,0,2,1031,-1,-1547
1634,18.846334,0,0,1,1033,0,-1546
1635,18.857907,0,0,1,1031,4,-1544
1636,18.86946,0,-1,0,1033,-1,-1548
1637,18.881003,1,0,0,1036,0,-1546
1638,18.892562,1,0,1,1031,3,-1543
1639,18.90411,0,0,1,1036,-1,-1547
1640,18.915663,0,0,1,1035,1,-1545
1641,18.927315,0,0,0,1033,-3,-1544
1642,18.938997,0,-1,1,1040,1,-1545
1643,18.950668,0,-1,1,1035,0,-1544
1644,18.962323,1,0,1,1030,0,-1545
1645,18.973996,0,0,2,1030,0,-1548
1646,18.98565,0,-1,1,1031,3,-1543
1647,18.99729,1,0,1,1037,6,-1549
1648,19.008951,0,1,0,1035,0,-1542
1649,19.02063,0,0,1,1036,4,-1547
1650,19.032284,0,0,1,1037,3,-1542
1651,19.043948,0,0,0,1035,0,-1549
1652,19.05565,0,0,1,1035,-1,-1537
1653,19.067307,1,0,2,1034,-1,-1549
1654,19.078955,0,1,1,1030,3,-1541
1655,19.090645,0,-1,1,1035,0,-1549
1656,19.102311,0,0,1,1036,4,-1545
1657,19.114056,1,0,1,1038,2,-1542
1658,19.125739,-1,0,0,1027,0,-1549
1659,19.13733,0,0,0,1035,0,-1547
1660,19.148886,0,0,1,1033,4,-1550
1661,19.160452,-1,0,1,1033,4,-1547
1662,19.171994,0,0,0,1035,2,-1541
1663,19.18358,0,-1,1,1030,0,-1544
1664,19.195149,0,0,1,1032,0,-1545
1665,19.206687,0,0,1,1033,0,-1546
1666,19.218224,1,1,0,1035,0,-1541
1667,19.229945,0,0,1,1033,3,-1544
1668,19.24163,0,0,1,1035,2,-1543
1669,19.253273,0,1,1,1029,-4,-1543
1670,19.264926,0,-1,1,1036,3,-1551
1671,19.276598,0,0,0,1031,0,-1541
1672,19.288259,0,-1,0,1035,0,-1555
1673,19.299911,0,0,1,1034,1,-1552
1674,19.31156,0,-1,1,1034,1,-1546
1675,19.32321,0,0,0,1030,1,-1542
1676,19.334825,1,0,0,1032,0,-1550
1677,19.346388,1,1,1,1032,3,-1547
1678,19.357969,0,0,1,1032,1,-1549
1679,19.369511,0,0,0,1033,3,-1547
1680,19.38106,0,0,0,1037,3,-1549
1681,19.392604,0,0,0,1032,0,-1544
1682,19.404152,0,0,0,1035,2,-1546
1683,19.415701,0,0,1,1036,1,-1546
1684,19.427268,1,0,1,1034,0,-1545
1685,19.438932,0,1,1,1033,1,-1545
1686,19.450624,0,1,1,1035,0,-1546
1687,19.462257,0,0,1,1034,-1,-1546
1688,19.473914,0,0,0,1036,0,-1542
1689,19.485574,0,0,0,1033,2,-1550
1690,19.497233,0,0,0,1038,1,-1539
1691,19.508894,0,0,1,1030,1,-1542
1692,19.520555,0,0,1,1037,1,-1553
1693,19.53223,0,0,1,1035,-1,-1541
1694,19.543883,0,1,1,1038,1,-1550
1695,19.555574,0,-1,1,1033,4,-1545
1696,19.567264,0,-1,1,1033,-5,-1546
1697,19.578936,1,0,1,1034,1,-1551
1698,19.590583,0,1,1,1034,2,-1552
1699,19.602264,0,0,1,1036,2,-1548
1700,19.613919,0,-1,0,1033,0,-1547
1701,19.625587,0,0,2,1031,2,-1545
1702,19.637243,0,0,1,1034,3,-1550
1703,19.648895,0,0,1,1037,0,-1548
1704,19.660535,0,-1,0,1034,2,-1546
1705,19.672184,0,0,1,1031,-1,-1541
1706,19.683861,0,0,1,1033,0,-1538
1707,19.695511,0,0,1,1029,-1,-1545
1708,19.707164,0,0,1,1038,0,-1544
1709,19.71884,1,0,1,1034,2,-1544
1710,19.730539,0,0,1,1035,2,-1548
1711,19.742197,0,0,1,1031,0,-1550
1712,19.753878,1,0,1,1035,-3,-1548
1713,19.765522,1,-1,1,1033,1,-1548
1714,19.777169,0,1,0,1032,2,-1543
1715,19.788836,-1,0,0,1031,1,-1551
1716,19.800542,1,0,2,1035,1,-1548
1717,19.812336,0,-1,1,1039,-2,-1548
1718,19.824007,0,0,1,1033,4,-1541
1719,19.835659,0,0,0,1032,-2,-1547
1720,19.847223,0,0,0,1033,4,-1543
1721,19.858832,0,0,0,1033,1,-1546
1722,19.870379,1,0,0,1033,3,-1540
1723,19.881962,0,0,1,1034,3,-1549
1724,19.893512,0,0,0,1033,3,-1545
1725,19.905064,0,-1,1,1039,0,-1547
1726,19.916625,0,0,1,1032,1,-1543
1727,19.928218,1,1,1,1033,0,-1546
1728,19.939806,1,0,0,1032,5,-1546
1729,19.951431,1,-1,0,1034,0,-1551
1730,19.963103,1,0,1,1036,1,-1544
1731,19.974786,1,0,1,1033,1,-1543
1732,19.986467,0,0,1,1037,0,-1547
1733,19.998131,0,0,0,1030,1,-1545
1734,20.009789,0,1,1,1032,3,-1548
1735,20.021463,0,1,1,1036,1,-1546
1736,20.033117,-1,0,2,1035,2,-1546
1737,20.044766,0,0,1,1035,2,-1549
1738,20.056392,0,0,1,1031,3,-1550
1739,20.067958,1,0,0,1032,2,-1543
1740,20.079529,1,0,0,1035,1,-1553
1741,20.091091,0,0,1,1031,1,-1544
1742,20.102648,1,0,1,1033,0,-1551
1743,20.114209,0,0,1,1033,4,-1549
1744,20.125785,0,0,1,1029,-3,-1546
1745,20.137338,0,-1,0,1031,0,-1547
1746,20.148935,0,1,0,1035,3,-1543
1747,20.160557,1,0,0,1036,3,-1544
1748,20.172233,0,0,0,1030,2,-1549
1749,20.183889,0,0,1,1034,1,-1542
1750,20.195544,1,0,1,1034,6,-1545
1751,20.207218,0,0,0,1034,4,-1543
1752,20.218894,0,0,1,1033,1,-1542
1753,20.230561,1,1,1,1032,0,-1544
1754,20.242247,0,0,1,1030,3,-1546
1755,20.253915,-1,0,2,1034,3,-1545
1756,20.265597,0,0,1,1033,1,-1549
1757,20.277196,0,0,1,1026,0,-1548
1758,20.288782,0,-1,2,1030,-1,-1548
1759,20.300332,0,0,1,1034,2,-1542
1760,20.311875,0,0,1,1035,3,-1547
1761,20.323428,0,0,1,1031,0,-1543
1762,20.334984,0,0,1,1032,-1,-1548
1763,20.346596,0,-1,0,1039,2,-1547
1764,20.358215,1,0,0,1036,1,-1541
1765,20.36987,0,-1,1,1033,0,-1545
1766,20.381519,0,0,1,1033,-1,-1544
1767,20.393169,1,0,1,1032,0,-1545
1768,20.404843,0,0,1,1036,-1,-1545
1769,20.416499,0,0,1,1033,0,-1551
1770,20.428156,0,0,0,1034,3,-1546
1771,20.43983,0,0,1,1030,1,-1547
1772,20.451491,0,0,1,1035,0,-1546
1773,20.463176,0,0,1,1032,-1,-1542
1774,20.47484,-1,0,1,1034,2,-1545
1775,20.486432,0,0,0,1034,-1,-1542
1776,20.497971,0,0,0,1036,1,-1551
1777,20.509525,0,0,1,1035,3,-1550
1778,20.521074,0,-1,1,1032,0,-1546
1779,20.532675,-1,-1,1,1035,5,-1543
1780,20.544231,0,0,1,1030,1,-1547
1781,20.555819,0,-1,1,1037,0,-1546
1782,20.567379,0,1,1,1035,0,-1546
1783,20.579011,0,0,1,1033,1,-1549
1784,20.590671,0,0,1,1033,1,-1542
1785,20.60238,0,-1,1,1037,5,-1544
1786,20.614044,0,-1,1,1036,0,-1545
1787,20.625747,0,-1,1,1038,0,-1546
1788,20.637395,0,0,1,1037,0,-1546
1789,20.649056,0,-1,1,1034,1,-1545
1790,20.660778,0,0,1,1034,2,-1541
1791,20.672442,0,0,1,1037,0,-1553
1792,20.684116,0,0,1,1035,0,-1548
1793,20.69568,1,0,1,1033,1,-1545
1794,20.70724,0,-1,1,1030,2,-1543
1795,20.71884,0,0,1,1034,0,-1546
1796,20.730443,0,0,1,1033,-2,-1550
1797,20.741968,0,-1,1,1032,-1,-1541
1798,20.753512,0,0,1,1032,1,-1548
1799,20.765063,0,-1,1,1031,-3,-1548
1800,20.776609,0,0,1,1036,2,-1543
1801,20.788291,1,0,1,1032,0,-1548
1802,20.799944,0,0,1,1032,2,-1544
1803,20.811642,0,0,1,1029,-2,-1549
1804,20.823288,0,0,1,1034,0,-1539
1805,20.834945,1,-1,1,1035,2,-1536
1806,20.846639,0,0,0,1035,-2,-1541
1807,20.858298,0,-1,2,1032,2,-1545
1808,20.869987,0,0,1,1034,4,-1546
1809,20.881649,0,0,1,1031,0,-1549
1810,20.893317,0,0,1,1035,1,-1550
1811,20.904875,1,1,1,1032,1,-1549
1812,20.916433,0,0,1,1031,0,-1547
1813,20.927984,0,0,1,1030,-1,-1548
1814,20.939534,0,0,1,1034,1,-1551
1815,20.951096,0,0,0,1035,-1,-1545
1816,20.962703,1,1,0,1034,5,-1545
1817,20.974279,0,0,1,1037,0,-1545
1818,20.985865,1,0,0,1036,1,-1550
1819,20.9975,1,-1,1,1032,0,-1554
1820,21.009145,0,0,0,1034,3,-1550
1821,21.020799,-1,0,0,1032,0,-1547
1822,21.032499,1,0,0,1033,3,-1546
1823,21.044151,0,0,1,1039,2,-1548
1824,21.055823,1,0,1,1034,6,-1543
1825,21.067486,0,-1,1,1034,2,-1550
1826,21.079162,0,0,0,1036,0,-1539
1827,21.090874,0,-1,2,1032,3,-1549
1828,21.102522,1,-1,1,1036,0,-1550
1829,21.114099,0,0,1,1033,2,-1552
1830,21.125648,0,-1,1,1031,-1,-1546
1831,21.137197,0,0,1,1035,0,-1549
1832,21.148772,1,-1,1,1036,2,-1553
1833,21.160333,0,0,1,1035,-1,-1542
1834,21.171924,0,0,1,1032,0,-1556
1835,21.183469,0,0,1,1033,2,-1543
1836,21.195068,-1,-1,1,1033,0,-1541
1837,21.206696,0,0,1,1035,1,-1545
1838,21.218387,-1,0,1,1030,3,-1544
1839,21.230062,0,0,0,1031,1,-1548
1840,21.241737,0,0,1,1035,0,-1548
1841,21.253393,1,0,1,1033,0,-1545
1842,21.265059,0,0,0,1029,0,-1548
1843,21.27673,1,1,1,1034,-1,-1545
1844,21.288386,0,0,0,1035,5,-1544
1845,21.30005,0,0,1,1034,0,-1550
1846,21.311731,0,-1,2,1034,-1,-1546
1847,21.323307,0,0,1,1037,0,-1550
1848,21.334863,0,1,2,1030,0,-1549
1849,21.346441,0,0,1,1030,0,-1543
1850,21.357969,0,0,0,1031,1,-1548
1851,21.369554,0,0,0,1039,0,-1545
1852,21.381111,0,-1,1,1032,2,-1553
1853,21.392679,0,-1,1,1032,1,-1550
1854,21.404259,1,0,1,1037,2,-1545
1855,21.415884,0,-1,0,1037,-2,-1545
1856,21.427537,0,-1,1,1036,1,-1547
1857,21.43919,0,0,1,1035,0,-1544
1858,21.450903,0,0,1,1035,0,-1542
1859,21.46256,0,-1,1,1037,3,-1545
1860,21.474242,0,0,0,1031,0,-1542
1861,21.485901,0,0,0,1034,4,-1547
1862,21.497544,0,-1,1,1037,-3,-1548
1863,21.509185,0,0,2,1034,1,-1549
1864,21.520756,0,0,2,1033,-2,-1554
1865,21.532314,1,0,1,1034,-1,-1544
1866,21.54386,1,0,1,1035,0,-1550
1867,21.555427,0,0,1,1032,3,-1552
1868,21.566979,1,0,0,1030,5,-1545
1869,21.578571,0,0,0,1036,-1,-1546
1870,21.590126,-1,0,1,1032,0,-1543
1871,21.601671,0,0,0,1034,0,-1547
1872,21.613234,-1,0,1,1036,-1,-1542
1873,21.624866,0,0,1,1036,2,-1547
1874,21.636517,0,-1,1,1035,-2,-1547
1875,21.64817,1,0,0,1033,8,-1547
1876,21.659847,0,0,1,1034,0,-1544
1877,21.671497,0,0,1,1033,1,-1550
1878,21.68316,0,-1,1,1036,0,-1542
1879,21.69484,0,0,1,1038,-2,-1547
1880,21.706509,0,0,1,1037,1,-1541
1881,21.718181,0,0,1,1035,1,-1549
1882,21.729856,0,0,0,1034,-1,-1545
1883,21.741433,-1,0,1,1034,1,-1544
1884,21.752989,0,0,0,1035,2,-1540
1885,21.764556,1,0,0,1035,2,-1550
1886,21.776125,1,0,2,1030,0,-1545
1887,21.787683,1,-1,0,1034,3,-1539
1888,21.799229,0,0,0,1035,0,-1546
1889,21.810809,0,0,1,1030,1,-1550
1890,21.822408,0,0,1,1034,-1,-1550
1891,21.834052,0,0,1,1037,1,-1543
1892,21.845739,0,-1,1,1034,4,-1544
1893,21.85739,0,0,1,1034,2,-1547
1894,21.869051,0,0,1,1032,0,-1544
1895,21.880707,1,-1,1,1036,-2,-1543
1896,21.892368,1,-1,1,1033,4,-1544
1897,21.904024,0,0,1,1035,3,-1547
1898,21.915676,0,0,1,1029,5,-1544
1899,21.927339,0,0,1,1032,1,-1548
1900,21.938997,0,0,1,1034,1,-1548
1901,21.950581,0,0,1,1035,3,-1539
1902,21.962146,0,0,0,1031,0,-1549
1903,21.973721,1,0,1,1033,0,-1545
1904,21.985301,0,-1,0,1036,1,-1550
1905,21.996857,0,0,0,1031,1,-1544
1906,22.00843,0,1,0,1032,0,-1548
1907,22.019974,1,0,1,1035,3,-1543
1908,22.031533,1,0,1,1032,4,-1550
1909,22.043197,0,1,0,1036,3,-1550
1910,22.054896,1,-1,1,1036,2,-1543
1911,22.066562,0,-1,0,1032,0,-1546
1912,22.078256,1,0,0,1031,2,-1547
1913,22.089911,0,0,1,1034,0,-1549
1914,22.101582,0,-1,1,1034,1,-1548
1915,22.113255,0,-1,1,1034,0,-1556
1916,22.124926,1,0,1,1034,-1,-1544
1917,22.136624,0,0,1,1035,-2,-1547
1918,22.148361,-1,1,1,1034,5,-1545
1919,22.159935,0,0,0,1034,4,-1548
1920,22.171487,1,-1,0,1033,2,-1541
1921,22.183061,0,1,1,1041,2,-1548
1922,22.194638,1,1,1,1035,-2,-1548
1923,22.206208,0,0,1,1033,0,-1543
1924,22.217792,1,0,0,1038,0,-1543
1925,22.229346,0,0,1,1031,5,-1547
1926,22.240931,0,0,1,1035,0,-1552
1927,22.252556,1,0,1,1035,0,-1548
1928,22.264239,0,0,1,1033,5,-1552
1929,22.2759,0,0,1,1035,6,-1548
1930,22.287571,0,0,1,1032,0,-1552
1931,22.299262,-1,0,2,1030,3,-1540
1932,22.310926,0,0,1,1033,2,-1543
1933,22.322628,1,-1,1,1031,0,-1541
1934,22.334252,0,0,0,1039,0,-1548
1935,22.345925,0,0,1,1035,1,-1544
1936,22.357618,0,-1,1,1038,0,-1543
1937,22.369181,0,-1,1,1034,1,-1546
1938,22.380732,1,0,2,1031,2,-1546
1939,22.392303,0,0,1,1037,0,-1543
1940,22.40393,0,0,1,1032,-2,-1546
1941,22.415509,0,0,1,1033,2,-1544
1942,22.427064,1,0,1,1032,-2,-1547
1943,22.438645,0,1,1,1030,-2,-1548
1944,22.450222,0,0,1,1030,1,-1543
1945,22.46187,1,0,1,1035,3,-1544
1946,22.473524,1,0,2,1034,-2,-1544
1947,22.485179,0,1,1,1028,0,-1547
1948,22.496852,1,0,1,1030,0,-1545
1949,22.508503,1,0,0,1032,5,-1551
1950,22.520206,0,0,1,1032,1,-1544
1951,22.531864,1,1,1,1032,-2,-1551
1952,22.543506,0,0,1,1033,-1,-1543
1953,22.555186,0,0,1,1029,4,-1547
1954,22.566891,0,0,1,1034,-4,-1549
1955,22.578459,1,0,1,1033,-1,-1544
1956,22.590047,0,0,0,1036,0,-1541
1957,22.601598,1,0,1,1033,1,-1549
1958,22.613145,1,1,1,1037,-1,-1542
1959,22.624696,0,1,1,1037,1,-1545
1960,22.636265,1,0,1,1034,3,-1546
1961,22.647816,0,0,1,1034,0,-1549
1962,22.659376,0,0,1,1036,1,-1546
1963,22.671004,1,1,1,1035,2,-1545
1964,22.682661,0,0,1,1034,-1,-1540
1965,22.694343,0,0,1,1035,0,-1543
1966,22.705998,0,0,1,1035,1,-1553
1967,22.717643,0,0,1,1031,8,-1548
1968,22.72929,1,0,1,1031,4,-1548
1969,22.740965,1,-1,0,1036,2,-1544
1970,22.752605,0,0,1,1032,0,-1543
1971,22.764268,1,1,1,1037,2,-1545
1972,22.775934,1,0,0,1032,3,-1545
1973,22.787491,0,0,1,1037,0,-1548
1974,22.799065,0,0,1,1037,0,-1549
1975,22.810625,0,0,1,1034,-2,-1550
1976,22.822207,0,0,1,1034,-5,-1546
1977,22.833795,0,0,0,1033,0,-1548
1978,22.845353,1,0,1,1030,2,-1543
1979,22.856922,1,0,2,1035,0,-1545
1980,22.868478,0,0,2,1035,-2,-1539
1981,22.880109,0,0,1,1029,2,-1550
1982,22.8918,0,0,1,1034,2,-1548
1983,22.903471,0,0,2,1033,4,-1549
1984,22.915163,0,-1,0,1033,0,-1542
1985,22.926849,1,0,1,1032,-1,-1551
1986,22.938538,0,0,2,1037,3,-1548
1987,22.950231,0,0,1,1034,1,-1544
1988,22.961894,-1,1,1,1033,3,-1549
1989,22.973533,0,0,1,1036,0,-1546
1990,22.98519,0,0,1,1036,4,-1547
1991,22.996854,0,0,1,1032,1,-1547
1992,23.008501,0,0,1,1034,2,-1543
1993,23.020153,0,-1,0,1033,3,-1544
1994,23.031826,1,0,1,1032,2,-1541
1995,23.043489,0,-1,0,1033,-1,-1547
1996,23.05517,0,1,1,1031,0,-1550
1997,23.066846,0,0,1,1034,0,-1546
1998,23.078528,0,0,1,1035,1,-1550
1999,23.090226,0,0,1,1033,2,-1542
