sample,t_s,gyro_x,gyro_y,gyro_z,accel_x,accel_y,accel_z
0,1.1e-05,140,160,195,-4,54,-1024
1,0.011416,140,160,194,0,55,-1021
2,0.022626,140,160,195,-2,52,-1021
3,0.033809,140,160,195,-1,54,-1013
4,0.04502,140,160,195,-3,54,-1014
5,0.056224,140,160,194,0,51,-1018
6,0.067415,140,160,195,-3,56,-1023
7,0.078599,140,160,195,0,54,-1017
8,0.089782,140,160,195,0,46,-1021
9,0.100987,140,160,195,0,55,-1023
10,0.112172,140,160,195,1,50,-1024
11,0.123352,140,160,195,0,50,-1017
12,0.134538,140,160,195,1,52,-1022
13,0.14572,140,160,195,-4,50,-1027
14,0.156875,140,160,195,0,50,-1023
15,0.168061,140,160,195,-4,52,-1019
16,0.179241,140,160,195,-3,53,-1024
17,0.190423,140,160,195,-5,49,-1022
18,0.201604,140,160,195,2,52,-1029
19,0.212799,140,160,195,1,52,-1017
20,0.223981,140,160,195,-4,51,-1022
21,0.235162,140,160,195,0,52,-1024
22,0.246341,140,160,195,-3,52,-1024
23,0.257545,140,160,195,-2,54,-1023
24,0.268693,140,160,195,0,53,-1020
25,0.279876,140,160,195,-4,52,-1020
26,0.291063,140,160,195,2,55,-1019
27,0.302247,140,160,195,-1,51,-1015
28,0.313426,140,160,195,0,51,-1024
29,0.324617,140,160,195,2,51,-1022
30,0.335796,140,160,195,-2,53,-1021
31,0.346974,140,160,194,1,48,-1020
32,0.358156,140,160,195,-3,51,-1020
33,0.369353,140,160,195,0,54,-1022
34,0.38051,140,160,195,1,51,-1021
35,0.391694,140,160,194,-6,53,-1016
36,0.402897,140,160,195,-1,50,-1021
37,0.414082,140,160,195,-2,52,-1026
38,0.425249,140,160,195,0,57,-1022
39,0.436435,140,160,195,-2,53,-1020
40,0.447615,140,160,194,-1,51,-1019
41,0.458797,140,160,194,-1,49,-1021
42,0.469978,140,160,194,-1,51,-1028
43,0.481166,140,160,194,-3,52,-1025
44,0.492323,140,160,195,0,50,-1016
45,0.503506,140,160,194,-3,54,-1019
46,0.514694,140,160,195,0,58,-1023
47,0.525876,140,160,195,-2,56,-1021
48,0.537061,140,160,195,-1,52,-1027
49,0.548241,140,160,195,2,49,-1025
50,0.559422,140,160,195,0,55,-1017
51,0.570602,140,160,195,0,49,-1026
52,0.581781,140,160,195,-4,49,-1018
53,0.592967,140,160,195,0,51,-1021
54,0.604149,140,160,195,1,51,-1018
55,0.615336,140,160,195,0,51,-1021
56,0.626518,140,160,195,3,52,-1021
57,0.637702,140,160,195,-1,49,-1029
58,0.648878,140,160,195,3,53,-1017
59,0.660062,140,160,194,-1,49,-1015
60,0.671246,140,160,195,-1,54,-1023
61,0.682426,140,160,195,-4,54,-1017
62,0.693607,140,160,195,2,49,-1021
63,0.704801,140,160,195,1,53,-1029
64,0.715983,140,160,195,0,50,-1015
65,0.727171,140,160,195,-4,57,-1018
66,0.738351,140,160,195,-1,50,-1024
67,0.74953,140,160,195,1,50,-1024
68,0.760707,140,160,195,0,52,-1027
69,0.771889,140,160,194,1,48,-1021
70,0.783075,140,160,194,-3,56,-1035
71,0.794259,140,160,194,1,48,-1022
72,0.805443,140,160,195,-6,54,-1019
73,0.816629,140,160,195,-4,51,-1021
74,0.827811,140,160,195,-3,52,-1022
75,0.838992,140,160,195,-2,51,-1023
76,0.850175,140,160,195,0,48,-1014
77,0.861364,140,160,195,0,53,-1029
78,0.87251,140,160,195,-1,55,-1018
79,0.88369,140,160,195,1,56,-1023
80,0.894876,140,160,195,-2,53,-1025
81,0.906062,140,160,195,0,50,-1021
82,0.917248,140,160,195,-4,50,-1024
83,0.92844,140,160,194,-3,50,-1020
84,0.939622,140,160,195,-2,53,-1018
85,0.950802,140,160,195,-6,51,-1029
86,0.961998,140,160,195,-3,55,-1021
87,0.973188,140,160,195,0,51,-1015
88,0.984373,140,160,195,-2,53,-1018
89,0.995557,140,160,195,1,54,-1022
90,1.006737,140,160,195,-2,55,-1015
91,1.017922,140,160,195,3,54,-1018
92,1.029106,140,160,195,0,54,-1026
93,1.040297,140,160,195,0,55,-1018
94,1.05148,140,160,195,-5,51,-1023
95,1.062662,140,160,194,-1,57,-1022
96,1.073844,140,160,195,1,51,-1019
97,1.085031,140,160,195,0,51,-1022
98,1.096212,140,160,194,-1,55,-1019
99,1.107396,140,160,195,1,53,-1025
100,1.118598,140,160,194,1,53,-1021
101,1.129778,140,160,194,-1,49,-1026
102,1.140963,140,160,194,-1,55,-1016
103,1.152146,140,160,194,0,56,-1025
104,1.163327,140,160,194,1,49,-1023
105,1.174512,140,160,195,-1,51,-1021
106,1.185699,140,160,194,-3,47,-1027
107,1.196878,140,160,195,-1,50,-1022
108,1.208062,140,160,195,-1,52,-1025
109,1.219245,140,160,195,3,53,-1018
110,1.23043,140,160,195,3,50,-1017
111,1.24161,140,160,195,0,52,-1024
112,1.252801,140,160,195,-3,56,-1022
113,1.263984,140,160,195,-1,51,-1021
114,1.275162,140,160,195,0,54,-1020
115,1.286344,140,160,194,0,54,-1026
116,1.297524,140,160,194,0,49,-1021
117,1.308692,140,160,195,-3,49,-1025
118,1.319875,140,160,195,1,53,-1022
119,1.331059,140,160,195,-1,52,-1019
120,1.342255,140,160,194,0,54,-1018
121,1.353439,140,160,195,0,55,-1017
122,1.364627,140,160,195,0,56,-1020
123,1.375809,140,160,195,0,51,-1022
124,1.386991,140,160,195,-2,53,-1023
125,1.398174,140,160,194,-1,50,-1026
126,1.409356,140,160,194,-3,48,-1019
127,1.420513,140,160,195,2,52,-1017
128,1.431703,140,160,195,0,52,-1023
129,1.442889,140,160,195,-2,48,-1021
130,1.454073,140,160,195,0,53,-1024
131,1.465248,140,160,195,0,53,-1018
132,1.476464,140,160,195,-3,57,-1023
133,1.487648,140,160,194,-3,52,-1018
134,1.498828,140,160,195,0,51,-1024
135,1.510014,140,160,195,-1,57,-1024
136,1.521201,140,160,195,0,49,-1021
137,1.532387,140,160,195,3,51,-1028
138,1.543575,140,160,194,-2,51,-1025
139,1.554755,140,160,195,-1,53,-1024
140,1.565938,140,160,194,0,53,-1023
141,1.577123,140,160,195,0,55,-1024
142,1.58832,140,160,195,0,51,-1023
143,1.599505,140,160,195,-1,51,-1021
144,1.610688,140,160,195,-2,53,-1027
145,1.62187,140,160,194,1,49,-1027
146,1.633063,140,160,195,-1,50,-1025
147,1.644248,140,160,195,0,49,-1020
148,1.655431,140,160,195,-1,51,-1022
149,1.66663,140,160,195,1,50,-1023
150,1.677813,140,160,194,-1,51,-1028
151,1.689002,140,160,194,1,51,-1018
152,1.700199,140,160,195,0,53,-1026
153,1.71138,140,160,195,0,55,-1022
154,1.72257,140,160,195,-1,50,-1018
155,1.733751,140,160,195,-2,49,-1021
156,1.744943,140,160,195,1,52,-1023
157,1.756124,140,160,194,-1,52,-1025
158,1.767307,140,160,195,-2,55,-1021
159,1.77849,140,160,195,-6,50,-1025
160,1.789673,140,160,194,0,52,-1023
161,1.800878,140,160,195,-1,54,-1028
162,1.812065,140,160,195,-1,52,-1021
163,1.823249,140,160,195,0,52,-1019
164,1.834442,140,160,194,0,51,-1018
165,1.845624,140,160,195,-2,51,-1016
166,1.856813,140,160,195,-1,50,-1024
167,1.867997,140,160,194,0,51,-1027
168,1.879231,140,160,194,-3,47,-1023
169,1.890526,140,160,195,0,52,-1023
170,1.901719,140,160,195,4,50,-1024
171,1.912884,140,160,195,2,51,-1029
172,1.924072,140,160,194,0,52,-1022
173,1.93526,140,160,195,-4,51,-1030
174,1.946449,140,160,195,0,51,-1023
175,1.957633,140,160,195,-4,50,-1022
176,1.968827,140,160,195,-2,54,-1028
177,1.980016,140,160,195,-2,51,-1025
178,1.9912,140,160,195,-3,49,-1019
179,2.002389,140,160,195,-2,53,-1019
180,2.013574,140,160,195,-1,50,-1024
181,2.024761,140,160,195,-1,54,-1027
182,2.035945,140,160,195,-1,54,-1021
183,2.047131,140,160,195,-3,56,-1024
184,2.058322,140,160,194,-4,53,-1023
185,2.069504,140,160,194,0,51,-1017
186,2.080699,140,160,195,-2,49,-1028
187,2.091879,140,160,195,0,56,-1023
188,2.103061,140,160,195,-2,51,-1021
189,2.114246,140,160,195,0,52,-1020
190,2.125433,140,160,194,-4,55,-1019
191,2.136621,140,160,194,-3,49,-1028
192,2.147808,140,160,195,0,51,-1021
193,2.158994,140,160,194,-2,50,-1019
194,2.170183,140,160,194,2,54,-1019
195,2.181369,140,160,194,2,52,-1024
196,2.192585,140,160,194,6,47,-1019
197,2.203768,140,160,194,0,54,-1021
198,2.214947,140,160,195,0,54,-1016
199,2.226131,140,160,194,-3,55,-1022
200,2.237321,140,160,194,-3,53,-1027
201,2.248503,140,160,195,-2,52,-1023
202,2.25969,140,160,195,2,56,-1019
203,2.270873,140,160,195,-1,54,-1024
204,2.282064,140,160,195,-4,51,-1023
205,2.293246,140,160,195,-3,49,-1018
206,2.304441,140,160,195,-2,51,-1020
207,2.315625,140,160,195,-3,56,-1017
208,2.326813,140,160,195,0,52,-1025
209,2.337995,140,160,194,-2,49,-1017
210,2.349177,140,160,194,2,47,-1022
211,2.360322,140,160,195,1,49,-1027
212,2.371514,140,160,194,-1,49,-1024
213,2.382696,140,160,195,-1,49,-1023
214,2.393876,140,160,195,-1,53,-1018
215,2.405061,140,160,194,0,51,-1020
216,2.416243,140,160,195,1,56,-1019
217,2.427424,140,160,194,-1,52,-1020
218,2.438603,140,160,194,0,52,-1022
219,2.449783,140,160,195,3,48,-1022
220,2.460962,140,160,194,-2,50,-1018
221,2.472141,140,160,195,3,51,-1017
222,2.483321,140,160,194,0,53,-1018
223,2.494502,140,160,194,4,52,-1026
224,2.505686,140,160,194,0,49,-1021
225,2.516874,140,160,195,-4,54,-1019
226,2.528062,140,160,194,-1,50,-1021
227,2.539247,140,160,194,0,55,-1021
228,2.550449,140,160,195,2,55,-1023
229,2.56163,140,160,194,2,54,-1023
230,2.572817,140,160,195,0,49,-1024
231,2.584,140,160,194,-1,49,-1022
232,2.595185,140,160,194,0,51,-1017
233,2.606369,140,160,195,1,51,-1025
234,2.617553,140,160,195,0,53,-1017
235,2.628739,140,160,194,-1,54,-1028
236,2.639921,140,160,195,0,56,-1020
237,2.651105,140,160,194,-1,55,-1026
238,2.662284,140,160,195,0,49,-1023
239,2.673463,140,160,195,0,52,-1023
240,2.684647,140,160,194,-3,49,-1020
241,2.695827,140,160,195,-2,51,-1017
242,2.707007,140,160,194,1,51,-1023
243,2.718188,140,160,194,1,51,-1025
244,2.729373,140,160,194,-1,54,-1021
245,2.740558,140,160,195,-2,54,-1019
246,2.751738,140,160,194,0,52,-1021
247,2.762923,140,160,194,-2,52,-1022
248,2.774109,140,160,195,1,50,-1024
249,2.785294,140,160,195,-3,48,-1028
250,2.796479,140,160,195,0,55,-1018
251,2.807657,140,160,195,-3,47,-1024
252,2.818837,140,160,195,0,54,-1021
253,2.830019,140,160,195,-2,51,-1022
254,2.841201,140,160,194,2,53,-1023
255,2.852382,140,160,195,-1,52,-1019
256,2.863561,140,160,194,3,53,-1024
257,2.874745,140,160,195,-2,51,-1027
258,2.885927,140,160,195,1,53,-1024
259,2.897114,140,160,195,1,57,-1021
260,2.908327,140,160,195,0,49,-1025
261,2.919508,140,160,194,0,52,-1017
262,2.930692,140,160,195,-2,52,-1021
263,2.941872,140,160,195,-2,50,-1025
264,2.953059,140,160,195,-13,52,-1019
265,2.96424,140,160,194,-1,52,-1019
266,2.975419,140,160,195,0,56,-1027
267,2.986603,140,160,194,2,51,-1019
268,2.99778,140,160,194,-2,51,-1021
269,3.008991,140,160,195,0,52,-1016
270,3.020185,140,160,194,0,52,-1022
271,3.031371,140,160,194,0,54,-1023
272,3.042559,140,160,195,-2,52,-1030
273,3.053743,140,160,194,-2,50,-1029
274,3.064935,140,160,195,0,55,-1020
275,3.076122,140,160,195,-2,56,-1018
276,3.087307,140,160,195,2,52,-1020
277,3.098489,140,160,195,0,54,-1025
278,3.109669,140,160,195,-4,50,-1024
279,3.120867,140,160,195,-3,51,-1016
280,3.132049,140,160,195,-3,55,-1030
281,3.143232,140,160,195,-2,57,-1036
282,3.154417,140,160,195,-3,51,-1024
283,3.165601,140,160,195,0,53,-1023
284,3.17678,140,160,194,-2,56,-1018
285,3.187961,140,160,194,0,52,-1021
286,3.19914,140,160,194,0,53,-1019
287,3.210318,140,160,195,-4,52,-1023
288,3.221497,140,160,194,-1,54,-1023
289,3.232691,140,160,195,3,53,-1029
290,3.243869,140,160,195,-3,55,-1024
291,3.255062,140,160,194,-1,52,-1012
292,3.266246,140,160,195,-1,49,-1027
293,3.277426,140,160,195,1,50,-1018
294,3.288621,140,160,194,2,52,-1022
295,3.299802,140,160,195,1,50,-1029
296,3.310989,140,160,195,-1,52,-1020
297,3.322172,140,160,195,-2,50,-1023
298,3.33336,140,160,194,-3,54,-1022
299,3.344508,140,160,195,-2,52,-1021
300,3.355688,140,160,194,-1,53,-1027
301,3.366867,140,160,194,0,50,-1023
302,3.378047,140,160,195,-4,53,-1020
303,3.389242,140,160,195,0,52,-1015
304,3.400433,140,160,195,-2,54,-1018
305,3.411617,140,160,195,-1,50,-1025
306,3.422805,140,160,194,0,51,-1029
307,3.433986,140,160,195,-3,53,-1020
308,3.44518,140,160,195,-3,51,-1020
309,3.456334,140,160,195,0,56,-1027
310,3.467515,140,160,195,1,52,-1023
311,3.478694,140,160,195,1,51,-1018
312,3.489883,140,160,194,0,51,-1017
313,3.50106,140,160,194,0,49,-1019
314,3.512242,140,160,194,3,47,-1021
315,3.523424,140,160,194,-2,48,-1026
316,3.534607,140,160,195,-1,55,-1025
317,3.545788,140,160,195,0,51,-1021
318,3.556987,140,160,194,-3,53,-1023
319,3.568174,140,160,194,-4,52,-1021
320,3.579356,140,160,194,-1,55,-1018
321,3.590545,140,160,194,1,54,-1023
322,3.601728,140,160,194,-2,55,-1019
323,3.612884,140,160,194,0,52,-1023
324,3.624063,140,160,195,0,56,-1021
325,3.63524,140,160,195,2,49,-1023
326,3.646422,140,160,195,-3,52,-1021
327,3.657604,140,160,195,0,49,-1023
328,3.668799,140,160,195,-3,48,-1024
329,3.679982,140,160,195,2,51,-1025
330,3.691162,140,160,194,-3,53,-1011
331,3.702343,140,160,194,-2,54,-1014
332,3.713524,140,160,194,1,54,-1020
333,3.724692,140,160,195,-7,53,-1016
334,3.735871,140,160,194,0,54,-1018
335,3.747053,140,160,195,2,54,-1022
336,3.758232,140,160,194,0,50,-1025
337,3.769428,140,160,195,-1,52,-1019
338,3.78062,140,160,195,-1,53,-1026
339,3.791798,140,160,194,0,50,-1020
340,3.802985,140,160,194,2,50,-1017
341,3.814173,140,160,194,-2,50,-1025
342,3.825356,140,160,195,-2,53,-1022
343,3.836507,140,160,195,0,55,-1022
344,3.847686,140,160,194,-1,54,-1021
345,3.858869,140,160,195,-2,52,-1017
346,3.870053,140,160,195,1,56,-1019
347,3.881248,140,160,195,0,47,-1019
348,3.892441,140,160,194,-1,51,-1029
349,3.903624,140,160,194,0,53,-1023
350,3.914804,140,160,195,6,49,-1017
351,3.925991,140,160,194,-1,55,-1021
352,3.937183,140,160,195,0,55,-1026
353,3.94837,140,160,194,-1,52,-1017
354,3.959565,140,160,194,-2,49,-1022
355,3.970751,140,160,195,-2,54,-1020
356,3.981934,140,160,195,-2,54,-1017
357,3.993118,140,160,195,-1,53,-1024
358,4.004301,140,160,195,-4,51,-1021
359,4.015485,140,160,195,2,53,-1022
360,4.026668,140,160,195,0,50,-1024
361,4.037851,140,160,194,-2,48,-1024
362,4.049044,140,160,194,-1,54,-1020
363,4.060238,140,160,194,-3,48,-1019
364,4.071425,140,160,195,-3,52,-1025
365,4.082615,140,160,195,-4,48,-1025
366,4.093805,140,160,195,-2,54,-1016
367,4.105039,140,160,194,0,49,-1021
368,4.116232,140,160,195,2,48,-1023
369,4.12742,140,160,195,-4,53,-1021
370,4.138609,140,160,195,-1,51,-1020
371,4.1498,140,160,195,0,51,-1020
372,4.160996,140,160,195,0,54,-1018
373,4.172181,140,160,194,4,54,-1021
374,4.183362,140,160,195,0,56,-1024
375,4.194554,140,160,194,0,49,-1023
376,4.205734,140,160,194,-1,56,-1020
377,4.216925,140,160,195,-2,53,-1027
378,4.228107,140,160,194,0,51,-1024
379,4.23929,140,160,194,-1,53,-1025
380,4.250469,140,160,195,-4,52,-1018
381,4.261648,140,160,195,-1,54,-1027
382,4.272832,140,160,195,2,48,-1024
383,4.284012,140,160,195,0,51,-1022
384,4.295191,140,160,194,0,55,-1029
385,4.306371,140,160,195,-1,51,-1015
386,4.317551,140,160,194,1,53,-1023
387,4.328759,140,160,195,0,51,-1025
388,4.339942,140,160,194,1,53,-1020
389,4.351123,140,160,194,0,56,-1021
390,4.362306,140,160,195,-3,52,-1022
391,4.37349,140,160,194,0,54,-1016
392,4.384688,140,160,195,1,50,-1014
393,4.395875,140,160,194,-3,53,-1021
394,4.407056,140,160,195,-5,53,-1022
395,4.418246,140,160,195,3,54,-1019
396,4.42944,140,160,195,-4,50,-1020
397,4.440629,140,160,195,-4,53,-1023
398,4.451812,140,160,195,-2,55,-1019
399,4.462992,140,160,195,-5,56,-1016
400,4.474176,140,160,194,1,54,-1026
401,4.485366,140,160,195,-2,55,-1022
402,4.496587,140,160,195,0,52,-1020
403,4.507895,140,160,194,-1,57,-1015
404,4.519566,140,160,195,2,53,-1023
405,4.53122,140,160,194,-4,53,-1023
406,4.542883,140,160,195,0,52,-1021
407,4.554528,140,160,194,-2,52,-1024
408,4.566186,140,160,194,-4,55,-1021
409,4.577838,140,160,195,-3,52,-1019
410,4.589511,140,160,195,-4,51,-1018
411,4.60121,140,160,194,-3,51,-1026
412,4.612897,140,160,195,0,53,-1031
413,4.624553,140,160,194,-2,50,-1018
414,4.636198,140,160,195,-4,56,-1018
415,4.647851,140,160,195,-5,54,-1021
416,4.659491,140,160,195,-2,48,-1025
417,4.671138,140,160,194,-2,50,-1022
418,4.682822,140,160,195,1,53,-1022
419,4.694498,140,160,194,-2,50,-1025
420,4.706277,140,160,195,-1,49,-1024
421,4.717935,140,160,194,-4,53,-1014
422,4.729484,140,160,195,0,53,-1018
423,4.741031,140,160,195,1,50,-1029
424,4.752591,140,160,195,1,52,-1022
425,4.764148,140,160,195,-2,54,-1013
426,4.775716,140,160,195,-2,49,-1022
427,4.787267,140,160,195,-2,54,-1016
428,4.798814,140,160,195,2,52,-1016
429,4.810396,140,160,194,3,57,-1024
430,4.822019,140,160,194,-3,53,-1019
431,4.833675,140,160,194,-2,50,-1023
432,4.845332,140,160,194,2,51,-1019
433,4.857024,140,160,195,-1,48,-1020
434,4.868688,140,160,195,-1,48,-1025
435,4.880357,140,160,194,-3,49,-1022
436,4.892047,140,160,194,-5,47,-1023
437,4.903692,140,160,194,-5,50,-1019
438,4.915352,140,160,195,-4,53,-1022
439,4.927048,140,160,195,0,53,-1025
440,4.938614,140,160,195,-3,52,-1021
441,4.950159,140,160,195,-1,53,-1022
442,4.961705,140,160,194,-1,51,-1022
443,4.973256,140,160,195,2,53,-1021
444,4.984828,140,160,194,-1,54,-1020
445,4.996362,140,160,195,3,53,-1021
446,5.007905,140,160,195,-1,54,-1027
447,5.019503,140,160,195,1,55,-1016
448,5.03113,140,160,195,-4,51,-1028
449,5.042817,140,160,194,2,53,-1023
450,5.054453,140,160,194,0,49,-1020
451,5.066122,140,160,195,1,49,-1025
452,5.077794,140,160,195,-3,50,-1026
453,5.089457,140,160,195,0,52,-1023
454,5.101151,140,160,195,-4,54,-1017
455,5.112801,140,160,194,1,52,-1025
456,5.124446,140,160,195,-1,54,-1022
457,5.136009,140,160,194,-1,52,-1014
458,5.147549,140,160,194,0,54,-1022
459,5.159106,140,160,194,2,52,-1022
460,5.170648,140,160,194,0,49,-1017
461,5.182212,140,160,195,3,53,-1023
462,5.193784,140,160,195,2,48,-1026
463,5.205326,140,160,195,-2,55,-1023
464,5.216882,140,160,195,1,52,-1025
465,5.228445,140,160,195,-3,50,-1022
466,5.240065,140,160,195,-2,52,-1019
467,5.251712,140,160,194,-4,52,-1025
468,5.263365,140,160,195,0,54,-1022
469,5.27501,140,160,194,-2,50,-1015
470,5.286682,140,160,195,-1,51,-1025
471,5.298331,140,160,195,-2,54,-1026
472,5.309967,140,160,195,2,50,-1019
473,5.321641,140,160,194,-2,52,-1023
474,5.333342,140,160,194,-2,53,-1024
475,5.345007,140,160,194,-1,54,-1022
476,5.356683,140,160,195,0,53,-1019
477,5.368357,140,160,195,-4,52,-1021
478,5.380001,140,160,195,2,49,-1023
479,5.391644,140,160,195,-2,53,-1026
480,5.403325,140,160,195,1,57,-1035
481,5.41496,140,160,194,0,52,-1023
482,5.426654,140,160,194,3,49,-1017
483,5.438356,140,160,195,-3,53,-1017
484,5.450004,140,160,194,-1,51,-1027
485,5.461658,140,160,195,3,51,-1021
486,5.47332,140,160,195,-1,51,-1025
487,5.485018,140,160,195,-4,54,-1021
488,5.496686,140,160,195,0,54,-1016
489,5.508362,140,160,195,-4,52,-1021
490,5.520041,140,160,195,0,55,-1025
491,5.531677,140,160,195,-1,52,-1020
492,5.543383,140,160,194,-1,50,-1024
493,5.555096,140,160,194,1,52,-1028
494,5.566657,140,160,194,0,49,-1019
495,5.578197,140,160,195,-4,50,-1021
496,5.589744,140,160,195,0,52,-1021
497,5.601314,140,160,194,1,51,-1035
498,5.612848,140,160,195,-1,50,-1024
499,5.624398,140,160,195,-2,53,-1013
500,5.635951,140,160,195,-1,53,-1024
501,5.647512,140,160,195,-2,51,-1021
502,5.659123,140,160,195,0,51,-1021
503,5.670789,140,160,194,1,52,-1022
504,5.682441,140,160,195,-3,55,-1022
505,5.694085,140,160,194,-3,51,-1022
506,5.705733,140,160,195,-4,51,-1024
507,5.717394,140,160,195,-4,52,-1023
508,5.729055,140,160,195,-3,55,-1026
509,5.740702,140,160,195,-3,56,-1028
510,5.752385,140,160,195,-2,53,-1021
511,5.764048,140,160,195,-1,53,-1024
512,5.775697,140,160,195,-1,54,-1028
513,5.787345,140,160,195,-3,51,-1016
514,5.798996,140,160,195,0,52,-1018
515,5.81068,140,160,194,-4,51,-1023
516,5.822321,140,160,194,-1,48,-1023
517,5.833969,140,160,194,-2,52,-1027
518,5.845631,140,160,194,-2,49,-1026
519,5.857315,140,160,195,1,53,-1017
520,5.868961,140,160,195,0,54,-1020
521,5.880627,140,160,195,0,51,-1017
522,5.892285,140,160,194,-2,52,-1027
523,5.903947,140,160,195,-2,55,-1019
524,5.915611,140,160,194,-2,52,-1023
525,5.927254,140,160,194,-1,54,-1028
526,5.938925,140,160,194,-2,50,-1019
527,5.950567,140,160,195,0,55,-1029
528,5.962221,140,160,195,-5,50,-1019
529,5.973924,140,160,195,0,50,-1016
530,5.985487,140,160,195,7,51,-1026
531,5.997056,140,160,194,-3,53,-1023
532,6.008602,140,160,194,-4,53,-1020
533,6.020146,140,160,195,0,54,-1021
534,6.031721,140,160,194,0,52,-1021
535,6.043266,140,160,194,-2,51,-1023
536,6.054814,140,160,194,-2,51,-1026
537,6.066386,140,160,194,0,52,-1021
538,6.078004,140,160,194,-5,51,-1019
539,6.089662,140,160,195,1,52,-1025
540,6.101322,140,160,195,0,52,-1022
541,6.113018,140,160,194,-1,53,-1018
542,6.124678,140,160,194,-1,48,-1022
543,6.136352,140,160,195,0,56,-1023
544,6.148037,140,160,195,-4,51,-1021
545,6.159693,140,160,194,-1,55,-1019
546,6.17138,140,160,194,-1,50,-1019
547,6.183045,140,160,195,-4,51,-1024
548,6.194619,140,160,195,-1,50,-1022
549,6.20617,140,160,194,-2,53,-1018
550,6.217744,140,160,195,2,50,-1024
551,6.229322,140,160,195,0,51,-1019
552,6.240843,140,160,194,0,47,-1020
553,6.252364,140,160,195,-1,55,-1023
554,6.26392,140,160,194,-3,55,-1026
555,6.275503,140,160,194,-3,56,-1025
556,6.287135,140,160,194,-5,48,-1025
557,6.298804,140,160,194,-3,53,-1029
558,6.310445,140,160,195,3,53,-1028
559,6.322091,140,160,195,0,53,-1022
560,6.333789,140,160,194,-1,55,-1015
561,6.345447,140,160,195,1,51,-1024
562,6.35712,140,160,195,-1,53,-1026
563,6.368813,140,160,195,-1,52,-1020
564,6.380489,140,160,194,0,54,-1021
565,6.392134,140,160,194,0,55,-1013
566,6.403703,140,160,195,1,49,-1021
567,6.415246,140,160,194,1,52,-1024
568,6.426793,140,160,195,-7,53,-1014
569,6.438364,140,160,195,0,51,-1025
570,6.449913,140,160,195,-2,55,-1020
571,6.461491,140,160,194,0,52,-1021
572,6.473059,140,160,194,0,51,-1024
573,6.48461,140,160,194,-5,52,-1021
574,6.496224,140,160,194,-1,51,-1024
575,6.507897,140,160,195,-1,55,-1023
576,6.519548,140,160,195,0,53,-1017
577,6.531197,140,160,195,-1,51,-1026
578,6.542871,140,160,195,-3,49,-1021
579,6.554534,140,160,195,0,53,-1016
580,6.566183,140,160,195,0,52,-1020
581,6.577838,140,160,195,2,52,-1024
582,6.589538,140,160,194,2,52,-1020
583,6.601197,140,160,194,-4,57,-1028
584,6.612886,140,160,194,-3,50,-1022
585,6.624542,140,160,194,-3,52,-1014
586,6.636194,140,160,195,0,49,-1021
587,6.647846,140,160,194,-1,52,-1022
588,6.659506,140,160,194,0,55,-1020
589,6.671168,140,160,195,-1,54,-1020
590,6.68281,140,160,194,-5,49,-1022
591,6.694468,140,160,195,-3,53,-1022
592,6.706125,140,160,194,-1,52,-1026
593,6.717792,140,160,195,0,51,-1022
594,6.729455,140,160,194,0,50,-1021
595,6.741133,140,160,194,2,52,-1013
596,6.752793,140,160,194,-2,48,-1020
597,6.764443,140,160,194,-2,55,-1021
598,6.776086,140,160,194,1,55,-1013
599,6.78774,140,160,194,0,54,-1021
600,6.799408,140,160,194,-2,55,-1025
601,6.811055,140,160,194,0,54,-1029
602,6.822703,140,160,194,2,50,-1021
603,6.834345,140,160,195,-1,46,-1025
604,6.845991,140,160,195,-6,50,-1024
605,6.857664,140,160,195,-2,49,-1022
606,6.869316,140,160,195,-5,54,-1021
607,6.880965,140,160,195,-1,51,-1021
608,6.892657,140,160,194,0,51,-1026
609,6.904333,140,160,194,0,51,-1025
610,6.916001,140,160,194,2,51,-1022
611,6.927672,140,160,195,-2,50,-1014
612,6.939316,140,160,194,-1,53,-1019
613,6.950959,140,160,195,-1,51,-1017
614,6.962613,140,160,195,-3,53,-1030
615,6.974276,140,160,195,0,49,-1018
616,6.985922,140,160,195,4,49,-1019
617,6.997573,140,160,195,-2,51,-1017
618,7.009262,140,160,194,3,49,-1022
619,7.020936,140,160,194,1,50,-1021
620,7.032501,140,160,194,-3,53,-1022
621,7.044041,140,160,195,-6,51,-1026
622,7.055584,140,160,195,1,51,-1026
623,7.067126,140,160,194,0,54,-1013
624,7.07869,140,160,195,0,51,-1023
625,7.090265,140,160,195,-4,51,-1025
626,7.101806,140,160,195,-1,49,-1030
627,7.113329,140,160,195,-1,49,-1021
628,7.124955,140,160,194,1,51,-1018
629,7.136619,140,160,195,-1,49,-1026
630,7.148275,140,160,195,0,48,-1027
631,7.159932,140,160,194,0,54,-1027
632,7.171575,140,160,195,-1,57,-1025
633,7.183221,140,160,194,0,51,-1022
634,7.194903,140,160,195,-3,53,-1022
635,7.206556,140,160,195,-1,51,-1020
636,7.218207,140,160,194,0,53,-1017
637,7.229921,140,160,194,-2,51,-1023
638,7.241494,140,160,195,0,53,-1025
639,7.253065,140,160,195,-4,52,-1021
640,7.264613,140,160,194,0,50,-1023
641,7.276158,140,160,195,2,52,-1021
642,7.287757,140,160,195,-1,53,-1015
643,7.299311,140,160,194,1,51,-1021
644,7.31086,140,160,195,0,53,-1017
645,7.322421,140,160,195,0,53,-1024
646,7.334036,140,160,195,-2,51,-1017
647,7.345671,140,160,194,0,54,-1015
648,7.357325,140,160,195,0,51,-1019
649,7.369006,140,160,194,2,50,-1023
650,7.380675,140,160,195,2,53,-1026
651,7.392371,140,160,195,-5,54,-1022
652,7.404027,140,160,195,-2,50,-1021
653,7.415676,140,160,195,0,50,-1026
654,7.427331,140,160,194,-3,52,-1025
655,7.438982,140,160,194,0,50,-1023
656,7.450649,140,160,194,-2,52,-1018
657,7.462296,140,160,195,-3,51,-1027
658,7.473942,140,160,194,-1,52,-1025
659,7.485609,140,160,194,1,51,-1025
660,7.497274,140,160,194,-1,53,-1024
661,7.50893,140,160,194,4,56,-1022
662,7.520597,140,160,194,0,54,-1017
663,7.532272,140,160,195,-1,55,-1021
664,7.543928,140,160,195,-1,53,-1016
665,7.555569,140,160,195,2,56,-1026
666,7.56721,140,160,195,0,54,-1021
667,7.57888,140,160,195,-1,53,-1024
668,7.590535,140,160,194,-4,51,-1021
669,7.602182,140,160,195,0,56,-1023
670,7.613835,140,160,195,-4,52,-1020
671,7.625521,140,160,195,4,48,-1022
672,7.63721,140,160,195,0,52,-1026
673,7.648892,140,160,195,-3,48,-1015
674,7.660566,140,160,195,0,53,-1017
675,7.672215,140,160,195,-2,51,-1021
676,7.683886,140,160,195,-1,53,-1021
677,7.695533,140,160,195,1,48,-1024
678,7.707181,140,160,195,0,50,-1018
679,7.718826,140,160,195,-2,51,-1025
680,7.730481,140,160,195,-4,46,-1024
681,7.742148,140,160,195,0,54,-1022
682,7.753805,140,160,195,-3,54,-1024
683,7.765352,140,160,195,-1,53,-1022
684,7.776902,140,160,195,0,51,-1019
685,7.788478,140,160,195,0,52,-1015
686,7.800027,140,160,195,0,50,-1025
687,7.8116,140,160,195,-2,55,-1017
688,7.823147,140,160,194,4,53,-1026
689,7.834726,140,160,195,3,51,-1022
690,7.846283,140,160,195,-1,54,-1023
691,7.857918,140,160,194,0,51,-1028
692,7.869595,140,160,195,-3,54,-1020
693,7.881524,140,160,194,-3,56,-1027
694,7.893342,140,160,195,0,52,-1025
695,7.905026,140,160,195,4,53,-1019
696,7.916692,140,160,195,6,54,-1024
697,7.928376,140,160,195,-3,49,-1026
698,7.940038,140,160,195,-2,50,-1021
699,7.951805,140,160,194,-1,49,-1019
700,7.963473,140,160,194,0,50,-1021
701,7.975066,140,160,195,1,52,-1019
702,7.986624,140,160,195,-2,50,-1024
703,7.998195,140,160,194,-4,54,-1026
704,8.009744,140,160,194,-3,49,-1024
705,8.021326,140,160,195,0,51,-1024
706,8.032924,140,160,195,3,53,-1023
707,8.044491,140,160,194,-1,57,-1027
708,8.056053,140,160,195,-4,50,-1014
709,8.067674,140,160,195,-1,57,-1022
710,8.079323,140,160,194,1,52,-1023
711,8.090971,140,160,195,0,51,-1016
712,8.102643,140,160,195,2,54,-1030
713,8.11429,140,160,195,0,50,-1024
714,8.125935,140,160,194,-2,51,-1014
715,8.137595,140,160,194,0,52,-1022
716,8.149275,140,160,194,-1,54,-1027
717,8.16095,140,160,195,2,55,-1014
718,8.17264,140,160,195,0,50,-1026
719,8.184206,140,160,194,0,49,-1019
720,8.195757,140,160,194,1,52,-1018
721,8.207324,140,160,195,0,53,-1020
722,8.218875,140,160,194,-1,49,-1020
723,8.230467,140,160,195,0,53,-1022
724,8.24202,140,160,194,-1,55,-1026
725,8.253594,140,160,194,-2,52,-1026
726,8.265153,140,160,195,0,50,-1025
727,8.276731,140,160,195,2,50,-1030
728,8.288281,140,160,195,1,50,-1022
729,8.299844,140,160,194,2,54,-1021
730,8.311381,140,160,194,2,50,-1020
731,8.32292,140,160,194,-2,53,-1022
732,8.334465,140,160,194,-1,51,-1024
733,8.346006,140,160,195,0,56,-1020
734,8.357563,140,160,194,0,54,-1022
735,8.369166,140,160,195,0,54,-1026
736,8.380873,140,160,195,-1,53,-1019
737,8.39255,140,160,194,2,52,-1021
738,8.404216,140,160,194,-2,51,-1020
739,8.415877,140,160,194,0,51,-1025
740,8.427545,140,160,195,0,55,-1027
741,8.439183,140,160,194,-1,56,-1017
742,8.450831,140,160,194,0,49,-1027
743,8.462529,140,160,195,0,51,-1021
744,8.474182,140,160,194,-1,56,-1023
745,8.485889,140,160,195,0,53,-1027
746,8.497479,140,160,194,0,53,-1018
747,8.509022,140,160,194,1,51,-1027
748,8.520591,140,160,195,0,50,-1022
749,8.532133,140,160,195,-3,52,-1017
750,8.543698,140,160,194,-6,47,-1022
751,8.555236,140,160,195,0,52,-1025
752,8.566773,140,160,195,-2,53,-1024
753,8.578326,140,160,194,-3,50,-1021
754,8.589937,140,160,195,0,50,-1020
755,8.601584,140,160,195,-3,48,-1021
756,8.61327,140,160,194,0,48,-1022
757,8.624926,140,160,195,-2,52,-1025
758,8.636594,140,160,195,1,49,-1022
759,8.648244,140,160,194,-4,51,-1018
760,8.65991,140,160,194,1,57,-1022
761,8.671705,140,160,195,-2,51,-1021
762,8.683394,140,160,195,-1,54,-1025
763,8.695055,140,160,195,2,52,-1022
764,8.706613,140,160,194,1,53,-1016
765,8.718155,140,160,195,-4,49,-1023
766,8.729702,140,160,195,3,47,-1019
767,8.741259,140,160,195,-2,51,-1020
768,8.752853,140,160,195,0,50,-1019
769,8.76441,140,160,194,0,48,-1019
770,8.775997,140,160,195,-3,49,-1023
771,8.787549,140,160,194,2,51,-1015
772,8.799172,140,160,195,-2,52,-1021
773,8.810827,140,160,194,-4,49,-1025
774,8.822499,140,160,195,-2,52,-1022
775,8.834151,140,160,195,-2,52,-1019
776,8.845811,140,160,195,0,46,-1020
777,8.857475,140,160,194,1,52,-1021
778,8.869145,140,160,195,-3,49,-1027
779,8.880798,140,160,195,2,56,-1028
780,8.892462,140,160,194,-1,53,-1021
781,8.904125,140,160,195,-2,54,-1025
782,8.915776,140,160,194,-1,54,-1019
783,8.927431,140,160,194,-6,52,-1022
784,8.939078,140,160,195,-4,52,-1020
785,8.950722,140,160,194,-3,52,-1016
786,8.962394,140,160,194,3,50,-1023
787,8.974043,140,160,194,0,52,-1022
788,8.985694,140,160,195,-1,50,-1023
789,8.997406,140,160,194,1,47,-1026
790,9.009062,140,160,194,-2,47,-1024
791,9.020604,140,160,194,0,50,-1018
792,9.032149,140,160,195,-5,53,-1020
793,9.043695,140,160,195,0,54,-1024
794,9.055233,140,160,194,-1,50,-1016
795,9.06677,140,160,194,-1,51,-1020
796,9.078318,140,160,194,0,51,-1019
797,9.089865,140,160,194,0,52,-1022
798,9.101483,140,160,194,2,54,-1027
799,9.113178,140,160,194,0,53,-1021
800,9.124869,140,160,195,-4,53,-1026
801,9.13655,140,160,195,0,51,-1020
802,9.148203,140,160,194,-2,51,-1019
803,9.159864,140,160,194,-1,52,-1025
804,9.171515,140,160,195,-3,50,-1026
805,9.183164,140,160,194,-2,50,-1020
806,9.194815,140,160,194,-3,49,-1019
807,9.206465,140,160,195,1,57,-1015
808,9.218133,140,160,195,-1,49,-1023
809,9.229814,140,160,194,3,52,-1027
810,9.241469,140,160,195,-1,52,-1016
811,9.253151,140,160,194,2,55,-1024
812,9.264801,140,160,195,0,52,-1018
813,9.276444,140,160,195,1,53,-1021
814,9.288113,140,160,195,-2,52,-1026
815,9.299768,140,160,195,3,52,-1018
816,9.311482,140,160,195,-1,54,-1016
817,9.323153,140,160,195,1,54,-1021
818,9.33473,140,160,194,-5,50,-1017
819,9.346286,140,160,194,0,50,-1027
820,9.357859,140,160,194,0,52,-1023
821,9.36944,140,160,195,-1,54,-1024
822,9.380999,140,160,195,-1,51,-1020
823,9.39259,140,160,195,0,49,-1025
824,9.404143,140,160,195,2,50,-1021
825,9.415717,140,160,195,1,55,-1023
826,9.427448,140,160,195,0,57,-1020
827,9.439106,140,160,194,4,53,-1027
828,9.450801,140,160,195,0,47,-1025
829,9.462537,140,160,195,2,54,-1025
830,9.474193,140,160,195,-1,54,-1024
831,9.485862,140,160,195,-3,52,-1025
832,9.497535,140,160,195,-3,50,-1024
833,9.509239,140,160,194,-5,53,-1014
834,9.520896,140,160,194,1,53,-1027
835,9.532612,140,160,194,0,55,-1018
836,9.544186,140,160,195,-3,52,-1028
837,9.555729,140,160,194,-2,53,-1028
838,9.567302,140,160,195,-5,49,-1021
839,9.578853,140,160,194,-3,54,-1025
840,9.590398,140,160,195,-1,48,-1026
841,9.601966,140,160,195,0,53,-1021
842,9.613509,140,160,195,2,53,-1019
843,9.625087,140,160,195,1,51,-1024
844,9.636707,140,160,194,-1,49,-1022
845,9.648371,140,160,195,0,55,-1017
846,9.660022,140,160,194,-5,50,-1024
847,9.671673,140,160,195,0,52,-1028
848,9.683315,140,160,195,0,50,-1030
849,9.694957,140,160,195,-1,53,-1022
850,9.706628,140,160,195,-1,51,-1028
851,9.718275,140,160,195,-2,54,-1018
852,9.729931,140,160,194,0,56,-1023
853,9.741594,140,160,195,-1,51,-1018
854,9.753168,140,160,195,-1,53,-1017
855,9.764737,140,160,194,-2,56,-1021
856,9.776281,140,160,195,-5,54,-1023
857,9.787828,140,160,194,-1,50,-1018
858,9.799374,140,160,194,-3,46,-1020
859,9.810928,140,160,195,-3,49,-1028
860,9.822477,140,160,195,-4,48,-1016
861,9.834035,140,160,194,-4,51,-1021
862,9.845667,140,160,194,-2,47,-1021
863,9.857325,140,160,195,-2,49,-1025
864,9.869011,140,160,195,-2,54,-1019
865,9.880692,140,160,194,-1,54,-1021
866,9.892357,140,160,194,-2,53,-1027
867,9.904014,140,160,194,-1,54,-1025
868,9.915674,140,160,195,-1,51,-1022
869,9.927319,140,160,195,-4,49,-1028
870,9.938983,140,160,195,-2,51,-1023
871,9.950655,140,160,194,-2,52,-1018
872,9.962221,140,160,194,-3,51,-1022
873,9.97379,140,160,195,-1,53,-1021
874,9.985321,140,160,194,1,57,-1018
875,9.996832,140,160,194,0,51,-1020
876,10.008358,140,160,194,-2,56,-1021
877,10.019901,140,160,195,0,53,-1023
878,10.031445,140,160,195,-3,53,-1021
879,10.043001,140,160,195,-2,49,-1023
880,10.054637,140,160,194,0,52,-1017
881,10.066282,140,160,194,0,51,-1018
882,10.077927,140,160,195,0,55,-1023
883,10.0896,140,160,195,0,53,-1016
884,10.101272,140,160,194,0,50,-1017
885,10.112927,140,160,195,3,54,-1022
886,10.124613,140,160,195,0,49,-1021
887,10.136268,140,160,195,0,55,-1026
888,10.14793,140,160,195,0,50,-1017
889,10.159599,140,160,195,2,50,-1024
890,10.171251,140,160,195,0,50,-1019
891,10.182901,140,160,194,2,48,-1014
892,10.194539,140,160,195,-4,49,-1024
893,10.206184,140,160,195,0,50,-1022
894,10.217824,140,160,195,-3,51,-1026
895,10.229474,140,160,194,-2,51,-1021
896,10.241128,140,160,195,-3,51,-1023
897,10.252832,140,160,195,0,53,-1023
898,10.264371,140,160,194,1,50,-1021
899,10.275972,140,160,195,-2,50,-1024
900,10.287522,140,160,195,-1,50,-1022
901,10.299087,140,160,194,0,52,-1021
902,10.310626,140,160,195,1,51,-1020
903,10.322162,140,160,195,-1,49,-1025
904,10.33372,140,160,195,-1,50,-1022
905,10.345334,140,160,194,2,53,-1025
906,10.356888,140,160,194,-2,56,-1026
907,10.368522,140,160,195,0,49,-1021
908,10.380163,140,160,195,0,48,-1021
909,10.391808,140,160,195,2,53,-1023
910,10.403483,140,160,195,-1,54,-1016
911,10.415141,140,160,194,-2,48,-1022
912,10.426787,140,160,194,0,54,-1022
913,10.438438,140,160,194,0,52,-1021
914,10.450106,140,160,194,-1,51,-1026
915,10.461774,140,160,195,-1,53,-1024
916,10.473335,140,160,194,-1,52,-1024
917,10.48484,140,160,194,3,58,-1018
918,10.496357,140,160,194,-1,50,-1021
919,10.507892,140,160,194,0,52,-1023
920,10.51943,140,160,195,-2,51,-1017
921,10.530971,140,160,195,-3,51,-1029
922,10.542514,140,160,195,1,54,-1025
923,10.554071,140,160,195,2,46,-1020
924,10.565632,140,160,195,1,48,-1023
925,10.577317,140,160,195,-2,52,-1022
926,10.589004,140,160,195,-1,50,-1014
927,10.600635,140,160,195,1,53,-1030
928,10.612282,140,160,194,1,53,-1013
929,10.623948,140,160,195,0,57,-1023
930,10.635589,140,160,195,-4,51,-1021
931,10.647271,140,160,195,3,51,-1027
932,10.658902,140,160,195,-2,51,-1023
933,10.670557,140,160,195,-3,50,-1029
934,10.682229,140,160,194,0,53,-1024
935,10.693835,140,160,194,0,49,-1029
936,10.705393,140,160,194,0,53,-1024
937,10.716966,140,160,195,-5,54,-1024
938,10.728527,140,160,195,0,49,-1013
939,10.740089,140,160,195,0,54,-1023
940,10.751649,140,160,195,0,49,-1014
941,10.763207,140,160,195,-1,57,-1027
942,10.774766,140,160,194,-3,48,-1022
943,10.786384,140,160,194,-1,57,-1020
944,10.798045,140,160,195,-2,53,-1023
945,10.8097,140,160,194,2,56,-1022
946,10.821385,140,160,194,-2,54,-1021
947,10.833075,140,160,195,-1,54,-1025
948,10.844775,140,160,195,1,46,-1023
949,10.856418,140,160,195,-1,52,-1020
950,10.86808,140,160,194,1,52,-1020
951,10.879763,140,160,195,-2,54,-1027
952,10.891412,140,160,195,-1,52,-1025
953,10.902969,140,160,195,1,52,-1023
954,10.914511,140,160,195,3,53,-1027
955,10.926072,140,160,195,-1,53,-1021
956,10.937627,140,160,194,-5,53,-1024
957,10.94921,140,160,195,-1,49,-1018
958,10.960759,140,160,195,3,49,-1022
959,10.972354,140,160,195,-1,54,-1022
960,10.9839,140,160,195,-1,50,-1016
961,10.995542,140,160,195,-6,52,-1021
962,11.007184,140,160,195,1,50,-1016
963,11.018848,140,160,194,-1,53,-1029
964,11.030516,140,160,194,-1,48,-1017
965,11.042155,140,160,195,-1,53,-1021
966,11.053832,140,160,195,0,51,-1022
967,11.065514,140,160,195,0,49,-1022
968,11.077139,140,160,195,-3,51,-1020
969,11.088807,140,160,194,0,52,-1023
970,11.100457,140,160,194,-1,53,-1017
971,11.112013,140,160,195,0,53,-1023
972,11.123584,140,160,194,2,54,-1023
973,11.135144,140,160,195,-1,56,-1023
974,11.146705,140,160,195,0,52,-1013
975,11.158271,140,160,194,1,52,-1017
976,11.169828,140,160,194,2,55,-1019
977,11.181378,140,160,195,-2,53,-1024
978,11.192961,140,160,194,1,53,-1021
979,11.20465,140,160,194,-2,50,-1019
980,11.216302,140,160,194,-4,52,-1018
981,11.227952,140,160,194,2,49,-1024
982,11.239622,140,160,194,0,53,-1022
983,11.251259,140,160,194,0,54,-1025
984,11.262905,140,160,195,-1,53,-1025
985,11.274709,140,160,195,-2,52,-1013
986,11.286384,140,160,195,-5,57,-1020
987,11.298039,140,160,195,0,50,-1021
988,11.309697,140,160,195,2,53,-1023
989,11.321392,140,160,194,-1,52,-1018
990,11.333064,140,160,194,0,53,-1022
991,11.344739,140,160,195,0,53,-1020
992,11.356373,140,160,195,0,50,-1024
993,11.36803,140,160,194,-3,55,-1018
994,11.379687,140,160,194,2,55,-1026
995,11.391324,140,160,195,-2,56,-1029
996,11.403039,140,160,195,-2,56,-1019
997,11.414694,140,160,194,-4,50,-1023
998,11.426267,140,160,194,-1,50,-1024
999,11.437822,140,160,195,-4,52,-1018
1000,11.449373,140,160,194,3,55,-1025
1001,11.460924,140,160,194,2,54,-1023
1002,11.472484,140,160,194,0,53,-1023
1003,11.484059,140,160,194,-3,53,-1021
1004,11.495605,140,160,194,-4,53,-1021
1005,11.507186,140,160,195,-2,54,-1020
1006,11.518799,140,160,195,0,50,-1017
1007,11.530469,140,160,194,-3,52,-1024
1008,11.542122,140,160,194,-1,52,-1020
1009,11.553783,140,160,195,3,52,-1020
1010,11.565446,140,160,194,-1,51,-1024
1011,11.577126,140,160,194,0,53,-1023
1012,11.588776,140,160,195,0,52,-1019
1013,11.60043,140,160,194,1,54,-1029
1014,11.612106,140,160,194,3,52,-1024
1015,11.623759,140,160,195,0,53,-1023
1016,11.635403,140,160,195,0,51,-1020
1017,11.647049,140,160,194,-1,55,-1020
1018,11.658712,140,160,195,0,49,-1018
1019,11.670368,140,160,195,0,54,-1022
1020,11.68201,140,160,194,0,54,-1021
1021,11.693655,140,160,194,-4,56,-1029
1022,11.705299,140,160,194,0,53,-1027
1023,11.716945,140,160,195,-4,52,-1018
1024,11.728496,140,160,194,0,51,-1025
1025,11.740062,140,160,194,0,54,-1019
1026,11.751604,140,160,195,-2,55,-1024
1027,11.763153,140,160,194,-3,51,-1022
1028,11.774693,140,160,195,-1,57,-1024
1029,11.786263,140,160,194,0,56,-1018
1030,11.797822,140,160,195,1,53,-1020
1031,11.809375,140,160,194,-1,49,-1022
1032,11.820969,140,160,195,1,49,-1025
1033,11.832665,140,160,195,0,50,-1018
1034,11.84431,140,160,194,0,52,-1023
1035,11.855965,140,160,195,0,53,-1013
1036,11.867616,140,160,195,-3,53,-1017
1037,11.879282,140,160,194,0,52,-1026
1038,11.890935,140,160,195,-2,55,-1019
1039,11.902583,140,160,194,0,55,-1023
1040,11.91427,140,160,194,-1,54,-1025
1041,11.925938,140,160,194,-1,55,-1014
1042,11.937648,140,160,195,3,55,-1021
1043,11.949209,140,160,195,-1,52,-1020
1044,11.96079,140,160,195,0,48,-1028
1045,11.972355,140,160,195,-2,53,-1017
1046,11.983937,140,160,194,-2,49,-1025
1047,11.995478,140,160,195,0,53,-1019
1048,12.007032,140,160,194,-4,54,-1017
1049,12.018577,140,160,195,0,54,-1018
1050,12.030137,140,160,194,2,51,-1018
1051,12.041839,140,160,194,-2,49,-1017
1052,12.053522,140,160,195,0,51,-1026
1053,12.065144,140,160,194,0,50,-1028
1054,12.076797,140,160,194,-1,55,-1015
1055,12.088497,140,160,195,0,56,-1019
1056,12.100176,140,160,194,3,52,-1022
1057,12.111849,140,160,195,0,50,-1020
1058,12.123497,140,160,194,-3,49,-1028
1059,12.135157,140,160,194,-2,49,-1020
1060,12.1468,140,160,195,-4,52,-1024
1061,12.158441,140,160,195,0,54,-1020
1062,12.170106,140,160,194,1,54,-1019
1063,12.181771,140,160,195,3,54,-1022
1064,12.193398,140,160,194,-2,53,-1020
1065,12.205049,140,160,195,-1,51,-1015
1066,12.216742,140,160,195,-2,54,-1025
1067,12.22837,140,160,195,-3,51,-1023
1068,12.240035,140,160,194,0,52,-1025
1069,12.25169,140,160,195,3,51,-1019
1070,12.263329,140,160,194,0,56,-1021
1071,12.274984,140,160,194,1,52,-1026
1072,12.286656,140,160,194,4,51,-1021
1073,12.298379,140,160,194,2,51,-1024
1074,12.310057,140,160,195,2,48,-1021
1075,12.321739,140,160,195,0,52,-1012
1076,12.333396,140,160,194,-2,50,-1020
1077,12.345069,140,160,194,0,53,-1022
1078,12.356763,140,160,194,-1,50,-1018
1079,12.368418,140,160,194,-3,54,-1026
1080,12.380104,140,160,194,4,53,-1015
1081,12.391766,140,160,194,-4,53,-1023
1082,12.403419,140,160,195,2,52,-1026
1083,12.415088,140,160,195,-3,55,-1021
1084,12.42674,140,160,194,0,51,-1018
1085,12.438396,140,160,194,-2,49,-1025
1086,12.450127,140,160,194,0,54,-1023
1087,12.461787,140,160,194,0,51,-1021
1088,12.473353,140,160,195,0,54,-1023
1089,12.484965,140,160,194,2,52,-1019
1090,12.496537,140,160,195,-1,50,-1017
1091,12.508088,140,160,194,-4,54,-1016
1092,12.51963,140,160,194,-2,51,-1022
1093,12.531176,140,160,194,-4,50,-1023
1094,12.542726,140,160,194,-2,50,-1020
1095,12.554287,140,160,194,-3,55,-1019
1096,12.565909,140,160,195,0,53,-1020
1097,12.577563,140,160,195,0,54,-1022
1098,12.589265,140,160,194,-3,51,-1023
1099,12.600881,140,160,195,-3,53,-1025
1100,12.612536,140,160,194,-1,54,-1020
1101,12.624214,140,160,194,-1,47,-1026
1102,12.635876,140,160,195,-2,53,-1023
1103,12.647526,140,160,194,1,54,-1021
1104,12.659181,140,160,194,0,52,-1017
1105,12.67088,140,160,194,1,51,-1024
1106,12.682447,140,160,194,-1,51,-1019
1107,12.693991,140,160,194,0,53,-1021
1108,12.705557,140,160,195,-3,53,-1027
1109,12.71708,140,160,195,0,55,-1023
1110,12.728601,140,160,195,3,50,-1025
1111,12.740138,140,160,195,-3,51,-1022
1112,12.751675,140,160,194,-4,49,-1023
1113,12.763229,140,160,194,0,56,-1023
1114,12.774862,140,160,195,-3,51,-1013
1115,12.786508,140,160,195,1,55,-1021
1116,12.79816,140,160,194,0,51,-1023
1117,12.80984,140,160,194,-1,50,-1023
1118,12.821521,140,160,195,1,54,-1025
1119,12.833144,140,160,195,-2,53,-1020
1120,12.844808,140,160,194,-1,50,-1026
1121,12.856489,140,160,194,3,55,-1023
1122,12.868128,140,160,195,-1,50,-1018
1123,12.879677,140,160,194,0,55,-1024
1124,12.891213,140,160,195,-1,46,-1021
1125,12.902751,140,160,194,-2,56,-1020
1126,12.91431,140,160,195,3,51,-1021
1127,12.925849,140,160,194,0,54,-1023
1128,12.937393,140,160,194,0,50,-1017
1129,12.94896,140,160,195,-1,51,-1025
1130,12.960539,140,160,195,-2,50,-1018
1131,12.972099,140,160,194,0,53,-1027
1132,12.983734,140,160,195,2,50,-1024
1133,12.99539,140,160,194,-2,50,-1020
1134,13.007032,140,160,195,-4,50,-1026
1135,13.018674,140,160,195,1,48,-1025
1136,13.030342,140,160,195,-4,52,-1027
1137,13.041988,140,160,195,0,53,-1027
1138,13.053651,140,160,194,0,55,-1024
1139,13.06535,140,160,194,0,53,-1024
1140,13.077045,140,160,194,-1,51,-1026
1141,13.088758,140,160,194,3,54,-1022
1142,13.100369,140,160,195,2,49,-1019
1143,13.112019,140,160,195,-1,49,-1020
1144,13.123684,140,160,195,-1,48,-1020
1145,13.135326,140,160,195,-1,50,-1019
1146,13.146981,140,160,195,0,51,-1015
1147,13.15863,140,160,195,0,47,-1025
1148,13.17028,140,160,195,-2,52,-1021
1149,13.181951,140,160,195,-2,52,-1013
1150,13.193635,140,160,194,-2,51,-1021
1151,13.205291,140,160,194,-3,55,-1024
1152,13.217023,140,160,195,0,55,-1026
1153,13.228677,140,160,195,0,51,-1021
1154,13.240367,140,160,195,-5,54,-1023
1155,13.252008,140,160,195,-1,54,-1025
1156,13.263652,140,160,195,-3,53,-1024
1157,13.275308,140,160,195,-3,49,-1013
1158,13.287005,140,160,194,2,47,-1023
1159,13.298657,140,160,195,1,53,-1025
1160,13.310353,140,160,195,-2,53,-1025
1161,13.322191,140,160,194,-1,52,-1021
1162,13.333846,140,160,194,0,54,-1021
1163,13.345515,140,160,194,1,55,-1026
1164,13.357144,140,160,195,-2,52,-1019
1165,13.368791,140,160,195,1,51,-1024
1166,13.380436,140,160,195,0,55,-1021
1167,13.392122,140,160,194,2,55,-1025
1168,13.403773,140,160,195,-3,49,-1022
1169,13.415421,140,160,195,-1,49,-1023
1170,13.427062,140,160,195,3,51,-1023
1171,13.438719,140,160,195,-6,48,-1020
1172,13.45037,140,160,194,0,53,-1020
1173,13.462009,140,160,195,1,50,-1022
1174,13.473649,140,160,195,-1,53,-1021
1175,13.48532,140,160,194,0,55,-1021
1176,13.497031,140,160,195,0,53,-1016
1177,13.508684,140,160,195,0,53,-1021
1178,13.520366,140,160,194,-1,51,-1017
1179,13.532006,140,160,194,-3,52,-1022
1180,13.543651,140,160,194,0,53,-1028
1181,13.555306,140,160,194,0,50,-1019
1182,13.566967,140,160,194,1,49,-1026
1183,13.578615,140,160,195,-1,54,-1021
1184,13.590283,140,160,195,-2,53,-1024
1185,13.601979,140,160,195,1,54,-1022
1186,13.613646,140,160,194,0,54,-1019
1187,13.625318,140,160,194,-2,55,-1032
1188,13.637002,140,160,195,1,50,-1021
1189,13.648642,140,160,195,-2,51,-1023
1190,13.660284,140,160,195,-1,54,-1026
1191,13.671924,140,160,194,-3,55,-1023
1192,13.683591,140,160,195,0,49,-1024
1193,13.695233,140,160,195,-3,50,-1022
1194,13.706889,140,160,194,2,52,-1019
1195,13.718582,140,160,195,0,50,-1021
1196,13.730172,140,160,194,-3,53,-1021
1197,13.741727,140,160,195,-2,50,-1017
1198,13.75331,140,160,195,-2,54,-1023
1199,13.764842,140,160,194,-3,52,-1025
1200,13.776359,140,160,194,-3,52,-1022
1201,13.787922,140,160,194,1,56,-1023
1202,13.799468,140,160,195,0,50,-1016
1203,13.81106,140,160,194,1,55,-1022
1204,13.822704,140,160,195,-1,52,-1022
1205,13.834366,140,160,194,0,56,-1026
1206,13.846012,140,160,195,-2,53,-1024
1207,13.857659,140,160,194,-1,50,-1019
1208,13.869333,140,160,195,-2,52,-1019
1209,13.881048,140,160,194,0,52,-1027
1210,13.892783,140,160,195,-3,52,-1016
1211,13.904442,140,160,194,0,51,-1021
1212,13.916111,140,160,195,1,54,-1021
1213,13.927832,140,160,195,0,55,-1022
1214,13.939424,140,160,194,0,56,-1015
1215,13.950981,140,160,195,4,51,-1014
1216,13.962588,140,160,195,3,50,-1020
1217,13.97413,140,160,195,-2,51,-1021
1218,13.985692,140,160,194,-1,54,-1023
1219,13.997259,140,160,194,-1,54,-1020
1220,14.008839,140,160,195,0,51,-1023
1221,14.020453,140,160,194,0,55,-1023
1222,14.032093,140,160,195,0,53,-1018
1223,14.043743,140,160,195,0,56,-1019
1224,14.055379,140,160,194,0,50,-1018
1225,14.067021,140,160,194,0,51,-1021
1226,14.078689,140,160,195,-2,52,-1019
1227,14.090346,140,160,194,-1,55,-1020
1228,14.102001,140,160,194,0,49,-1028
1229,14.113658,140,160,195,1,52,-1017
1230,14.125339,140,160,195,3,55,-1026
1231,14.137013,140,160,194,-4,53,-1024
1232,14.148684,140,160,195,-1,51,-1019
1233,14.160366,140,160,194,0,51,-1019
1234,14.172018,140,160,194,0,51,-1023
1235,14.183661,140,160,194,0,49,-1021
1236,14.19531,140,160,195,-1,52,-1024
1237,14.206992,140,160,195,-4,49,-1022
1238,14.218632,140,160,195,2,48,-1028
1239,14.23035,140,160,194,0,55,-1027
1240,14.24201,140,160,195,0,51,-1022
1241,14.253574,140,160,194,1,54,-1019
1242,14.265128,140,160,195,-2,55,-1021
1243,14.276681,140,160,195,2,50,-1022
1244,14.288291,140,160,194,-1,51,-1023
1245,14.299853,140,160,194,-3,52,-1024
1246,14.311422,140,160,195,0,51,-1017
1247,14.322985,140,160,194,1,56,-1021
1248,14.334616,140,160,194,-3,51,-1025
1249,14.346524,140,160,194,0,53,-1013
1250,14.358213,140,160,195,4,51,-1018
1251,14.369909,140,160,194,-2,55,-1020
1252,14.381584,140,160,194,1,54,-1019
1253,14.393275,140,160,195,1,49,-1022
1254,14.404923,140,160,195,0,57,-1029
1255,14.416623,140,160,194,-1,51,-1026
1256,14.428281,140,160,194,0,54,-1024
1257,14.439982,140,160,194,1,52,-1022
1258,14.451671,140,160,194,-2,52,-1024
1259,14.463228,140,160,194,-3,55,-1025
1260,14.474787,140,160,194,0,52,-1026
1261,14.486346,140,160,194,-2,53,-1022
1262,14.497937,140,160,195,-2,52,-1027
1263,14.509495,140,160,195,2,54,-1023
1264,14.521065,140,160,195,-1,52,-1019
1265,14.532603,140,160,195,0,52,-1023
1266,14.544168,140,160,194,-3,52,-1026
1267,14.555801,140,160,194,0,53,-1024
1268,14.567451,140,160,195,-2,53,-1021
1269,14.579117,140,160,195,0,54,-1030
1270,14.590768,140,160,194,4,52,-1018
1271,14.602405,140,160,194,0,53,-1022
1272,14.614071,140,160,195,-1,50,-1027
1273,14.625732,140,160,194,2,49,-1026
1274,14.637391,140,160,195,-1,52,-1023
1275,14.649062,140,160,195,-2,53,-1025
1276,14.660723,140,160,194,-2,50,-1020
1277,14.672309,140,160,194,0,50,-1016
1278,14.683897,140,160,195,1,53,-1020
1279,14.695454,140,160,195,-2,52,-1021
1280,14.707082,140,160,194,-1,52,-1018
1281,14.718633,140,160,195,-3,50,-1022
1282,14.730187,140,160,195,0,51,-1020
1283,14.741742,140,160,195,0,49,-1021
1284,14.753333,140,160,195,-2,53,-1029
1285,14.765052,140,160,194,-1,51,-1016
1286,14.776745,140,160,195,1,50,-1021
1287,14.788498,140,160,194,0,55,-1023
1288,14.800143,140,160,194,-3,53,-1016
1289,14.811807,140,160,195,2,55,-1027
1290,14.823483,140,160,195,3,49,-1021
1291,14.835121,140,160,195,-2,52,-1025
1292,14.846768,140,160,194,-2,50,-1019
1293,14.858466,140,160,195,0,49,-1016
1294,14.87011,140,160,195,-3,48,-1022
1295,14.881696,140,160,194,-1,47,-1022
1296,14.893266,140,160,195,-1,53,-1022
1297,14.904844,140,160,195,2,56,-1020
1298,14.916432,140,160,195,0,55,-1016
1299,14.927985,140,160,194,-1,50,-1022
1300,14.939535,140,160,194,-1,50,-1025
1301,14.951089,140,160,195,0,51,-1025
1302,14.962689,140,160,195,-1,53,-1025
1303,14.974385,140,160,194,-1,53,-1025
1304,14.986068,140,160,194,0,52,-1013
1305,14.997743,140,160,195,2,53,-1026
1306,15.009415,140,160,194,0,52,-1023
1307,15.02108,140,160,194,-1,48,-1019
1308,15.032757,140,160,194,-2,54,-1016
1309,15.044434,140,160,194,-2,51,-1017
1310,15.056091,140,160,194,-3,52,-1023
1311,15.067784,140,160,194,0,56,-1020
1312,15.079449,140,160,194,0,50,-1020
1313,15.091037,140,160,195,1,53,-1024
1314,15.102573,140,160,194,-1,54,-1016
1315,15.114116,140,160,194,0,52,-1016
1316,15.125682,140,160,195,-3,54,-1023
1317,15.13725,140,160,194,-2,50,-1025
1318,15.148824,140,160,194,-3,51,-1023
1319,15.160411,140,160,194,-4,50,-1028
1320,15.171959,140,160,194,-3,50,-1018
1321,15.183614,140,160,195,0,50,-1024
1322,15.195262,140,160,195,1,51,-1017
1323,15.206924,140,160,194,1,52,-1025
1324,15.218583,140,160,195,-6,48,-1026
1325,15.230228,140,160,194,0,51,-1022
1326,15.241902,140,160,194,-1,54,-1020
1327,15.253547,140,160,194,-2,51,-1018
1328,15.265204,140,160,194,-2,52,-1018
1329,15.2769,140,160,195,-2,53,-1021
1330,15.288551,140,160,195,0,52,-1023
1331,15.300212,140,160,195,2,54,-1023
1332,15.31186,140,160,195,-2,50,-1026
1333,15.323497,140,160,194,-2,47,-1025
1334,15.335138,140,160,195,0,50,-1026
1335,15.346802,140,160,195,1,52,-1022
1336,15.358465,140,160,195,2,48,-1022
1337,15.370263,140,160,195,0,52,-1023
1338,15.381912,140,160,195,2,55,-1017
1339,15.393472,140,160,195,5,54,-1018
1340,15.405044,140,160,195,0,51,-1022
1341,15.4166,140,160,194,-1,53,-1026
1342,15.428155,140,160,195,-1,51,-1019
1343,15.439726,140,160,195,0,49,-1028
1344,15.451285,140,160,195,0,52,-1020
1345,15.462822,140,160,194,0,53,-1022
1346,15.474356,140,160,195,0,51,-1021
1347,15.485963,140,160,195,2,51,-1025
1348,15.497617,140,160,195,0,51,-1024
1349,15.509287,140,160,195,1,51,-1020
1350,15.520955,140,160,194,-3,50,-1020
1351,15.532632,140,160,195,-1,52,-1025
1352,15.544282,140,160,195,0,53,-1023
1353,15.555939,140,160,195,5,50,-1025
1354,15.567601,140,160,195,1,48,-1016
1355,15.579245,140,160,194,3,52,-1024
1356,15.590907,140,160,194,-3,52,-1026
1357,15.602587,140,160,194,4,49,-1031
1358,15.614235,140,160,194,-2,50,-1017
1359,15.625911,140,160,194,1,55,-1023
1360,15.637595,140,160,194,-3,50,-1020
1361,15.649268,140,160,194,-1,48,-1015
1362,15.660887,140,160,195,2,50,-1025
1363,15.672561,140,160,194,3,51,-1028
1364,15.684216,140,160,194,-3,51,-1022
1365,15.695876,140,160,194,-4,53,-1016
1366,15.70753,140,160,195,-2,49,-1024
1367,15.719074,140,160,194,-1,51,-1022
1368,15.73062,140,160,194,0,49,-1025
1369,15.742173,140,160,194,4,54,-1026
1370,15.753729,140,160,194,-2,52,-1023
1371,15.765322,140,160,194,0,51,-1027
1372,15.776922,140,160,194,0,51,-1028
1373,15.788485,140,160,194,3,50,-1023
1374,15.800059,140,160,194,-5,51,-1019
1375,15.811693,140,160,194,-1,51,-1023
1376,15.823353,140,160,195,-4,53,-1029
1377,15.835003,140,160,195,0,48,-1021
1378,15.846675,140,160,195,-2,51,-1030
1379,15.85833,140,160,195,1,51,-1027
1380,15.869985,140,160,195,2,52,-1017
1381,15.881691,140,160,194,-1,52,-1020
1382,15.893389,140,160,194,0,50,-1026
1383,15.905073,140,160,194,4,50,-1025
1384,15.916772,140,160,194,-2,51,-1027
1385,15.928351,140,160,194,0,51,-1021
1386,15.939916,140,160,194,-4,49,-1021
1387,15.951463,140,160,195,0,52,-1027
1388,15.963031,140,160,195,-2,48,-1023
1389,15.974581,140,160,194,-4,57,-1021
1390,15.986156,140,160,194,-1,52,-1030
1391,15.997693,140,160,194,0,50,-1017
1392,16.009264,140,160,194,-2,49,-1013
1393,16.020888,140,160,194,3,54,-1015
1394,16.032543,140,160,194,3,54,-1021
1395,16.044197,140,160,194,-2,53,-1022
1396,16.05585,140,160,194,-3,52,-1021
1397,16.067488,140,160,195,-2,54,-1023
1398,16.079132,140,160,195,0,57,-1019
1399,16.090798,140,160,195,0,51,-1022
1400,16.102458,140,160,195,-1,52,-1021
1401,16.114116,140,160,194,-1,54,-1027
1402,16.125813,140,160,194,-2,52,-1020
1403,16.137409,140,160,194,0,55,-1022
1404,16.148976,140,160,195,0,51,-1018
1405,16.160542,140,160,195,-3,51,-1023
1406,16.172085,140,160,195,1,55,-1020
1407,16.183663,140,160,194,2,53,-1020
1408,16.195222,140,160,195,-2,54,-1023
1409,16.206783,140,160,195,-1,53,-1020
1410,16.218324,140,160,195,1,50,-1027
1411,16.229951,140,160,195,0,55,-1030
1412,16.241637,140,160,194,0,50,-1028
1413,16.253318,140,160,194,-1,49,-1026
1414,16.265013,140,160,195,-3,53,-1022
1415,16.276668,140,160,194,1,50,-1017
1416,16.288357,140,160,195,-1,56,-1021
1417,16.3,140,160,195,-3,51,-1020
1418,16.311647,140,160,194,-2,50,-1019
1419,16.323328,140,160,194,0,53,-1024
1420,16.334983,140,160,194,-1,49,-1022
1421,16.346535,140,160,194,-4,49,-1031
1422,16.358076,140,160,194,0,54,-1025
1423,16.369624,140,160,194,-1,50,-1019
1424,16.381197,140,160,194,0,51,-1023
1425,16.392805,140,160,194,4,53,-1020
1426,16.404361,140,160,194,2,53,-1022
1427,16.415917,140,160,194,-1,49,-1022
1428,16.427476,140,160,194,-2,54,-1022
1429,16.439105,140,160,195,-4,51,-1020
1430,16.45076,140,160,194,-2,53,-1021
1431,16.462459,140,160,194,-1,51,-1022
1432,16.474114,140,160,194,0,51,-1021
1433,16.4858,140,160,195,-2,52,-1013
1434,16.497461,140,160,194,0,55,-1018
1435,16.509132,140,160,194,-3,51,-1018
1436,16.5208,140,160,195,1,52,-1021
1437,16.532494,140,160,194,0,50,-1025
1438,16.544175,140,160,195,1,54,-1025
1439,16.555758,140,160,194,2,51,-1024
1440,16.567308,140,160,194,1,55,-1028
1441,16.578854,140,160,194,-2,50,-1024
1442,16.590408,140,160,194,-2,56,-1020
1443,16.601964,140,160,195,1,50,-1021
1444,16.61353,140,160,195,0,51,-1020
1445,16.625085,140,160,195,2,54,-1019
1446,16.636671,140,160,194,-1,55,-1023
1447,16.648298,140,160,194,0,52,-1026
1448,16.659958,140,160,194,-2,51,-1020
1449,16.67161,140,160,194,-3,51,-1023
1450,16.68326,140,160,194,-2,57,-1011
1451,16.694927,140,160,195,0,56,-1018
1452,16.706588,140,160,195,-2,54,-1029
1453,16.718267,140,160,194,-1,53,-1016
1454,16.729923,140,160,195,-3,54,-1022
1455,16.741603,140,160,194,0,52,-1020
1456,16.753278,140,160,194,3,52,-1021
1457,16.764843,140,160,195,-5,53,-1027
1458,16.776402,140,160,195,0,52,-1015
1459,16.78795,140,160,194,-2,51,-1022
1460,16.799497,140,160,195,-6,56,-1024
1461,16.811045,140,160,194,2,54,-1022
1462,16.822652,140,160,195,2,54,-1030
1463,16.834203,140,160,194,-4,49,-1023
1464,16.845782,140,160,194,-1,50,-1019
1465,16.857385,140,160,195,0,53,-1026
1466,16.869056,140,160,194,-2,53,-1024
1467,16.880747,140,160,195,-1,45,-1020
1468,16.892447,140,160,194,2,50,-1025
1469,16.90409,140,160,194,1,51,-1021
1470,16.915745,140,160,194,0,52,-1020
1471,16.927447,140,160,195,1,50,-1019
1472,16.939096,140,160,194,0,53,-1015
1473,16.950754,140,160,195,0,56,-1021
1474,16.962366,140,160,194,0,51,-1020
1475,16.973916,140,160,194,-2,49,-1019
1476,16.985493,140,160,195,0,53,-1013
1477,16.997063,140,160,195,-1,50,-1015
1478,17.008602,140,160,195,-1,50,-1024
1479,17.020154,140,160,194,-2,48,-1022
1480,17.031711,140,160,195,-3,50,-1015
1481,17.043258,140,160,195,0,51,-1026
1482,17.054822,140,160,195,-1,50,-1031
1483,17.066457,140,160,194,-4,55,-1020
1484,17.078112,140,160,194,2,55,-1023
1485,17.089812,140,160,195,0,54,-1022
1486,17.101469,140,160,194,-3,53,-1026
1487,17.113151,140,160,195,0,51,-1021
1488,17.124828,140,160,194,2,49,-1013
1489,17.136497,140,160,194,0,54,-1021
1490,17.148183,140,160,194,-3,51,-1015
1491,17.159842,140,160,195,5,52,-1020
1492,17.171518,140,160,195,-1,55,-1025
1493,17.183066,140,160,194,-3,49,-1021
1494,17.194614,140,160,195,2,52,-1018
1495,17.206168,140,160,194,-2,51,-1025
1496,17.217725,140,160,195,0,54,-1024
1497,17.229289,140,160,195,1,53,-1021
1498,17.240841,140,160,194,0,54,-1023
1499,17.25242,140,160,195,1,52,-1014
1500,17.263978,140,160,194,0,51,-1019
1501,17.275598,140,160,194,0,52,-1021
1502,17.28725,140,160,194,2,51,-1025
1503,17.298951,140,160,194,15,54,-1020
1504,17.310601,140,160,195,0,53,-1022
1505,17.322256,140,160,195,1,54,-1021
1506,17.333936,140,160,195,-3,53,-1022
1507,17.345584,140,160,195,-1,54,-1026
1508,17.357268,140,160,195,0,50,-1021
1509,17.368975,140,160,195,2,50,-1026
1510,17.380627,140,160,195,0,51,-1025
1511,17.392184,140,160,194,0,48,-1018
1512,17.403728,140,160,194,0,54,-1031
1513,17.415284,140,160,194,-2,51,-1025
1514,17.42684,140,160,195,0,53,-1019
1515,17.43839,140,160,195,0,50,-1020
1516,17.449934,140,160,194,0,52,-1021
1517,17.461482,140,160,195,0,52,-1019
1518,17.47304,140,160,195,-3,53,-1020
1519,17.484712,140,160,194,2,55,-1024
1520,17.496371,140,160,195,0,49,-1018
1521,17.508042,140,160,194,0,52,-1025
1522,17.519707,140,160,194,0,53,-1014
1523,17.531348,140,160,194,-1,53,-1022
1524,17.542994,140,160,194,-3,52,-1016
1525,17.554665,140,160,194,0,57,-1018
1526,17.566319,140,160,195,-1,52,-1022
1527,17.577969,140,160,195,1,52,-1021
1528,17.589545,140,160,194,-1,52,-1017
1529,17.601084,140,160,195,0,52,-1017
1530,17.612603,140,160,194,-1,55,-1014
1531,17.624153,140,160,195,-2,50,-1026
1532,17.635711,140,160,194,-2,51,-1022
1533,17.647259,140,160,195,0,52,-1026
1534,17.658815,140,160,195,-2,51,-1018
1535,17.670443,140,160,194,0,51,-1019
1536,17.68207,140,160,194,0,49,-1016
1537,17.693732,140,160,194,1,51,-1022
1538,17.705399,140,160,195,-3,54,-1020
1539,17.717076,140,160,195,-1,51,-1026
1540,17.728757,140,160,195,0,54,-1025
1541,17.740436,140,160,195,-1,53,-1017
1542,17.752081,140,160,195,-1,52,-1017
1543,17.763729,140,160,195,-3,52,-1027
1544,17.775408,140,160,194,-1,55,-1025
1545,17.787085,140,160,195,1,54,-1024
1546,17.798644,140,160,194,-1,51,-1019
1547,17.810197,140,160,195,-2,54,-1019
1548,17.821768,140,160,194,-4,50,-1022
1549,17.833326,140,160,195,-1,53,-1025
1550,17.844896,140,160,195,2,50,-1018
1551,17.856436,140,160,194,-4,54,-1026
1552,17.867973,140,160,195,0,49,-1016
1553,17.879526,140,160,194,-1,52,-1018
1554,17.891146,140,160,194,0,50,-1021
1555,17.902815,140,160,195,0,48,-1024
1556,17.914464,140,160,194,-3,51,-1022
1557,17.926119,140,160,195,-1,52,-1024
1558,17.937792,140,160,194,-1,52,-1017
1559,17.949452,140,160,195,-1,54,-1028
1560,17.961139,140,160,194,0,52,-1026
1561,17.972805,140,160,194,0,55,-1022
1562,17.984471,140,160,194,0,53,-1025
1563,17.996028,140,160,195,-2,54,-1021
1564,18.007572,140,160,194,0,52,-1021
1565,18.019138,140,160,194,5,51,-1031
1566,18.030695,140,160,194,-6,51,-1019
1567,18.042254,140,160,194,-3,52,-1027
1568,18.053793,140,160,195,0,52,-1020
1569,18.06532,140,160,194,-4,49,-1016
1570,18.076841,140,160,194,-3,58,-1025
1571,18.08837,140,160,194,-4,50,-1018
1572,18.099992,140,160,195,0,54,-1025
1573,18.111641,140,160,195,0,54,-1016
1574,18.123311,140,160,195,-2,55,-1017
1575,18.134956,140,160,194,-4,51,-1024
1576,18.146604,140,160,194,-1,51,-1022
1577,18.158269,140,160,194,-4,52,-1024
1578,18.169933,140,160,194,0,48,-1020
1579,18.181582,140,160,195,-1,56,-1029
1580,18.193293,140,160,195,0,51,-1020
1581,18.204955,140,160,195,-1,50,-1018
1582,18.216533,140,160,195,-5,56,-1022
1583,18.228099,140,160,195,0,51,-1025
1584,18.239651,140,160,195,-4,55,-1022
1585,18.251223,140,160,195,-1,51,-1019
1586,18.262784,140,160,195,0,52,-1021
1587,18.274323,140,160,194,-2,53,-1024
1588,18.285863,140,160,195,-3,53,-1017
1589,18.297447,140,160,195,0,53,-1015
1590,18.309077,140,160,195,2,49,-1021
1591,18.320757,140,160,194,-2,50,-1023
1592,18.332446,140,160,195,-4,50,-1018
1593,18.344092,140,160,194,0,51,-1017
1594,18.355747,140,160,194,0,55,-1024
1595,18.367419,140,160,195,-2,54,-1022
1596,18.379074,140,160,194,-3,51,-1024
1597,18.390725,140,160,194,2,50,-1021
1598,18.402426,140,160,195,1,55,-1019
1599,18.414072,140,160,194,5,54,-1016
1600,18.425629,140,160,195,-4,52,-1016
1601,18.437205,140,160,195,1,53,-1024
1602,18.448767,140,160,194,-3,52,-1022
1603,18.460313,140,160,195,2,51,-1021
1604,18.471858,140,160,194,0,52,-1017
1605,18.483401,140,160,194,-3,50,-1021
1606,18.49497,140,160,194,1,50,-1027
1607,18.506533,140,160,195,0,56,-1028
1608,18.518174,140,160,194,-3,54,-1016
1609,18.529832,140,160,194,0,52,-1025
1610,18.541535,140,160,194,-2,56,-1021
1611,18.553198,140,160,195,2,48,-1015
1612,18.564874,140,160,195,4,54,-1013
1613,18.579273,140,160,195,1,54,-1014
1614,18.590957,140,160,195,0,54,-1023
1615,18.602609,140,160,195,0,48,-1026
1616,18.614279,140,160,194,-3,50,-1025
1617,18.625972,140,160,194,-1,54,-1022
1618,18.637549,140,160,195,0,51,-1016
1619,18.649083,140,160,195,0,49,-1020
1620,18.660602,140,160,195,2,49,-1021
1621,18.67215,140,160,194,0,50,-1022
1622,18.683703,140,160,195,1,51,-1023
1623,18.695246,140,160,195,-2,54,-1023
1624,18.706801,140,160,194,0,55,-1019
1625,18.718407,140,160,195,-4,48,-1021
1626,18.730063,140,160,195,-1,51,-1016
1627,18.741726,140,160,195,0,52,-1025
1628,18.753389,140,160,194,0,52,-1018
1629,18.765066,140,160,194,-4,52,-1018
1630,18.776745,140,160,195,-6,49,-1017
1631,18.788443,140,160,194,-4,48,-1020
1632,18.800104,140,160,194,-1,51,-1019
1633,18.811767,140,160,195,3,50,-1019
1634,18.823456,140,160,194,-1,56,-1021
1635,18.835108,140,160,195,-2,50,-1021
1636,18.846672,140,160,195,-1,53,-1017
1637,18.858262,140,160,195,2,51,-1025
1638,18.869831,140,160,195,1,51,-1023
1639,18.881394,140,160,195,1,53,-1025
1640,18.892967,140,160,195,0,48,-1021
1641,18.904523,140,160,195,-1,49,-1019
1642,18.916065,140,160,194,-3,52,-1022
1643,18.927623,140,160,195,0,55,-1020
1644,18.939239,140,160,194,0,54,-1018
1645,18.950888,140,160,195,0,54,-1021
1646,18.962564,140,160,195,-4,49,-1024
1647,18.974217,140,160,195,0,54,-1020
1648,18.985901,140,160,195,0,51,-1030
1649,18.997569,140,160,195,-1,52,-1020
1650,19.009226,140,160,195,-2,52,-1027
1651,19.020881,140,160,195,1,50,-1032
1652,19.032571,140,160,195,-1,48,-1024
1653,19.044226,140,160,195,2,50,-1022
1654,19.055782,140,160,195,-1,53,-1022
1655,19.067375,140,160,194,0,52,-1022
1656,19.078928,140,160,195,-3,51,-1025
1657,19.090507,140,160,194,-1,51,-1020
1658,19.102046,140,160,194,4,51,-1024
1659,19.113561,140,160,195,0,53,-1018
1660,19.125081,140,160,194,-5,54,-1017
1661,19.136611,140,160,194,0,49,-1021
1662,19.148232,140,160,195,1,47,-1015
1663,19.159883,140,160,195,0,57,-1018
1664,19.171555,140,160,194,-2,49,-1026
1665,19.183203,140,160,194,-3,51,-1020
1666,19.194851,140,160,195,-2,54,-1021
1667,19.206516,140,160,195,-4,51,-1023
1668,19.218188,140,160,194,1,51,-1028
1669,19.229835,140,160,195,-3,51,-1025
1670,19.241545,140,160,194,0,48,-1017
1671,19.253196,140,160,195,-3,54,-1020
1672,19.264765,140,160,195,-2,55,-1022
1673,19.276337,140,160,194,-3,56,-1022
1674,19.287893,140,160,194,0,51,-1021
1675,19.299436,140,160,195,2,50,-1025
1676,19.310984,140,160,194,-1,59,-1023
1677,19.322534,140,160,194,0,53,-1016
1678,19.334075,140,160,195,0,51,-1025
1679,19.34564,140,160,195,-2,51,-1019
1680,19.357334,140,160,195,2,52,-1023
1681,19.369025,140,160,195,0,59,-1025
1682,19.380682,140,160,194,1,56,-1023
1683,19.39236,140,160,194,0,53,-1023
1684,19.404037,140,160,195,0,49,-1022
1685,19.415684,140,160,195,0,52,-1024
1686,19.427337,140,160,195,1,53,-1027
1687,19.438986,140,160,195,-5,51,-1023
1688,19.450668,140,160,195,-1,52,-1018
1689,19.462326,140,160,194,-5,48,-1026
1690,19.473983,140,160,194,-3,53,-1026
1691,19.485665,140,160,194,0,46,-1025
1692,19.497331,140,160,195,0,46,-1019
1693,19.509024,140,160,194,1,52,-1021
1694,19.52069,140,160,194,-1,53,-1024
1695,19.532353,140,160,194,0,47,-1022
1696,19.544042,140,160,195,0,49,-1023
1697,19.555758,140,160,194,1,55,-1024
1698,19.567424,140,160,194,0,56,-1020
1699,19.578993,140,160,195,0,49,-1020
1700,19.590553,140,160,195,1,55,-1020
1701,19.602144,140,160,195,0,52,-1020
1702,19.613706,140,160,195,-1,54,-1022
1703,19.625259,140,160,195,-2,47,-1030
1704,19.636826,140,160,194,-2,53,-1024
1705,19.648358,140,160,194,1,53,-1028
1706,19.659912,140,160,195,0,53,-1020
1707,19.671527,140,160,194,-2,48,-1020
1708,19.6832,140,160,195,0,55,-1029
1709,19.694904,140,160,195,-1,52,-1013
1710,19.706639,140,160,195,0,52,-1024
1711,19.718295,140,160,195,-2,52,-1017
1712,19.729946,140,160,195,-1,54,-1021
1713,19.741599,140,160,195,-1,49,-1013
1714,19.753281,140,160,195,0,53,-1024
1715,19.764959,140,160,194,0,54,-1021
1716,19.776671,140,160,194,1,50,-1022
1717,19.788252,140,160,195,-5,50,-1020
1718,19.799812,140,160,195,1,54,-1020
1719,19.811377,140,160,194,-3,52,-1021
1720,19.822929,140,160,194,-3,52,-1023
1721,19.834504,140,160,195,3,55,-1018
1722,19.846039,140,160,194,0,55,-1016
1723,19.857558,140,160,194,-1,50,-1023
1724,19.869097,140,160,195,0,53,-1019
1725,19.881041,140,160,195,3,55,-1024
1726,19.892892,140,160,194,1,53,-1020
1727,19.904572,140,160,195,3,49,-1024
1728,19.916276,140,160,194,0,52,-1022
1729,19.927951,140,160,194,-1,51,-1021
1730,19.939599,140,160,194,-2,54,-1025
1731,19.951257,140,160,194,0,53,-1023
1732,19.962946,140,160,194,0,54,-1018
1733,19.974587,140,160,194,-2,56,-1026
1734,19.986148,140,160,195,-2,52,-1023
1735,19.997735,140,160,195,-1,50,-1019
1736,20.009304,140,160,195,0,52,-1022
1737,20.020841,140,160,194,-3,54,-1016
1738,20.032362,140,160,195,0,50,-1024
1739,20.043905,140,160,195,-3,53,-1027
1740,20.055458,140,160,195,0,56,-1021
1741,20.067021,140,160,195,0,52,-1023
1742,20.078645,140,160,195,-3,49,-1023
1743,20.090299,140,160,195,-2,53,-1016
1744,20.101952,140,160,195,0,52,-1024
1745,20.113652,140,160,195,-1,50,-1011
1746,20.125314,140,160,195,0,52,-1021
1747,20.136989,140,160,194,0,50,-1021
1748,20.14869,140,160,194,0,49,-1025
1749,20.160357,140,160,194,3,52,-1022
1750,20.172022,140,160,195,-2,54,-1019
1751,20.18356,140,160,195,-2,51,-1019
1752,20.195108,140,160,194,3,51,-1012
1753,20.206685,140,160,194,-2,50,-1020
1754,20.218272,140,160,195,-3,51,-1024
1755,20.229853,140,160,194,0,52,-1021
1756,20.241408,140,160,194,0,53,-1021
1757,20.253004,140,160,194,-2,50,-1021
1758,20.264544,140,160,195,1,52,-1019
1759,20.276109,140,160,194,-2,54,-1029
1760,20.287766,140,160,194,-3,49,-1024
1761,20.299428,140,160,194,-2,54,-1026
1762,20.31108,140,160,195,-2,53,-1015
1763,20.32273,140,160,195,-4,52,-1023
1764,20.334427,140,160,194,1,53,-1021
1765,20.346068,140,160,194,-3,54,-1018
1766,20.357722,140,160,194,-3,54,-1017
1767,20.369411,140,160,195,0,53,-1019
1768,20.381056,140,160,194,-1,49,-1015
1769,20.392594,140,160,194,0,51,-1016
1770,20.404143,140,160,194,-2,56,-1023
1771,20.415701,140,160,195,-1,53,-1019
1772,20.427248,140,160,194,-4,51,-1022
1773,20.438782,140,160,194,1,54,-1026
1774,20.45032,140,160,195,-2,54,-1024
1775,20.461872,140,160,194,1,54,-1022
1776,20.47344,140,160,195,1,47,-1017
1777,20.484992,140,160,194,-1,51,-1021
1778,20.496673,140,160,194,1,50,-1021
1779,20.508352,140,160,195,1,54,-1018
1780,20.52001,140,160,195,-4,54,-1020
1781,20.531664,140,160,194,2,55,-1029
1782,20.543321,140,160,194,-1,57,-1017
1783,20.554963,140,160,194,1,53,-1015
1784,20.566607,140,160,195,1,47,-1020
1785,20.578294,140,160,195,-2,50,-1020
1786,20.590001,140,160,195,0,54,-1024
1787,20.601593,140,160,195,-2,52,-1024
1788,20.613147,140,160,195,-2,51,-1028
1789,20.624754,140,160,195,-1,54,-1022
1790,20.636304,140,160,195,0,52,-1019
1791,20.64785,140,160,194,-1,52,-1025
1792,20.659417,140,160,194,6,55,-1019
1793,20.670992,140,160,194,-2,54,-1022
1794,20.682554,140,160,194,-6,57,-1026
1795,20.694192,140,160,195,-1,54,-1026
1796,20.705852,140,160,194,4,52,-1018
1797,20.717521,140,160,194,0,48,-1029
1798,20.72918,140,160,194,-2,51,-1026
1799,20.740872,140,160,195,0,53,-1025
1800,20.752543,140,160,194,1,53,-1020
1801,20.764185,140,160,194,-1,53,-1023
1802,20.77584,140,160,194,-3,53,-1018
1803,20.787497,140,160,194,0,52,-1025
1804,20.799181,140,160,194,-1,54,-1025
1805,20.81075,140,160,195,2,51,-1022
1806,20.822303,140,160,195,-1,52,-1014
1807,20.833892,140,160,194,2,54,-1016
1808,20.845467,140,160,194,-1,47,-1022
1809,20.857016,140,160,194,1,54,-1021
1810,20.868588,140,160,194,3,53,-1021
1811,20.880136,140,160,195,-2,52,-1017
1812,20.891695,140,160,194,2,49,-1016
1813,20.903313,140,160,194,-2,52,-1023
1814,20.914963,140,160,194,-1,51,-1023
1815,20.926631,140,160,195,0,49,-1025
1816,20.938286,140,160,194,3,52,-1021
1817,20.949932,140,160,195,0,56,-1021
1818,20.96158,140,160,195,-3,49,-1022
1819,20.973272,140,160,195,0,52,-1022
1820,20.984932,140,160,194,0,51,-1020
1821,20.996621,140,160,194,1,47,-1022
1822,21.008168,140,160,195,0,54,-1020
1823,21.019751,140,160,194,-2,51,-1024
1824,21.031338,140,160,194,-2,51,-1016
1825,21.042894,140,160,194,2,48,-1023
1826,21.054457,140,160,194,-1,52,-1022
1827,21.066009,140,160,194,-2,49,-1027
1828,21.077559,140,160,195,-1,51,-1027
1829,21.089106,140,160,194,0,53,-1025
1830,21.100672,140,160,194,0,54,-1024
1831,21.112292,140,160,195,-1,51,-1024
1832,21.123951,140,160,194,0,55,-1019
1833,21.135601,140,160,195,-1,49,-1019
1834,21.147254,140,160,194,-2,57,-1016
1835,21.158933,140,160,194,3,56,-1021
1836,21.170578,140,160,194,1,54,-1015
1837,21.182224,140,160,194,0,52,-1019
1838,21.193939,140,160,194,1,56,-1026
1839,21.205597,140,160,194,0,51,-1023
1840,21.217261,140,160,195,-1,53,-1028
1841,21.228864,140,160,194,-1,51,-1022
1842,21.240425,140,160,194,-2,51,-1021
1843,21.251999,140,160,194,-1,48,-1019
1844,21.263543,140,160,194,0,47,-1022
1845,21.275091,140,160,194,0,55,-1024
1846,21.286646,140,160,195,-2,48,-1021
1847,21.298196,140,160,194,-1,55,-1029
1848,21.309767,140,160,194,1,54,-1020
1849,21.32141,140,160,195,-3,54,-1028
1850,21.333072,140,160,195,-2,50,-1022
1851,21.344757,140,160,194,-1,51,-1019
1852,21.356436,140,160,194,0,47,-1023
1853,21.368081,140,160,194,-3,52,-1027
1854,21.379747,140,160,194,-2,50,-1019
1855,21.391448,140,160,195,-2,49,-1019
1856,21.403095,140,160,195,0,52,-1022
1857,21.414792,140,160,194,-2,51,-1027
1858,21.426443,140,160,194,-1,55,-1018
1859,21.438004,140,160,194,-2,54,-1020
1860,21.449564,140,160,194,0,52,-1025
1861,21.461085,140,160,194,1,52,-1024
1862,21.472601,140,160,195,-4,49,-1021
1863,21.484151,140,160,195,-2,53,-1018
1864,21.49573,140,160,194,0,51,-1022
1865,21.507284,140,160,195,4,49,-1024
1866,21.518881,140,160,194,1,53,-1024
1867,21.53057,140,160,194,-3,52,-1029
1868,21.542233,140,160,194,0,52,-1015
1869,21.553917,140,160,195,0,52,-1016
1870,21.565575,140,160,194,-2,55,-1019
1871,21.577268,140,160,195,-1,57,-1015
1872,21.588928,140,160,194,0,51,-1024
1873,21.600598,140,160,195,4,50,-1028
1874,21.612271,140,160,195,0,54,-1020
1875,21.623935,140,160,195,-2,52,-1017
1876,21.635594,140,160,194,-2,52,-1020
1877,21.647146,140,160,194,-2,51,-1015
1878,21.658705,140,160,194,0,54,-1024
1879,21.670261,140,160,194,0,54,-1027
1880,21.681835,140,160,194,-2,51,-1020
1881,21.693394,140,160,194,-2,50,-1018
1882,21.704982,140,160,195,-1,50,-1024
1883,21.716535,140,160,194,-1,56,-1024
1884,21.728113,140,160,194,6,50,-1017
1885,21.739789,140,160,194,-4,50,-1020
1886,21.751427,140,160,195,-1,53,-1026
1887,21.763096,140,160,194,0,48,-1025
1888,21.774769,140,160,194,-1,54,-1021
1889,21.78642,140,160,195,-1,55,-1025
1890,21.79807,140,160,195,-5,53,-1021
1891,21.809745,140,160,194,-3,53,-1025
1892,21.821397,140,160,195,0,53,-1017
1893,21.833078,140,160,194,-2,51,-1015
1894,21.844763,140,160,195,0,53,-1020
1895,21.85642,140,160,195,1,52,-1021
1896,21.868073,140,160,194,-3,49,-1018
1897,21.879719,140,160,195,-1,52,-1021
1898,21.89137,140,160,194,-1,50,-1022
1899,21.903041,140,160,194,-1,53,-1018
1900,21.914688,140,160,195,-2,52,-1020
1901,21.926333,140,160,195,-3,52,-1023
1902,21.93803,140,160,195,0,52,-1026
1903,21.949664,140,160,195,-1,52,-1020
1904,21.961322,140,160,194,-3,53,-1024
1905,21.973014,140,160,195,0,50,-1023
1906,21.984668,140,160,194,2,50,-1019
1907,21.99634,140,160,194,-1,53,-1021
1908,22.008021,140,160,194,-5,52,-1023
1909,22.019671,140,160,195,-5,50,-1021
1910,22.031318,140,160,195,-4,53,-1025
1911,22.042987,140,160,194,-2,53,-1023
1912,22.054643,140,160,194,-3,54,-1019
1913,22.066222,140,160,195,-1,55,-1020
1914,22.077834,140,160,194,-2,52,-1019
1915,22.089397,140,160,195,-3,52,-1024
1916,22.100985,140,160,195,-3,50,-1022
1917,22.112548,140,160,195,-1,53,-1019
1918,22.124123,140,160,194,2,48,-1030
1919,22.135698,140,160,195,2,49,-1020
1920,22.147248,140,160,195,-7,53,-1025
1921,22.158871,140,160,195,-1,54,-1021
1922,22.170547,140,160,194,-2,50,-1024
1923,22.182205,140,160,195,-1,54,-1017
1924,22.193893,140,160,195,-2,55,-1024
1925,22.20555,140,160,194,1,52,-1017
1926,22.217207,140,160,194,1,52,-1014
1927,22.228892,140,160,194,0,53,-1023
1928,22.240539,140,160,194,-3,50,-1019
1929,22.252202,140,160,195,1,48,-1023
1930,22.263871,140,160,195,1,50,-1018
1931,22.275467,140,160,195,0,54,-1021
1932,22.287023,140,160,194,0,52,-1024
1933,22.298605,140,160,195,1,51,-1015
1934,22.310147,140,160,195,-3,57,-1017
1935,22.321706,140,160,194,-2,53,-1031
1936,22.333261,140,160,194,1,54,-1014
1937,22.344831,140,160,195,-4,49,-1019
1938,22.356371,140,160,194,4,59,-1020
1939,22.368003,140,160,194,-2,47,-1022
1940,22.379664,140,160,195,0,50,-1017
1941,22.391315,140,160,195,1,52,-1016
1942,22.402979,140,160,194,-1,54,-1017
1943,22.414647,140,160,195,0,50,-1030
1944,22.426301,140,160,194,1,52,-1023
1945,22.437948,140,160,194,-3,55,-1017
1946,22.449641,140,160,194,-1,54,-1031
1947,22.461299,140,160,195,1,54,-1019
1948,22.472857,140,160,195,-3,49,-1023
1949,22.484405,140,160,195,3,48,-1021
1950,22.495956,140,160,195,-2,52,-1016
1951,22.507528,140,160,194,-1,47,-1027
1952,22.519078,140,160,194,0,50,-1019
1953,22.530624,140,160,195,2,55,-1023
1954,22.54218,140,160,195,-2,56,-1019
1955,22.553748,140,160,194,-3,50,-1023
1956,22.565363,140,160,195,1,53,-1020
1957,22.577049,140,160,195,-1,53,-1025
1958,22.588748,140,160,195,0,50,-1021
1959,22.600415,140,160,194,-5,55,-1022
1960,22.612068,140,160,195,1,51,-1020
1961,22.623716,140,160,195,1,52,-1026
1962,22.635367,140,160,195,-1,54,-1025
1963,22.647034,140,160,194,2,48,-1025
1964,22.658681,140,160,195,-1,50,-1022
1965,22.670364,140,160,195,0,51,-1022
1966,22.682036,140,160,194,0,52,-1027
1967,22.693655,140,160,194,0,48,-1022
1968,22.705318,140,160,194,-3,51,-1019
1969,22.717009,140,160,194,0,55,-1022
1970,22.72863,140,160,195,1,51,-1023
1971,22.740287,140,160,195,-1,57,-1038
1972,22.75193,140,160,194,0,48,-1019
1973,22.763583,140,160,195,-1,56,-1027
1974,22.775238,140,160,195,-3,54,-1020
1975,22.786903,140,160,195,0,54,-1020
1976,22.798553,140,160,195,0,51,-1023
1977,22.810198,140,160,195,0,50,-1025
1978,22.82185,140,160,195,-2,55,-1019
1979,22.833525,140,160,195,2,51,-1027
1980,22.845182,140,160,194,-1,51,-1018
1981,22.856864,140,160,194,-1,52,-1020
1982,22.868536,140,160,195,2,55,-1024
1983,22.880217,140,160,195,-1,48,-1022
1984,22.891887,140,160,195,0,51,-1017
1985,22.903473,140,160,195,0,48,-1020
1986,22.915017,140,160,194,0,53,-1021
1987,22.926567,140,160,194,0,52,-1024
1988,22.938118,140,160,194,0,53,-1023
1989,22.949688,140,160,194,0,53,-1027
1990,22.961245,140,160,194,-2,50,-1026
1991,22.97286,140,160,195,-3,51,-1019
1992,22.984429,140,160,195,-2,48,-1019
1993,22.996041,140,160,195,0,52,-1021
1994,23.007692,140,160,194,-3,49,-1020
1995,23.019338,140,160,194,-7,52,-1022
1996,23.031017,140,160,195,-2,51,-1021
1997,23.042674,140,160,195,0,52,-1021
1998,23.054318,140,160,194,2,50,-1023
1999,23.065987,140,160,195,-4,50,-1020
