sample,t_s,gyro_x,gyro_y,gyro_z,accel_x,accel_y,accel_z
0,1.6e-05,0,0,0,1018,-4,-1533
1,0.011249,0,0,0,1019,-1,-1535
2,0.022435,0,0,1,1017,-2,-1536
3,0.033616,0,0,1,1020,-2,-1530
4,0.044802,0,0,0,1021,-1,-1533
5,0.055991,0,0,1,1021,0,-1529
6,0.067178,0,0,1,1019,-1,-1536
7,0.078362,0,0,0,1022,-2,-1534
8,0.089545,0,0,0,1021,0,-1532
9,0.100735,0,0,0,1022,-2,-1536
10,0.111919,0,0,0,1020,0,-1530
11,0.123102,0,0,0,1018,-3,-1531
12,0.134289,0,0,0,1022,3,-1530
13,0.145478,0,0,1,1019,0,-1537
14,0.156667,0,0,1,1023,0,-1531
15,0.167858,0,0,1,1018,-1,-1532
16,0.179042,0,0,1,1020,-2,-1534
17,0.190225,0,0,1,1019,0,-1525
18,0.201415,0,0,1,1022,0,-1536
19,0.2126,0,0,1,1019,2,-1535
20,0.223787,0,0,1,1020,1,-1534
21,0.234975,0,0,1,1021,1,-1533
22,0.246158,0,0,1,1022,-2,-1534
23,0.257351,0,0,1,1020,1,-1532
24,0.268543,0,0,0,1017,0,-1539
25,0.279731,0,0,1,1022,0,-1530
26,0.290916,0,0,0,1020,2,-1531
27,0.3021,0,0,0,1022,0,-1535
28,0.313288,0,0,0,1017,-3,-1530
29,0.32447,0,0,0,1020,-6,-1531
30,0.335659,0,0,1,1023,-4,-1537
31,0.346845,0,0,0,1021,-4,-1537
32,0.358033,0,0,1,1022,0,-1534
33,0.369218,0,0,1,1017,2,-1530
34,0.380404,0,0,1,1020,1,-1534
35,0.391593,0,0,1,1021,0,-1527
36,0.402781,0,0,1,1018,3,-1541
37,0.413965,0,0,0,1021,-3,-1543
38,0.425152,0,0,0,1021,-1,-1530
39,0.43636,0,0,0,1020,-5,-1537
40,0.447544,0,0,0,1020,-3,-1537
41,0.458732,0,0,0,1020,-6,-1526
42,0.469918,0,0,1,1021,1,-1534
43,0.481101,0,0,1,1020,1,-1528
44,0.492292,0,0,1,1023,-5,-1535
45,0.503481,0,0,1,1020,1,-1526
46,0.514665,0,0,0,1019,-1,-1535
47,0.525856,0,0,1,1021,-1,-1537
48,0.537041,0,0,0,1020,0,-1537
49,0.548229,0,0,0,1024,0,-1536
50,0.559416,0,0,0,1019,-2,-1531
51,0.570596,0,0,0,1016,-2,-1526
52,0.581786,0,0,1,1021,0,-1534
53,0.592971,0,0,0,1016,2,-1537
54,0.60417,0,0,0,1019,-4,-1527
55,0.615352,0,0,0,1020,0,-1528
56,0.626534,0,0,0,1020,-4,-1535
57,0.637718,0,0,1,1018,1,-1532
58,0.648909,0,0,1,1020,-2,-1537
59,0.660099,0,0,1,1020,0,-1536
60,0.671287,0,0,0,1017,0,-1533
61,0.682469,0,0,1,1017,-2,-1535
62,0.693656,0,0,0,1023,0,-1533
63,0.704847,0,0,0,1027,1,-1525
64,0.715988,0,0,0,1020,0,-1532
65,0.727174,0,0,1,1021,2,-1531
66,0.738357,0,0,0,1021,0,-1533
67,0.749539,0,0,0,1020,0,-1534
68,0.760727,0,0,1,1024,0,-1528
69,0.771912,0,0,0,1021,0,-1533
70,0.783096,0,0,0,1021,-1,-1533
71,0.794281,0,0,1,1020,-2,-1534
72,0.805473,0,0,0,1019,-2,-1525
73,0.816659,0,0,1,1017,-2,-1541
74,0.827849,0,0,0,1019,-4,-1535
75,0.839032,0,0,0,1018,-6,-1536
76,0.850219,0,0,0,1018,-1,-1529
77,0.861413,0,0,0,1022,-2,-1530
78,0.872601,0,0,1,1019,1,-1538
79,0.883785,0,0,0,1022,2,-1535
80,0.894965,0,0,0,1021,0,-1543
81,0.906151,0,0,0,1019,2,-1536
82,0.917336,0,0,0,1027,-1,-1535
83,0.928536,0,0,0,1022,0,-1531
84,0.939719,0,0,1,1020,2,-1534
85,0.950908,0,0,1,1022,-1,-1538
86,0.962094,0,0,1,1019,-1,-1530
87,0.973284,0,0,0,1017,1,-1530
88,0.984476,0,0,1,1020,0,-1531
89,0.995661,0,0,1,1023,1,-1534
90,1.006848,0,0,1,1019,2,-1538
91,1.018031,0,0,1,1023,-1,-1525
92,1.029217,0,0,1,1022,-1,-1531
93,1.040361,0,0,1,1021,-1,-1533
94,1.051545,0,0,1,1019,0,-1533
95,1.062726,0,0,0,1019,0,-1532
96,1.073911,0,0,0,1018,-2,-1533
97,1.085093,0,0,0,1021,0,-1535
98,1.096289,0,0,0,1021,-1,-1526
99,1.107472,0,0,1,1020,2,-1531
100,1.118658,0,0,1,1024,0,-1539
101,1.12984,0,0,1,1020,-6,-1532
102,1.14103,0,0,1,1019,-3,-1536
103,1.152174,0,0,0,1021,2,-1537
104,1.163381,0,0,0,1017,3,-1534
105,1.174568,0,0,0,1021,-1,-1528
106,1.185749,0,0,0,1019,0,-1526
107,1.196911,0,0,1,1022,-2,-1540
108,1.2081,0,0,1,1023,-1,-1534
109,1.219284,0,0,1,1021,-1,-1531
110,1.230469,0,0,0,1020,2,-1536
111,1.241658,0,0,1,1022,0,-1525
112,1.252845,0,0,0,1015,2,-1533
113,1.264037,0,0,0,1026,-3,-1535
114,1.275221,0,0,0,1017,-3,-1526
115,1.286404,0,0,1,1019,-3,-1528
116,1.297591,0,0,0,1018,-1,-1534
117,1.308775,0,0,1,1021,-3,-1538
118,1.319961,0,0,1,1022,0,-1529
119,1.331144,0,0,0,1018,0,-1523
120,1.34233,0,0,1,1023,-4,-1530
121,1.353515,0,0,0,1016,-2,-1536
122,1.364716,0,0,1,1020,0,-1536
123,1.375899,0,0,1,1020,-2,-1533
124,1.387088,0,0,1,1019,-2,-1533
125,1.398272,0,0,1,1021,-2,-1529
126,1.40946,0,0,0,1019,0,-1531
127,1.420652,0,0,1,1020,-3,-1530
128,1.431835,0,0,1,1024,-4,-1530
129,1.443024,0,0,1,1021,0,-1536
130,1.454208,0,0,1,1022,0,-1538
131,1.465396,0,0,0,1017,1,-1537
132,1.476543,0,0,0,1019,0,-1533
133,1.487724,0,0,0,1023,-2,-1536
134,1.498905,0,0,0,1021,-1,-1535
135,1.510089,0,0,1,1017,1,-1534
136,1.521286,0,0,0,1019,-1,-1534
137,1.532477,0,0,0,1024,-1,-1535
138,1.543663,0,0,1,1023,0,-1531
139,1.554843,0,0,1,1020,0,-1538
140,1.566032,0,0,1,1020,-2,-1528
141,1.577215,0,0,1,1021,-4,-1534
142,1.588402,0,0,1,1016,-2,-1531
143,1.599586,0,0,1,1023,-6,-1533
144,1.61077,0,0,1,1023,0,-1538
145,1.621956,0,0,1,1020,-1,-1533
146,1.633138,0,0,1,1020,-2,-1528
147,1.644374,0,0,1,1021,-1,-1538
148,1.655768,0,0,1,1019,0,-1531
149,1.666982,0,0,1,1022,-2,-1531
150,1.678172,0,0,0,1020,0,-1531
151,1.689359,0,0,1,1021,0,-1535
152,1.700544,0,0,0,1018,-2,-1537
153,1.711727,0,0,0,1019,0,-1536
154,1.72291,0,0,1,1021,-4,-1529
155,1.734095,0,0,0,1018,-1,-1535
156,1.745275,0,0,0,1021,2,-1533
157,1.75647,0,0,0,1018,1,-1535
158,1.767659,0,0,0,1018,0,-1535
159,1.778841,0,0,1,1019,-1,-1528
160,1.790029,0,0,0,1021,-3,-1531
161,1.801215,0,0,0,1021,-3,-1530
162,1.812358,0,0,0,1020,0,-1535
163,1.823541,0,0,1,1020,1,-1533
164,1.834721,0,0,1,1018,1,-1532
165,1.84592,0,0,1,1021,-3,-1534
166,1.857102,0,0,0,1017,-2,-1531
167,1.868292,0,0,0,1020,-2,-1529
168,1.879474,0,0,0,1019,-2,-1528
169,1.890678,0,0,0,1019,1,-1529
170,1.901859,0,0,1,1018,0,-1540
171,1.913043,0,0,1,1021,0,-1538
172,1.924226,0,0,1,1022,0,-1529
173,1.935412,0,0,1,1017,0,-1530
174,1.946592,0,0,1,1019,0,-1531
175,1.957776,0,0,0,1016,-2,-1537
176,1.968961,0,0,1,1020,-5,-1538
177,1.980146,0,0,0,1019,-2,-1540
178,1.991327,0,0,0,1023,-2,-1531
179,2.002512,0,0,0,1018,-2,-1531
180,2.013695,0,0,0,1018,0,-1533
181,2.02488,0,0,0,1019,0,-1533
182,2.036066,0,0,1,1021,0,-1533
183,2.047246,0,0,1,1021,0,-1532
184,2.058426,0,0,0,1021,0,-1532
185,2.069608,0,0,1,1020,-3,-1529
186,2.080791,0,0,0,1016,-3,-1533
187,2.091988,0,0,0,1022,1,-1537
188,2.103168,0,0,0,1019,2,-1535
189,2.114351,0,0,1,1022,4,-1529
190,2.125532,0,0,0,1019,2,-1539
191,2.136721,0,0,0,1020,4,-1538
192,2.147902,0,0,0,1023,1,-1530
193,2.159088,0,0,0,1019,3,-1531
194,2.17029,0,0,0,1017,-2,-1540
195,2.181556,0,0,0,1018,1,-1536
196,2.192729,0,0,1,1021,0,-1535
197,2.203913,0,0,1,1024,3,-1534
198,2.215093,0,0,1,1017,0,-1529
199,2.226299,0,0,0,1024,0,-1537
200,2.23748,0,0,1,1022,0,-1526
201,2.248671,0,0,1,1017,0,-1535
202,2.259854,0,0,1,1018,0,-1529
203,2.271034,0,0,1,1021,0,-1542
204,2.282213,0,0,0,1021,-2,-1539
205,2.293398,0,0,0,1017,3,-1527
206,2.304542,0,0,0,1017,0,-1535
207,2.315722,0,0,1,1018,0,-1525
208,2.326903,0,0,0,1021,-1,-1534
209,2.338085,0,0,0,1017,-4,-1526
210,2.349268,0,0,1,1025,-2,-1532
211,2.360472,0,0,1,1023,1,-1531
212,2.371654,0,0,1,1021,-3,-1533
213,2.382834,0,0,1,1022,-1,-1528
214,2.394019,0,0,1,1019,0,-1537
215,2.405238,0,0,0,1019,0,-1533
216,2.416427,0,0,1,1019,-1,-1528
217,2.427608,0,0,1,1021,0,-1530
218,2.438789,0,0,1,1021,0,-1536
219,2.449969,0,0,1,1024,0,-1539
220,2.461148,0,0,0,1022,-2,-1527
221,2.472352,0,0,0,1024,-1,-1541
222,2.483535,0,0,1,1018,0,-1532
223,2.494716,0,0,0,1019,0,-1535
224,2.5059,0,0,1,1021,-1,-1536
225,2.517094,0,0,1,1026,1,-1541
226,2.528284,0,0,1,1022,0,-1531
227,2.539465,0,0,1,1018,1,-1534
228,2.550645,0,0,0,1022,0,-1531
229,2.561832,0,0,1,1018,-1,-1535
230,2.57302,0,0,0,1021,0,-1531
231,2.584187,0,0,1,1020,7,-1534
232,2.59537,0,0,1,1018,0,-1533
233,2.606554,0,0,0,1017,-5,-1531
234,2.617736,0,0,0,1020,-1,-1532
235,2.628911,0,0,1,1021,-4,-1529
236,2.6401,0,0,0,1020,-3,-1536
237,2.651279,0,0,0,1020,-4,-1531
238,2.662461,0,0,1,1021,0,-1526
239,2.673648,0,0,1,1021,3,-1527
240,2.684836,0,0,0,1018,1,-1530
241,2.695988,0,0,1,1018,0,-1530
242,2.707168,0,0,0,1018,0,-1534
243,2.71835,0,0,1,1019,0,-1532
244,2.729534,0,0,0,1019,-2,-1533
245,2.740725,0,0,0,1017,-1,-1540
246,2.751907,0,0,0,1021,3,-1534
247,2.763089,0,0,0,1017,0,-1535
248,2.774271,0,0,0,1021,0,-1536
249,2.785456,0,0,1,1021,0,-1539
250,2.796648,0,0,0,1018,0,-1534
251,2.807832,0,0,1,1022,0,-1535
252,2.819013,0,0,0,1019,0,-1532
253,2.8302,0,0,1,1017,0,-1534
254,2.841393,0,0,1,1017,2,-1529
255,2.852541,0,0,0,1021,0,-1535
256,2.863722,0,0,0,1023,0,-1529
257,2.874902,0,0,0,1023,-4,-1530
258,2.886086,0,0,1,1020,-2,-1537
259,2.897266,0,0,0,1020,-1,-1524
260,2.908463,0,0,1,1021,0,-1538
261,2.91965,0,0,1,1018,-3,-1530
262,2.930831,0,0,1,1021,1,-1537
263,2.942028,0,0,0,1021,0,-1529
264,2.953208,0,0,0,1021,0,-1533
265,2.964356,0,0,1,1021,3,-1537
266,2.975539,0,0,1,1018,-3,-1533
267,2.986721,0,0,1,1019,-2,-1535
268,2.997915,0,0,1,1016,-3,-1536
269,3.0091,0,0,1,1020,0,-1532
270,3.020292,0,0,0,1022,0,-1528
271,3.031475,0,0,0,1020,2,-1534
272,3.042656,0,0,1,1020,0,-1532
273,3.053836,0,0,1,1018,-1,-1540
274,3.065026,0,0,1,1019,1,-1535
275,3.076173,0,0,1,1023,0,-1536
276,3.087355,0,0,1,1019,-2,-1535
277,3.098534,0,0,0,1019,0,-1534
278,3.109714,0,0,1,1023,0,-1527
279,3.12091,0,0,0,1021,-2,-1536
280,3.132099,0,0,1,1020,0,-1534
281,3.143281,0,0,1,1018,-1,-1526
282,3.154464,0,0,1,1021,-2,-1534
283,3.165643,0,0,1,1021,1,-1537
284,3.176838,0,0,0,1023,0,-1530
285,3.187988,0,0,1,1024,3,-1528
286,3.199182,0,0,0,1019,-1,-1535
287,3.210369,0,0,0,1021,-1,-1534
288,3.221553,0,0,0,1017,1,-1537
289,3.232725,0,0,1,1021,-1,-1539
290,3.243905,0,0,1,1021,-4,-1534
291,3.255084,0,0,0,1021,0,-1533
292,3.266266,0,0,0,1021,0,-1536
293,3.277449,0,0,1,1019,-3,-1531
294,3.288629,0,0,1,1020,4,-1528
295,3.299823,0,0,1,1023,-1,-1527
296,3.311009,0,0,1,1014,-4,-1542
297,3.322188,0,0,1,1021,1,-1531
298,3.333371,0,0,1,1019,2,-1525
299,3.344543,0,0,1,1019,-3,-1531
300,3.355725,0,0,0,1020,0,-1530
301,3.366905,0,0,0,1023,0,-1532
302,3.378089,0,0,1,1019,-3,-1533
303,3.389273,0,0,1,1021,-4,-1540
304,3.400466,0,0,1,1018,1,-1533
305,3.41165,0,0,1,1018,-1,-1531
306,3.422832,0,0,0,1021,1,-1531
307,3.434018,0,0,0,1021,2,-1532
308,3.445204,0,0,0,1021,1,-1533
309,3.45636,0,0,1,1021,2,-1541
310,3.467545,0,0,1,1020,0,-1531
311,3.478731,0,0,0,1019,0,-1536
312,3.489915,0,0,0,1022,0,-1536
313,3.5011,0,0,1,1018,2,-1529
314,3.512285,0,0,1,1026,0,-1533
315,3.523465,0,0,1,1017,0,-1532
316,3.534646,0,0,1,1019,-4,-1533
317,3.545827,0,0,1,1020,2,-1530
318,3.557032,0,0,1,1021,5,-1530
319,3.568173,0,0,1,1021,2,-1532
320,3.579356,0,0,1,1018,3,-1533
321,3.590536,0,0,1,1018,-1,-1529
322,3.601716,0,0,1,1018,0,-1538
323,3.612914,0,0,0,1018,-4,-1536
324,3.624099,0,0,1,1019,0,-1542
325,3.635288,0,0,1,1023,-1,-1529
326,3.646485,0,0,0,1021,-4,-1534
327,3.657706,0,0,1,1021,0,-1527
328,3.668903,0,0,1,1016,0,-1530
329,3.680097,0,0,1,1023,0,-1533
330,3.691282,0,0,1,1020,0,-1538
331,3.702465,0,0,0,1021,-1,-1526
332,3.713648,0,0,1,1022,1,-1538
333,3.724841,0,0,1,1021,-2,-1531
334,3.735988,0,0,1,1015,1,-1532
335,3.747174,0,0,1,1020,-3,-1533
336,3.758361,0,0,0,1018,-1,-1529
337,3.769544,0,0,1,1019,0,-1532
338,3.780723,0,0,0,1017,-4,-1531
339,3.791904,0,0,1,1021,4,-1527
340,3.803084,0,0,0,1021,4,-1535
341,3.814266,0,0,1,1020,0,-1531
342,3.825445,0,0,1,1021,0,-1535
343,3.836629,0,0,0,1018,0,-1533
344,3.847813,0,0,1,1020,2,-1538
345,3.858999,0,0,1,1020,-2,-1528
346,3.870182,0,0,1,1019,-3,-1535
347,3.881367,0,0,1,1016,0,-1531
348,3.892541,0,0,1,1023,-1,-1532
349,3.903727,0,0,0,1021,-1,-1527
350,3.914926,0,0,1,1021,-1,-1538
351,3.926113,0,0,1,1019,0,-1537
352,3.937297,0,0,1,1020,-2,-1524
353,3.948491,0,0,1,1019,0,-1542
354,3.959685,0,0,1,1017,0,-1534
355,3.971032,0,0,1,1019,1,-1533
356,3.982703,0,0,0,1017,-1,-1525
357,3.994349,0,0,1,1022,0,-1525
358,4.006016,0,0,1,1016,4,-1534
359,4.017698,0,0,1,1018,1,-1532
360,4.02934,0,0,1,1027,0,-1538
361,4.041005,0,0,1,1021,1,-1538
362,4.05268,0,0,1,1021,0,-1533
363,4.064365,0,0,1,1023,-1,-1529
364,4.076036,0,0,1,1024,-4,-1532
365,4.087685,0,0,0,1020,-1,-1538
366,4.099353,0,0,0,1019,-1,-1531
367,4.111012,0,0,0,1021,-3,-1531
368,4.122661,0,0,0,1025,0,-1531
369,4.134311,0,0,1,1021,0,-1533
370,4.145984,0,0,1,1021,-3,-1525
371,4.157632,0,0,0,1021,0,-1528
372,4.169314,0,0,0,1020,1,-1537
373,4.180984,0,0,0,1019,0,-1535
374,4.192667,0,0,0,1021,1,-1538
375,4.204298,0,0,1,1018,-2,-1531
376,4.215949,0,0,0,1017,-1,-1531
377,4.227607,0,0,0,1021,0,-1529
378,4.239264,0,0,0,1022,-4,-1530
379,4.250912,0,0,0,1021,-1,-1537
380,4.262555,0,0,1,1020,0,-1537
381,4.274228,0,0,1,1021,1,-1531
382,4.285931,0,0,0,1021,-3,-1534
383,4.297601,0,0,1,1020,-2,-1537
384,4.309266,0,0,0,1021,-2,-1541
385,4.320934,0,0,1,1019,2,-1523
386,4.332608,0,0,1,1022,1,-1541
387,4.344284,0,0,1,1022,0,-1536
388,4.355929,0,0,0,1021,0,-1533
389,4.367595,0,0,1,1021,-1,-1532
390,4.379283,0,0,1,1015,0,-1539
391,4.390957,0,0,1,1021,-3,-1539
392,4.402631,0,0,0,1026,0,-1540
393,4.414278,0,0,0,1025,6,-1540
394,4.425929,0,0,0,1021,-1,-1530
395,4.437595,0,0,0,1021,3,-1529
396,4.449269,0,0,1,1015,0,-1531
397,4.460942,0,0,1,1019,2,-1542
398,4.472621,0,0,1,1021,-8,-1529
399,4.484313,0,0,1,1019,0,-1535
400,4.496022,0,0,1,1019,-4,-1537
401,4.507602,0,0,0,1017,3,-1535
402,4.519149,0,0,1,1020,1,-1534
403,4.530717,0,0,0,1022,2,-1531
404,4.542265,0,0,0,1022,3,-1531
405,4.553835,0,0,0,1019,2,-1528
406,4.565381,0,0,0,1021,-2,-1523
407,4.576921,0,0,1,1021,0,-1529
408,4.588507,0,0,1,1020,-2,-1531
409,4.600181,0,0,0,1018,0,-1531
410,4.611852,0,0,1,1021,-1,-1529
411,4.623516,0,0,1,1018,-1,-1534
412,4.635158,0,0,0,1023,0,-1534
413,4.646807,0,0,1,1020,-1,-1529
414,4.658527,0,0,1,1019,1,-1536
415,4.670166,0,0,1,1023,4,-1529
416,4.681812,0,0,1,1020,-3,-1536
417,4.693513,0,0,1,1015,2,-1538
418,4.705165,0,0,0,1016,-1,-1532
419,4.716741,0,0,1,1021,-2,-1537
420,4.728316,0,0,1,1023,0,-1533
421,4.739874,0,0,1,1020,2,-1530
422,4.751475,0,0,1,1024,-5,-1532
423,4.763049,0,0,1,1023,0,-1532
424,4.774592,0,0,1,1023,5,-1527
425,4.786138,0,0,1,1020,-1,-1534
426,4.797736,0,0,0,1022,5,-1534
427,4.809428,0,0,1,1021,1,-1525
428,4.82107,0,0,1,1019,0,-1536
429,4.832738,0,0,0,1021,1,-1532
430,4.844422,0,0,1,1019,0,-1529
431,4.856093,0,0,1,1022,-3,-1538
432,4.86774,0,0,0,1023,-1,-1531
433,4.879402,0,0,1,1021,0,-1539
434,4.89106,0,0,0,1018,-1,-1537
435,4.902702,0,0,0,1020,-2,-1532
436,4.914253,0,0,1,1019,-1,-1530
437,4.925832,0,0,0,1020,0,-1535
438,4.937383,0,0,0,1020,0,-1534
439,4.948934,0,0,1,1018,2,-1532
440,4.9605,0,0,1,1021,-1,-1535
441,4.972069,0,0,1,1021,0,-1534
442,4.983625,0,0,0,1023,0,-1531
443,4.995198,0,0,1,1022,-2,-1532
444,5.006759,0,0,1,1020,0,-1532
445,5.018394,0,0,0,1018,-2,-1533
446,5.030073,0,0,1,1020,2,-1528
447,5.041726,0,0,1,1019,2,-1537
448,5.053387,0,0,0,1022,0,-1533
449,5.065061,0,0,0,1016,1,-1532
450,5.076736,0,0,1,1018,-2,-1535
451,5.08842,0,0,0,1019,-1,-1535
452,5.100091,0,0,1,1019,-1,-1529
453,5.111769,0,0,1,1021,-1,-1525
454,5.123446,0,0,1,1023,-2,-1537
455,5.135009,0,0,0,1024,-6,-1534
456,5.146578,0,0,0,1018,-3,-1533
457,5.158129,0,0,0,1018,-1,-1536
458,5.169703,0,0,1,1016,1,-1527
459,5.181222,0,0,1,1017,1,-1529
460,5.192741,0,0,1,1019,0,-1531
461,5.204265,0,0,1,1020,-3,-1530
462,5.215836,0,0,1,1021,0,-1537
463,5.22745,0,0,1,1018,0,-1528
464,5.239093,0,0,0,1018,0,-1531
465,5.250742,0,0,0,1021,1,-1536
466,5.262391,0,0,1,1021,3,-1537
467,5.274034,0,0,1,1020,0,-1527
468,5.285677,0,0,1,1022,0,-1537
469,5.297339,0,0,1,1021,-2,-1539
470,5.308994,0,0,1,1022,-2,-1535
471,5.320683,0,0,0,1022,1,-1532
472,5.332329,0,0,1,1015,0,-1530
473,5.343883,0,0,1,1021,1,-1533
474,5.355431,0,0,1,1019,1,-1531
475,5.366976,0,0,1,1021,0,-1533
476,5.378554,0,0,0,1018,0,-1530
477,5.390123,0,0,1,1020,0,-1531
478,5.401704,0,0,0,1019,0,-1537
479,5.413229,0,0,0,1020,0,-1535
480,5.424802,0,0,1,1019,0,-1533
481,5.43645,0,0,1,1016,-4,-1536
482,5.448166,0,0,0,1021,-1,-1534
483,5.459839,0,0,0,1024,-1,-1537
484,5.471505,0,0,0,1021,1,-1534
485,5.483159,0,0,0,1019,1,-1535
486,5.494838,0,0,1,1020,-3,-1537
487,5.506495,0,0,0,1019,0,-1536
488,5.518146,0,0,0,1020,1,-1526
489,5.529861,0,0,0,1023,-2,-1532
490,5.541507,0,0,0,1022,-3,-1535
491,5.553072,0,0,1,1021,-3,-1534
492,5.564635,0,0,1,1021,0,-1530
493,5.576188,0,0,0,1018,-2,-1536
494,5.587736,0,0,1,1023,2,-1532
495,5.599277,0,0,1,1020,-1,-1530
496,5.610822,0,0,1,1020,-2,-1538
497,5.622374,0,0,0,1019,0,-1530
498,5.633965,0,0,0,1020,0,-1537
499,5.64562,0,0,0,1015,0,-1530
500,5.65731,0,0,0,1021,0,-1537
501,5.668958,0,0,1,1021,-3,-1533
502,5.680633,0,0,1,1019,0,-1535
503,5.692292,0,0,1,1024,-2,-1537
504,5.704007,0,0,0,1023,2,-1530
505,5.71573,0,0,0,1021,0,-1534
506,5.727404,0,0,0,1025,2,-1532
507,5.739079,0,0,1,1020,-1,-1530
508,5.750778,0,0,0,1020,0,-1527
509,5.762371,0,0,1,1021,0,-1533
510,5.773968,0,0,0,1021,-1,-1535
511,5.785538,0,0,1,1021,-1,-1533
512,5.797104,0,0,1,1020,0,-1532
513,5.808662,0,0,0,1022,0,-1534
514,5.820221,0,0,0,1020,2,-1528
515,5.831786,0,0,0,1021,0,-1534
516,5.843347,0,0,1,1023,1,-1534
517,5.854975,0,0,1,1021,4,-1528
518,5.866663,0,0,0,1019,-1,-1533
519,5.878318,0,0,1,1019,1,-1532
520,5.890008,0,0,1,1024,-1,-1537
521,5.901656,0,0,0,1023,-1,-1530
522,5.913338,0,0,1,1021,0,-1530
523,5.925043,0,0,0,1022,0,-1538
524,5.936707,0,0,0,1024,1,-1530
525,5.9484,0,0,1,1017,1,-1530
526,5.959957,0,0,1,1021,2,-1536
527,5.971504,0,0,0,1019,0,-1536
528,5.983047,0,0,0,1021,-3,-1528
529,5.99459,0,0,1,1018,0,-1531
530,6.006165,0,0,0,1021,1,-1536
531,6.017719,0,0,1,1021,-2,-1540
532,6.029288,0,0,1,1019,-1,-1531
533,6.040833,0,0,1,1021,2,-1534
534,6.052406,0,0,1,1021,1,-1537
535,6.064038,0,0,1,1017,-2,-1537
536,6.07574,0,0,1,1019,0,-1529
537,6.087385,0,0,0,1023,0,-1532
538,6.099035,0,0,1,1021,0,-1533
539,6.110709,0,0,0,1021,0,-1528
540,6.122376,0,0,1,1017,1,-1540
541,6.13405,0,0,0,1019,2,-1534
542,6.145743,0,0,0,1019,0,-1531
543,6.157396,0,0,1,1022,-1,-1533
544,6.169053,0,0,1,1021,-3,-1538
545,6.180638,0,0,1,1021,-1,-1536
546,6.192207,0,0,1,1021,-1,-1525
547,6.203762,0,0,1,1016,1,-1540
548,6.215322,0,0,0,1020,-2,-1531
549,6.226857,0,0,0,1020,1,-1526
550,6.238422,0,0,0,1020,-2,-1533
551,6.249974,0,0,1,1022,0,-1526
552,6.261526,0,0,1,1021,0,-1528
553,6.27319,0,0,1,1021,-2,-1538
554,6.284857,0,0,1,1022,0,-1533
555,6.296541,0,0,0,1018,2,-1530
556,6.308196,0,0,1,1018,-1,-1534
557,6.319866,0,0,1,1022,1,-1536
558,6.331521,0,0,1,1018,0,-1539
559,6.343168,0,0,0,1023,0,-1535
560,6.354828,0,0,1,1021,-1,-1535
561,6.366484,0,0,0,1021,0,-1539
562,6.378141,0,0,0,1023,-2,-1528
563,6.389716,0,0,1,1023,-3,-1530
564,6.401294,0,0,1,1021,0,-1531
565,6.412863,0,0,1,1020,-3,-1532
566,6.424417,0,0,0,1021,0,-1533
567,6.435962,0,0,0,1018,1,-1533
568,6.447509,0,0,0,1019,1,-1530
569,6.459054,0,0,0,1019,3,-1533
570,6.470616,0,0,1,1017,-4,-1531
571,6.482264,0,0,1,1022,0,-1532
572,6.493951,0,0,1,1022,1,-1533
573,6.505654,0,0,1,1019,0,-1530
574,6.517336,0,0,1,1020,-3,-1525
575,6.529001,0,0,0,1022,-2,-1534
576,6.540675,0,0,1,1021,2,-1533
577,6.552296,0,0,1,1021,-3,-1531
578,6.563943,0,0,1,1022,-3,-1537
579,6.575632,0,0,1,1020,-4,-1532
580,6.587296,0,0,1,1021,-1,-1534
581,6.59885,0,0,0,1023,-3,-1536
582,6.610458,0,0,1,1021,0,-1534
583,6.622,0,0,0,1017,-2,-1539
584,6.63355,0,0,0,1020,1,-1533
585,6.645109,0,0,0,1019,2,-1527
586,6.656663,0,0,0,1021,0,-1531
587,6.668208,0,0,1,1022,-3,-1535
588,6.679798,0,0,1,1020,0,-1530
589,6.691416,0,0,1,1018,-1,-1534
590,6.703086,0,0,1,1021,0,-1530
591,6.714739,0,0,0,1019,-1,-1531
592,6.726386,0,0,1,1016,-1,-1529
593,6.738035,0,0,1,1019,0,-1537
594,6.7497,0,0,1,1020,-4,-1532
595,6.761323,0,0,0,1022,-2,-1530
596,6.772985,0,0,1,1018,2,-1536
597,6.784687,0,0,1,1021,0,-1530
598,6.796359,0,0,0,1018,3,-1529
599,6.808024,0,0,0,1024,0,-1534
600,6.819673,0,0,1,1020,-1,-1535
601,6.831312,0,0,1,1019,-2,-1536
602,6.842973,0,0,1,1020,1,-1531
603,6.854629,0,0,0,1023,2,-1534
604,6.866293,0,0,0,1020,-2,-1533
605,6.877966,0,0,0,1021,-1,-1534
606,6.889646,0,0,1,1023,0,-1530
607,6.901335,0,0,0,1022,-1,-1531
608,6.91299,0,0,1,1025,5,-1530
609,6.924669,0,0,1,1023,0,-1545
610,6.936352,0,0,0,1021,-1,-1532
611,6.948024,0,0,1,1020,0,-1532
612,6.95967,0,0,0,1020,0,-1524
613,6.971335,0,0,0,1020,-4,-1531
614,6.983008,0,0,1,1021,0,-1534
615,6.994685,0,0,0,1022,-1,-1527
616,7.006357,0,0,1,1025,1,-1531
617,7.018,0,0,0,1016,2,-1534
618,7.029647,0,0,0,1020,1,-1527
619,7.041348,0,0,1,1022,0,-1530
620,7.053007,0,0,0,1019,1,-1534
621,7.064685,0,0,1,1021,0,-1534
622,7.076356,0,0,1,1022,4,-1535
623,7.088029,0,0,1,1021,-3,-1534
624,7.099666,0,0,1,1023,0,-1529
625,7.111234,0,0,1,1021,0,-1531
626,7.12281,0,0,0,1021,0,-1539
627,7.134354,0,0,1,1021,-2,-1536
628,7.145935,0,0,0,1018,4,-1535
629,7.157475,0,0,1,1021,0,-1535
630,7.168982,0,0,0,1021,1,-1538
631,7.180504,0,0,1,1019,1,-1529
632,7.192023,0,0,1,1021,-2,-1531
633,7.203586,0,0,1,1020,0,-1537
634,7.215204,0,0,0,1018,2,-1527
635,7.226871,0,0,0,1018,-1,-1526
636,7.238542,0,0,1,1022,0,-1534
637,7.250214,0,0,0,1019,-1,-1535
638,7.261862,0,0,1,1021,-1,-1538
639,7.273503,0,0,1,1021,-1,-1535
640,7.285199,0,0,0,1020,0,-1531
641,7.296868,0,0,0,1018,-1,-1535
642,7.308548,0,0,1,1022,0,-1532
643,7.320269,0,0,0,1021,-1,-1533
644,7.33183,0,0,1,1021,2,-1532
645,7.343409,0,0,1,1021,1,-1530
646,7.354991,0,0,0,1022,-1,-1539
647,7.366563,0,0,1,1023,1,-1523
648,7.378115,0,0,1,1018,-1,-1529
649,7.389689,0,0,1,1023,-3,-1534
650,7.401232,0,0,1,1018,-3,-1534
651,7.412762,0,0,1,1021,0,-1527
652,7.424418,0,0,0,1019,0,-1535
653,7.436036,0,0,1,1022,1,-1532
654,7.447685,0,0,1,1019,-1,-1532
655,7.459361,0,0,1,1019,0,-1536
656,7.471006,0,0,1,1022,-1,-1529
657,7.482658,0,0,1,1021,0,-1536
658,7.494331,0,0,1,1021,-2,-1534
659,7.505994,0,0,1,1022,0,-1531
660,7.517638,0,0,1,1021,-2,-1528
661,7.529235,0,0,1,1021,-1,-1535
662,7.54081,0,0,0,1019,0,-1530
663,7.552383,0,0,1,1020,-5,-1525
664,7.56394,0,0,1,1019,-1,-1535
665,7.575485,0,0,1,1021,0,-1532
666,7.587029,0,0,1,1022,2,-1526
667,7.598581,0,0,0,1022,1,-1537
668,7.610179,0,0,1,1019,1,-1531
669,7.621738,0,0,1,1022,3,-1535
670,7.633374,0,0,0,1020,-1,-1533
671,7.645093,0,0,0,1018,-4,-1531
672,7.65702,0,0,1,1020,0,-1530
673,7.668845,0,0,1,1021,1,-1528
674,7.680541,0,0,1,1024,-2,-1536
675,7.692216,0,0,0,1020,1,-1532
676,7.703872,0,0,1,1025,1,-1535
677,7.715526,0,0,0,1022,0,-1534
678,7.727338,0,0,1,1017,0,-1534
679,7.739025,0,0,1,1017,2,-1541
680,7.750604,0,0,1,1025,0,-1533
681,7.762192,0,0,0,1020,5,-1534
682,7.773748,0,0,1,1021,-4,-1535
683,7.785311,0,0,0,1018,-1,-1526
684,7.796881,0,0,0,1020,0,-1526
685,7.808436,0,0,1,1020,-3,-1532
686,7.82001,0,0,1,1018,3,-1537
687,7.831592,0,0,1,1019,-3,-1533
688,7.843244,0,0,1,1019,2,-1531
689,7.854901,0,0,1,1020,1,-1535
690,7.866552,0,0,0,1018,-2,-1539
691,7.878245,0,0,1,1018,-4,-1529
692,7.889883,0,0,1,1019,-3,-1529
693,7.90158,0,0,1,1016,-3,-1529
694,7.913245,0,0,1,1021,-7,-1538
695,7.924917,0,0,1,1021,-2,-1531
696,7.936567,0,0,1,1020,3,-1534
697,7.94824,0,0,1,1021,-1,-1537
698,7.959816,0,0,1,1017,0,-1535
699,7.971361,0,0,1,1021,-3,-1534
700,7.982939,0,0,0,1019,-3,-1537
701,7.994501,0,0,0,1021,-2,-1535
702,8.006047,0,0,1,1019,4,-1535
703,8.017599,0,0,1,1019,-3,-1530
704,8.029175,0,0,0,1018,-1,-1537
705,8.040759,0,0,0,1019,-1,-1535
706,8.052369,0,0,1,1020,1,-1537
707,8.064041,0,0,1,1021,2,-1534
708,8.075689,0,0,0,1019,2,-1531
709,8.087371,0,0,0,1016,-1,-1530
710,8.099025,0,0,0,1020,-1,-1534
711,8.110667,0,0,0,1022,2,-1537
712,8.12233,0,0,0,1021,0,-1530
713,8.133983,0,0,0,1021,-1,-1537
714,8.145642,0,0,1,1020,-2,-1531
715,8.15731,0,0,1,1020,-1,-1529
716,8.168883,0,0,1,1021,-1,-1528
717,8.180447,0,0,0,1019,0,-1536
718,8.192016,0,0,0,1020,-1,-1531
719,8.203567,0,0,0,1018,1,-1532
720,8.215133,0,0,0,1021,0,-1530
721,8.226688,0,0,0,1021,1,-1532
722,8.238237,0,0,1,1020,2,-1534
723,8.249816,0,0,0,1024,-1,-1534
724,8.261449,0,0,0,1021,-2,-1537
725,8.273119,0,0,0,1018,1,-1536
726,8.284803,0,0,0,1021,0,-1532
727,8.296522,0,0,1,1024,1,-1539
728,8.308176,0,0,1,1026,1,-1528
729,8.319856,0,0,1,1018,0,-1536
730,8.331514,0,0,0,1022,1,-1529
731,8.343162,0,0,1,1016,-3,-1539
732,8.354879,0,0,0,1023,0,-1536
733,8.366542,0,0,1,1020,0,-1535
734,8.37811,0,0,1,1019,-1,-1537
735,8.389693,0,0,1,1023,-2,-1532
736,8.401236,0,0,0,1023,2,-1536
737,8.412802,0,0,0,1017,-1,-1531
738,8.424342,0,0,1,1017,0,-1539
739,8.435879,0,0,0,1019,-3,-1528
740,8.44743,0,0,0,1019,-1,-1535
741,8.458999,0,0,1,1020,0,-1533
742,8.470643,0,0,1,1021,0,-1531
743,8.482298,0,0,1,1019,1,-1535
744,8.493981,0,0,1,1016,-3,-1536
745,8.505624,0,0,1,1020,0,-1527
746,8.517328,0,0,0,1018,0,-1536
747,8.528995,0,0,1,1019,-2,-1528
748,8.540669,0,0,1,1020,-1,-1536
749,8.552354,0,0,1,1021,-2,-1535
750,8.564035,0,0,1,1020,-4,-1531
751,8.575714,0,0,0,1021,2,-1531
752,8.587292,0,0,0,1021,-2,-1534
753,8.598834,0,0,1,1018,0,-1532
754,8.610378,0,0,1,1022,2,-1533
755,8.621927,0,0,0,1016,-4,-1526
756,8.633479,0,0,0,1018,0,-1527
757,8.64505,0,0,0,1019,5,-1534
758,8.656617,0,0,0,1021,-1,-1529
759,8.668186,0,0,1,1020,2,-1530
760,8.679839,0,0,1,1018,-2,-1533
761,8.691496,0,0,1,1019,2,-1532
762,8.703147,0,0,0,1023,1,-1536
763,8.714814,0,0,1,1019,-2,-1531
764,8.726491,0,0,0,1022,-1,-1529
765,8.738147,0,0,0,1021,-2,-1539
766,8.749805,0,0,0,1017,1,-1535
767,8.761466,0,0,1,1022,-3,-1527
768,8.773133,0,0,1,1021,-2,-1532
769,8.784784,0,0,1,1022,-1,-1526
770,8.796346,0,0,0,1024,0,-1533
771,8.807893,0,0,0,1017,1,-1531
772,8.819445,0,0,0,1019,2,-1530
773,8.831082,0,0,1,1025,3,-1542
774,8.842666,0,0,1,1019,-6,-1527
775,8.854209,0,0,0,1022,0,-1527
776,8.865748,0,0,1,1020,0,-1529
777,8.877316,0,0,1,1015,2,-1535
778,8.889012,0,0,1,1017,-2,-1537
779,8.900688,0,0,0,1021,-1,-1531
780,8.912354,0,0,1,1019,2,-1536
781,8.924037,0,0,1,1021,0,-1531
782,8.935708,0,0,1,1018,2,-1531
783,8.947357,0,0,1,1021,-1,-1529
784,8.959007,0,0,0,1021,-4,-1530
785,8.970658,0,0,0,1017,0,-1534
786,8.982313,0,0,0,1019,0,-1533
787,8.993977,0,0,1,1025,-1,-1536
788,9.005631,0,0,1,1021,-1,-1529
789,9.017352,0,0,1,1021,0,-1534
790,9.029285,0,0,1,1024,-2,-1531
791,9.041008,0,0,1,1025,-4,-1536
792,9.052676,0,0,0,1019,0,-1540
793,9.06437,0,0,1,1018,-1,-1532
794,9.07604,0,0,0,1019,-3,-1536
795,9.087773,0,0,0,1019,-1,-1534
796,9.099472,0,0,1,1021,-4,-1539
797,9.111054,0,0,1,1020,1,-1534
798,9.122616,0,0,1,1021,1,-1531
799,9.134179,0,0,0,1021,0,-1533
800,9.145737,0,0,0,1022,-1,-1534
801,9.157297,0,0,0,1021,0,-1528
802,9.168862,0,0,0,1023,-1,-1529
803,9.180436,0,0,0,1021,0,-1532
804,9.19208,0,0,0,1018,-4,-1533
805,9.203775,0,0,1,1018,0,-1535
806,9.215443,0,0,1,1019,0,-1534
807,9.227099,0,0,1,1021,-1,-1531
808,9.238757,0,0,1,1021,0,-1530
809,9.250398,0,0,1,1021,1,-1531
810,9.262043,0,0,1,1020,2,-1537
811,9.273714,0,0,0,1019,0,-1535
812,9.285358,0,0,1,1021,1,-1534
813,9.297039,0,0,1,1019,0,-1540
814,9.308721,0,0,0,1017,2,-1531
815,9.320367,0,0,0,1020,0,-1533
816,9.332036,0,0,1,1017,2,-1539
817,9.343714,0,0,1,1020,1,-1532
818,9.355355,0,0,1,1019,1,-1535
819,9.366995,0,0,0,1020,-2,-1531
820,9.378636,0,0,0,1020,2,-1531
821,9.390291,0,0,0,1020,1,-1533
822,9.401969,0,0,0,1018,0,-1534
823,9.413538,0,0,0,1020,0,-1536
824,9.425111,0,0,1,1016,0,-1535
825,9.436677,0,0,0,1020,-8,-1528
826,9.448251,0,0,1,1021,-2,-1532
827,9.459813,0,0,0,1021,2,-1532
828,9.471351,0,0,0,1022,0,-1533
829,9.48289,0,0,0,1021,-2,-1528
830,9.494455,0,0,0,1017,0,-1526
831,9.506107,0,0,0,1015,-2,-1525
832,9.517758,0,0,1,1021,-3,-1532
833,9.529459,0,0,1,1018,3,-1536
834,9.541109,0,0,1,1017,0,-1538
835,9.552795,0,0,1,1021,2,-1542
836,9.564474,0,0,0,1021,2,-1531
837,9.576198,0,0,0,1016,-4,-1529
838,9.587858,0,0,0,1019,4,-1527
839,9.599523,0,0,0,1019,0,-1531
840,9.611198,0,0,1,1017,-1,-1531
841,9.622791,0,0,0,1021,-2,-1537
842,9.634335,0,0,1,1020,-2,-1534
843,9.645888,0,0,1,1022,0,-1527
844,9.65747,0,0,1,1021,-1,-1535
845,9.669044,0,0,1,1016,0,-1538
846,9.680627,0,0,0,1020,-2,-1535
847,9.692184,0,0,0,1019,-1,-1534
848,9.703759,0,0,0,1024,-4,-1530
849,9.715374,0,0,0,1021,0,-1539
850,9.727039,0,0,0,1024,1,-1534
851,9.738738,0,0,0,1018,1,-1530
852,9.750428,0,0,0,1021,0,-1538
853,9.762085,0,0,1,1017,-2,-1529
854,9.773732,0,0,1,1020,0,-1536
855,9.785388,0,0,1,1020,-1,-1533
856,9.797076,0,0,1,1021,-1,-1531
857,9.808747,0,0,1,1021,-2,-1540
858,9.820439,0,0,1,1035,-3,-1525
859,9.832028,0,0,0,1021,-1,-1551
860,9.843577,0,0,1,1019,-6,-1520
861,9.85513,0,0,0,1021,0,-1542
862,9.866686,0,0,1,1021,-5,-1534
863,9.878257,0,0,1,1023,0,-1538
864,9.889811,0,0,1,1012,5,-1529
865,9.901425,0,0,1,1019,5,-1531
866,9.912999,0,0,1,1020,-2,-1528
867,9.924626,0,0,0,1017,-1,-1533
868,9.936297,0,0,0,1021,3,-1527
869,9.948026,0,0,1,1022,-2,-1536
870,9.959682,0,0,0,1018,-5,-1536
871,9.971343,0,0,1,1021,-1,-1529
872,9.982991,0,0,0,1023,0,-1536
873,9.994645,0,0,0,1019,-7,-1533
874,10.006308,0,0,0,1019,-2,-1538
875,10.017979,0,0,0,1015,0,-1531
876,10.029653,0,0,1,1017,0,-1535
877,10.041223,0,0,1,1021,1,-1535
878,10.052758,0,0,1,1021,1,-1534
879,10.064307,0,0,1,1023,-1,-1542
880,10.075846,0,0,1,1025,-2,-1531
881,10.087385,0,0,1,1023,3,-1532
882,10.098925,0,0,0,1022,-2,-1528
883,10.110487,0,0,0,1022,-2,-1534
884,10.122097,0,0,0,1025,-1,-1533
885,10.133732,0,0,1,1018,1,-1535
886,10.145385,0,0,0,1020,1,-1535
887,10.157058,0,0,0,1021,0,-1536
888,10.168732,0,0,1,1021,3,-1533
889,10.180428,0,0,1,1021,-1,-1532
890,10.192114,0,0,1,1019,1,-1531
891,10.203767,0,0,1,1018,0,-1537
892,10.215449,0,0,1,1022,-1,-1531
893,10.227109,0,0,1,1016,0,-1536
894,10.238759,0,0,1,1019,0,-1526
895,10.250315,0,0,1,1019,0,-1537
896,10.261928,0,0,1,1018,-3,-1542
897,10.273472,0,0,1,1019,0,-1529
898,10.284985,0,0,1,1021,0,-1532
899,10.296508,0,0,1,1018,0,-1536
900,10.308024,0,0,1,1022,-1,-1534
901,10.319587,0,0,1,1018,1,-1526
902,10.331133,0,0,1,1022,-1,-1531
903,10.342829,0,0,0,1020,-1,-1533
904,10.354494,0,0,0,1022,-1,-1533
905,10.366138,0,0,0,1018,0,-1533
906,10.377826,0,0,1,1024,-1,-1528
907,10.389481,0,0,1,1018,4,-1530
908,10.401139,0,0,1,1021,-1,-1530
909,10.412808,0,0,0,1022,2,-1529
910,10.424484,0,0,1,1022,0,-1536
911,10.436187,0,0,1,1021,2,-1532
912,10.44785,0,0,1,1024,-1,-1526
913,10.459414,0,0,0,1018,-1,-1530
914,10.470952,0,0,1,1023,2,-1532
915,10.482502,0,0,1,1021,-3,-1532
916,10.494047,0,0,0,1021,0,-1534
917,10.50559,0,0,0,1019,0,-1526
918,10.517142,0,0,1,1018,3,-1530
919,10.528682,0,0,0,1018,2,-1532
920,10.540285,0,0,1,1022,2,-1532
921,10.55197,0,0,1,1018,0,-1530
922,10.563666,0,0,1,1021,1,-1539
923,10.575316,0,0,1,1020,-4,-1532
924,10.586984,0,0,1,1018,-2,-1531
925,10.598706,0,0,1,1020,2,-1534
926,10.610357,0,0,1,1016,-1,-1533
927,10.621998,0,0,1,1020,-4,-1539
928,10.633643,0,0,0,1020,-2,-1536
929,10.645343,0,0,0,1022,0,-1535
930,10.656997,0,0,1,1021,0,-1530
931,10.668553,0,0,0,1022,0,-1535
932,10.680169,0,0,1,1021,2,-1536
933,10.691749,0,0,0,1021,0,-1531
934,10.703293,0,0,1,1019,-4,-1533
935,10.714841,0,0,1,1019,0,-1535
936,10.726385,0,0,1,1021,0,-1533
937,10.737932,0,0,1,1021,-2,-1535
938,10.749491,0,0,1,1020,-3,-1537
939,10.761121,0,0,0,1022,0,-1540
940,10.772802,0,0,0,1020,-3,-1531
941,10.784481,0,0,1,1018,3,-1536
942,10.796155,0,0,0,1017,1,-1535
943,10.80783,0,0,1,1022,-2,-1543
944,10.819483,0,0,1,1021,0,-1529
945,10.831124,0,0,1,1021,0,-1537
946,10.842779,0,0,0,1020,-2,-1530
947,10.854486,0,0,1,1020,-1,-1533
948,10.866136,0,0,1,1019,0,-1532
949,10.877682,0,0,1,1021,-1,-1534
950,10.889226,0,0,1,1020,1,-1538
951,10.900751,0,0,1,1019,0,-1534
952,10.912252,0,0,1,1022,1,-1533
953,10.923799,0,0,1,1020,1,-1537
954,10.935399,0,0,1,1021,0,-1529
955,10.946938,0,0,0,1021,2,-1530
956,10.958497,0,0,1,1020,-1,-1533
957,10.97017,0,0,0,1019,1,-1533
958,10.981833,0,0,0,1022,1,-1529
959,10.993496,0,0,0,1023,-1,-1535
960,11.005176,0,0,1,1018,0,-1529
961,11.016852,0,0,1,1021,-1,-1533
962,11.028548,0,0,0,1021,-1,-1534
963,11.040211,0,0,0,1021,2,-1528
964,11.051928,0,0,0,1023,1,-1530
965,11.063727,0,0,0,1021,0,-1528
966,11.0753,0,0,0,1017,0,-1529
967,11.086882,0,0,1,1023,4,-1540
968,11.098436,0,0,1,1020,1,-1531
969,11.11002,0,0,1,1017,-3,-1542
970,11.121561,0,0,1,1019,0,-1531
971,11.133119,0,0,1,1020,-1,-1531
972,11.144676,0,0,1,1021,0,-1536
973,11.156266,0,0,1,1020,-4,-1528
974,11.167825,0,0,1,1020,0,-1526
975,11.179482,0,0,1,1021,0,-1532
976,11.191127,0,0,1,1022,-4,-1533
977,11.202778,0,0,1,1021,0,-1533
978,11.214468,0,0,1,1020,0,-1541
979,11.22611,0,0,1,1015,-1,-1532
980,11.237759,0,0,0,1025,-4,-1535
981,11.249457,0,0,1,1017,-2,-1531
982,11.261116,0,0,0,1019,0,-1529
983,11.272862,0,0,1,1021,4,-1535
984,11.284415,0,0,1,1021,-2,-1537
985,11.295959,0,0,1,1019,2,-1528
986,11.307542,0,0,0,1020,-4,-1527
987,11.319085,0,0,1,1017,5,-1531
988,11.330628,0,0,1,1021,-1,-1537
989,11.342168,0,0,0,1021,-2,-1530
990,11.353735,0,0,1,1017,1,-1533
991,11.365357,0,0,0,1022,-2,-1535
992,11.376995,0,0,1,1015,0,-1528
993,11.388682,0,0,0,1021,0,-1531
994,11.400356,0,0,1,1020,1,-1534
995,11.41204,0,0,1,1021,-3,-1536
996,11.423734,0,0,1,1018,1,-1535
997,11.435403,0,0,1,1019,4,-1530
998,11.447071,0,0,0,1015,-1,-1528
999,11.458711,0,0,1,1022,-2,-1538
1000,11.470369,0,0,0,1021,0,-1523
1001,11.482036,0,0,0,1020,-2,-1538
1002,11.493692,0,0,0,1019,-3,-1533
1003,11.505327,0,0,0,1020,2,-1536
1004,11.516984,0,0,1,1019,0,-1529
1005,11.528678,0,0,1,1018,-1,-1532
1006,11.540346,0,0,1,1020,2,-1531
1007,11.552019,0,0,1,1019,-1,-1532
1008,11.563681,0,0,1,1022,0,-1533
1009,11.57534,0,0,1,1018,3,-1537
1010,11.587037,0,0,1,1020,-1,-1534
1011,11.598636,0,0,0,1016,-1,-1527
1012,11.610183,0,0,1,1016,0,-1534
1013,11.621861,0,0,1,1018,-4,-1532
1014,11.633416,0,0,0,1023,0,-1530
1015,11.644993,0,0,1,1018,3,-1534
1016,11.656569,0,0,0,1021,0,-1534
1017,11.668161,0,0,1,1020,1,-1533
1018,11.679792,0,0,1,1021,-2,-1536
1019,11.691469,0,0,1,1021,-3,-1533
1020,11.703134,0,0,1,1012,-1,-1532
1021,11.714817,0,0,1,1018,2,-1531
1022,11.726473,0,0,1,1019,0,-1530
1023,11.738144,0,0,1,1020,0,-1532
1024,11.749819,0,0,1,1019,0,-1536
1025,11.761475,0,0,1,1022,1,-1536
1026,11.773133,0,0,1,1021,-3,-1530
1027,11.784834,0,0,1,1022,0,-1534
1028,11.796562,0,0,1,1019,0,-1531
1029,11.808165,0,0,1,1021,2,-1531
1030,11.819729,0,0,1,1022,1,-1535
1031,11.831277,0,0,1,1017,-4,-1533
1032,11.842822,0,0,1,1021,0,-1534
1033,11.854366,0,0,1,1022,2,-1524
1034,11.865939,0,0,0,1021,-5,-1540
1035,11.877486,0,0,1,1021,2,-1531
1036,11.889053,0,0,0,1019,0,-1533
1037,11.900719,0,0,1,1020,0,-1530
1038,11.91242,0,0,1,1018,-1,-1533
1039,11.92409,0,0,1,1018,-1,-1537
1040,11.935739,0,0,1,1021,-3,-1534
1041,11.94739,0,0,1,1022,0,-1530
1042,11.959054,0,0,0,1018,1,-1532
1043,11.970707,0,0,1,1022,1,-1530
1044,11.982362,0,0,1,1020,2,-1537
1045,11.994036,0,0,1,1020,-2,-1532
1046,12.005703,0,0,0,1018,2,-1539
1047,12.017236,0,0,1,1021,1,-1532
1048,12.028791,0,0,1,1019,-3,-1528
1049,12.040341,0,0,0,1036,1,-1532
1050,12.051968,0,0,1,1020,-3,-1536
1051,12.063522,0,0,1,1021,-1,-1528
1052,12.075071,0,0,1,1025,-4,-1533
1053,12.086638,0,0,1,1020,-2,-1532
1054,12.098194,0,0,1,1020,-5,-1535
1055,12.109826,0,0,1,1022,1,-1539
1056,12.121482,0,0,1,1018,1,-1532
1057,12.133138,0,0,1,1021,2,-1545
1058,12.144818,0,0,0,1021,1,-1530
1059,12.156475,0,0,1,1021,0,-1535
1060,12.168182,0,0,0,1019,-3,-1535
1061,12.179835,0,0,0,1020,-2,-1527
1062,12.191479,0,0,0,1021,-3,-1528
1063,12.203139,0,0,1,1019,0,-1540
1064,12.214795,0,0,0,1021,3,-1536
1065,12.226361,0,0,1,1022,0,-1530
1066,12.237937,0,0,1,1023,-1,-1529
1067,12.24951,0,0,1,1016,0,-1525
1068,12.261063,0,0,1,1018,0,-1533
1069,12.272657,0,0,0,1021,0,-1532
1070,12.284275,0,0,1,1022,0,-1535
1071,12.29583,0,0,1,1019,0,-1529
1072,12.307398,0,0,0,1021,-2,-1537
1073,12.319036,0,0,1,1023,-3,-1533
1074,12.330727,0,0,0,1019,-2,-1534
1075,12.342369,0,0,1,1023,-2,-1537
1076,12.354051,0,0,1,1019,-3,-1529
1077,12.365707,0,0,1,1021,2,-1532
1078,12.377356,0,0,0,1020,3,-1533
1079,12.389017,0,0,1,1021,0,-1530
1080,12.400716,0,0,1,1020,0,-1540
1081,12.41238,0,0,1,1021,1,-1537
1082,12.424102,0,0,1,1021,-3,-1538
1083,12.435669,0,0,1,1017,-1,-1536
1084,12.447251,0,0,0,1021,2,-1527
1085,12.458801,0,0,1,1022,-1,-1534
1086,12.470346,0,0,1,1020,2,-1531
1087,12.481893,0,0,1,1023,2,-1527
1088,12.493509,0,0,0,1020,0,-1532
1089,12.505065,0,0,0,1022,-2,-1530
1090,12.516743,0,0,1,1017,2,-1535
1091,12.531384,0,0,1,1019,3,-1533
1092,12.544903,0,0,0,1019,-3,-1533
1093,12.5604,0,0,0,1023,0,-1535
1094,12.573228,0,0,1,1020,-3,-1531
1095,12.58509,0,0,1,1019,-1,-1534
1096,12.596944,0,0,1,1020,-1,-1529
1097,12.608702,0,0,1,1021,0,-1527
1098,12.620361,0,0,1,1020,-1,-1528
1099,12.631847,0,0,1,1020,0,-1536
1100,12.64304,0,0,0,1022,1,-1531
1101,12.654237,0,0,1,1015,1,-1539
1102,12.665429,0,0,1,1021,1,-1531
1103,12.676618,0,0,0,1018,-3,-1531
1104,12.687802,0,0,0,1021,-1,-1535
1105,12.69899,0,0,0,1019,0,-1534
1106,12.710176,0,0,0,1019,3,-1534
1107,12.721364,0,0,0,1016,-2,-1532
1108,12.73255,0,0,0,1023,0,-1532
1109,12.743738,0,0,1,1023,0,-1539
1110,12.754924,0,0,1,1023,0,-1529
1111,12.76611,0,0,1,1018,0,-1537
1112,12.777302,0,0,1,1021,0,-1531
1113,12.788515,0,0,0,1019,0,-1532
1114,12.7997,0,0,1,1021,-1,-1529
1115,12.810886,0,0,1,1018,-2,-1528
1116,12.822069,0,0,0,1021,1,-1528
1117,12.833253,0,0,1,1020,-4,-1534
1118,12.84444,0,0,1,1020,1,-1527
1119,12.855625,0,0,0,1017,-5,-1532
1120,12.866812,0,0,1,1021,-1,-1530
1121,12.877995,0,0,1,1019,5,-1532
1122,12.889181,0,0,1,1021,0,-1530
1123,12.90036,0,0,0,1020,-3,-1528
1124,12.911558,0,0,1,1021,-1,-1539
1125,12.922745,0,0,0,1021,0,-1532
1126,12.933938,0,0,1,1014,0,-1539
1127,12.945121,0,0,1,1021,-4,-1535
1128,12.956309,0,0,1,1023,0,-1534
1129,12.967491,0,0,0,1020,-4,-1534
1130,12.978674,0,0,0,1020,-1,-1532
1131,12.989859,0,0,0,1022,0,-1532
1132,13.00105,0,0,1,1021,-3,-1531
1133,13.012238,0,0,0,1019,-2,-1533
1134,13.023427,0,0,1,1020,0,-1533
1135,13.034613,0,0,1,1021,0,-1530
1136,13.045801,0,0,1,1021,0,-1534
1137,13.057015,0,0,1,1018,0,-1529
1138,13.068223,0,0,1,1018,3,-1532
1139,13.079423,0,0,0,1017,-1,-1526
1140,13.090613,0,0,1,1024,0,-1540
1141,13.101803,0,0,1,1018,1,-1532
1142,13.112991,0,0,0,1019,0,-1536
1143,13.124176,0,0,1,1019,0,-1536
1144,13.135363,0,0,1,1017,1,-1534
1145,13.14657,0,0,1,1021,1,-1536
1146,13.157755,0,0,1,1019,-1,-1531
1147,13.168919,0,0,0,1020,1,-1533
1148,13.180104,0,0,0,1017,0,-1528
1149,13.191289,0,0,1,1022,0,-1535
1150,13.202471,0,0,0,1020,1,-1540
1151,13.21366,0,0,0,1021,0,-1530
1152,13.224855,0,0,1,1022,-2,-1533
1153,13.236047,0,0,1,1020,1,-1530
1154,13.24723,0,0,1,1021,-1,-1531
1155,13.258415,0,0,1,1024,1,-1530
1156,13.269612,0,0,1,1019,-2,-1533
1157,13.280801,0,0,0,1021,0,-1530
1158,13.291988,0,0,0,1018,0,-1527
1159,13.30317,0,0,0,1021,1,-1539
1160,13.314353,0,0,0,1024,1,-1532
1161,13.32555,0,0,1,1021,0,-1537
1162,13.336727,0,0,0,1020,0,-1534
1163,13.347917,0,0,0,1020,-1,-1538
1164,13.359101,0,0,1,1021,0,-1534
1165,13.370291,0,0,0,1021,-2,-1539
1166,13.381475,0,0,0,1018,-1,-1537
1167,13.392665,0,0,1,1020,0,-1540
1168,13.403851,0,0,0,1018,-3,-1529
1169,13.415034,0,0,0,1022,4,-1529
1170,13.426222,0,0,1,1019,0,-1528
1171,13.437407,0,0,1,1018,0,-1529
1172,13.448597,0,0,0,1022,-1,-1538
1173,13.459781,0,0,0,1018,0,-1531
1174,13.470967,0,0,0,1019,2,-1532
1175,13.482153,0,0,1,1020,0,-1526
1176,13.493338,0,0,1,1021,3,-1532
1177,13.504556,0,0,1,1016,-1,-1533
1178,13.515739,0,0,1,1020,0,-1537
1179,13.526922,0,0,0,1021,1,-1538
1180,13.538104,0,0,1,1018,-1,-1536
1181,13.549289,0,0,0,1017,0,-1539
1182,13.560479,0,0,1,1019,0,-1533
1183,13.571664,0,0,1,1021,-1,-1531
1184,13.582847,0,0,1,1018,-1,-1531
1185,13.594032,0,0,1,1021,0,-1529
1186,13.605218,0,0,1,1016,0,-1529
1187,13.616409,0,0,0,1021,1,-1534
1188,13.627604,0,0,0,1019,-1,-1535
1189,13.638796,0,0,0,1019,0,-1537
1190,13.650111,0,0,1,1021,4,-1543
1191,13.661494,0,0,1,1021,-1,-1532
1192,13.672781,0,0,0,1022,6,-1528
1193,13.684073,0,0,0,1020,1,-1531
1194,13.695278,0,0,0,1019,0,-1530
1195,13.706468,0,0,0,1021,-1,-1533
1196,13.717664,0,0,1,1020,0,-1532
1197,13.728853,0,0,1,1018,-5,-1526
1198,13.740045,0,0,1,1021,-1,-1534
1199,13.751238,0,0,1,1020,-1,-1531
1200,13.762423,0,0,1,1023,2,-1537
1201,13.773613,0,0,0,1024,0,-1533
1202,13.784802,0,0,0,1021,0,-1530
1203,13.79599,0,0,0,1021,0,-1529
1204,13.807177,0,0,0,1016,0,-1533
1205,13.818361,0,0,0,1019,1,-1529
1206,13.829547,0,0,0,1022,0,-1526
1207,13.840731,0,0,0,1020,0,-1534
1208,13.851913,0,0,1,1020,0,-1538
1209,13.863129,0,0,0,1019,3,-1528
1210,13.874314,0,0,1,1019,0,-1540
1211,13.885499,0,0,1,1018,0,-1533
1212,13.896685,0,0,1,1019,0,-1529
1213,13.90787,0,0,1,1023,-1,-1540
1214,13.919055,0,0,1,1025,-1,-1531
1215,13.930239,0,0,1,1021,-1,-1529
1216,13.941427,0,0,1,1019,0,-1528
1217,13.952612,0,0,1,1021,5,-1530
1218,13.963797,0,0,1,1015,-2,-1527
1219,13.974995,0,0,1,1021,3,-1538
1220,13.986178,0,0,1,1023,1,-1529
1221,13.997362,0,0,1,1021,1,-1530
1222,14.008543,0,0,1,1021,-5,-1537
1223,14.019735,0,0,0,1020,-1,-1532
1224,14.030918,0,0,0,1019,0,-1538
1225,14.042106,0,0,0,1019,0,-1527
1226,14.053298,0,0,1,1019,-2,-1531
1227,14.064485,0,0,0,1020,-1,-1538
1228,14.075672,0,0,0,1021,0,-1533
1229,14.086857,0,0,0,1018,1,-1531
1230,14.098043,0,0,0,1017,0,-1534
1231,14.109234,0,0,0,1020,-2,-1531
1232,14.120421,0,0,0,1023,-3,-1530
1233,14.131603,0,0,0,1021,0,-1533
1234,14.142785,0,0,0,1018,-3,-1540
1235,14.153969,0,0,1,1023,0,-1541
1236,14.165158,0,0,1,1021,1,-1531
1237,14.176359,0,0,1,1025,0,-1529
1238,14.187541,0,0,1,1020,-3,-1528
1239,14.198725,0,0,0,1019,-1,-1529
1240,14.209917,0,0,1,1019,-5,-1534
1241,14.221113,0,0,1,1020,-4,-1534
1242,14.232298,0,0,1,1021,-1,-1530
1243,14.243483,0,0,0,1017,3,-1527
1244,14.254667,0,0,1,1021,2,-1530
1245,14.265855,0,0,0,1019,0,-1537
1246,14.277042,0,0,1,1018,2,-1531
1247,14.288228,0,0,1,1020,2,-1536
1248,14.29941,0,0,1,1019,0,-1532
1249,14.310595,0,0,1,1019,-2,-1534
1250,14.321785,0,0,1,1021,-1,-1536
1251,14.33298,0,0,1,1021,0,-1532
1252,14.344176,0,0,1,1021,-3,-1529
1253,14.355365,0,0,1,1019,-3,-1533
1254,14.366549,0,0,1,1021,0,-1529
1255,14.377734,0,0,1,1021,-1,-1537
1256,14.388911,0,0,0,1022,0,-1536
1257,14.400101,0,0,1,1020,1,-1536
1258,14.411285,0,0,0,1019,0,-1530
1259,14.422469,0,0,0,1019,0,-1539
1260,14.433658,0,0,1,1021,2,-1538
1261,14.444844,0,0,1,1023,0,-1532
1262,14.456034,0,0,1,1021,-1,-1530
1263,14.467219,0,0,1,1021,-2,-1528
1264,14.478404,0,0,0,1020,0,-1531
1265,14.489589,0,0,1,1021,-1,-1538
1266,14.500775,0,0,0,1021,-3,-1529
1267,14.511958,0,0,1,1021,2,-1534
1268,14.523148,0,0,0,1021,-3,-1534
1269,14.534342,0,0,1,1023,-2,-1528
1270,14.545531,0,0,1,1021,4,-1533
1271,14.556728,0,0,0,1019,2,-1532
1272,14.567909,0,0,1,1022,0,-1538
1273,14.579103,0,0,1,1019,-1,-1537
1274,14.590284,0,0,0,1020,-3,-1533
1275,14.601468,0,0,0,1021,-1,-1534
1276,14.612663,0,0,1,1024,3,-1539
1277,14.623844,0,0,1,1020,1,-1536
1278,14.635031,0,0,1,1021,-2,-1536
1279,14.646216,0,0,1,1021,-3,-1538
1280,14.65741,0,0,1,1017,-1,-1535
1281,14.668598,0,0,1,1023,4,-1535
1282,14.679788,0,0,1,1019,0,-1537
1283,14.690984,0,0,0,1017,-3,-1532
1284,14.702175,0,0,0,1021,2,-1534
1285,14.713361,0,0,1,1021,2,-1531
1286,14.724543,0,0,0,1019,1,-1534
1287,14.735725,0,0,0,1020,-3,-1536
1288,14.746907,0,0,0,1019,0,-1529
1289,14.758092,0,0,0,1019,-3,-1532
1290,14.769277,0,0,1,1018,-2,-1537
1291,14.78047,0,0,0,1018,0,-1539
1292,14.791656,0,0,0,1021,1,-1531
1293,14.802839,0,0,1,1018,0,-1531
1294,14.814028,0,0,1,1020,-4,-1532
1295,14.825212,0,0,0,1021,1,-1526
1296,14.836356,0,0,0,1020,-3,-1532
1297,14.847537,0,0,0,1020,1,-1536
1298,14.858721,0,0,1,1021,1,-1531
1299,14.869901,0,0,1,1019,-3,-1532
1300,14.881099,0,0,0,1019,-4,-1530
1301,14.89229,0,0,1,1022,-1,-1540
1302,14.903473,0,0,1,1021,-2,-1536
1303,14.914655,0,0,0,1021,2,-1532
1304,14.92584,0,0,1,1021,-4,-1530
1305,14.937038,0,0,0,1020,0,-1532
1306,14.948224,0,0,0,1021,0,-1528
1307,14.959414,0,0,1,1020,-3,-1531
1308,14.970599,0,0,0,1020,0,-1532
1309,14.981785,0,0,1,1020,0,-1530
1310,14.99297,0,0,0,1022,0,-1534
1311,15.004167,0,0,1,1020,-3,-1528
1312,15.015351,0,0,1,1021,-3,-1531
1313,15.026532,0,0,1,1021,-2,-1537
1314,15.037721,0,0,0,1024,1,-1538
1315,15.048921,0,0,1,1014,1,-1535
1316,15.060108,0,0,1,1021,0,-1534
1317,15.07129,0,0,0,1021,3,-1531
1318,15.082475,0,0,1,1019,0,-1534
1319,15.093658,0,0,1,1021,2,-1532
1320,15.104842,0,0,1,1019,2,-1531
1321,15.115988,0,0,1,1021,0,-1530
1322,15.127169,0,0,1,1017,-1,-1536
1323,15.138353,0,0,1,1021,-3,-1532
1324,15.14954,0,0,0,1022,3,-1531
1325,15.160727,0,0,0,1022,-1,-1534
1326,15.171911,0,0,0,1020,3,-1533
1327,15.183093,0,0,0,1018,0,-1536
1328,15.194277,0,0,0,1019,-1,-1529
1329,15.205463,0,0,0,1021,0,-1527
1330,15.216653,0,0,0,1019,-2,-1536
1331,15.227838,0,0,0,1019,0,-1536
1332,15.23902,0,0,0,1020,-2,-1532
1333,15.250206,0,0,0,1024,-4,-1535
1334,15.261394,0,0,0,1018,0,-1537
1335,15.272539,0,0,1,1018,-2,-1531
1336,15.283722,0,0,1,1022,-2,-1534
1337,15.294915,0,0,1,1022,-2,-1532
1338,15.306096,0,0,1,1020,0,-1534
1339,15.317281,0,0,0,1020,0,-1536
1340,15.328469,0,0,0,1018,-1,-1532
1341,15.339649,0,0,0,1020,0,-1534
1342,15.350832,0,0,0,1020,0,-1538
1343,15.362026,0,0,1,1023,0,-1530
1344,15.373207,0,0,1,1017,1,-1533
1345,15.384358,0,0,0,1020,-3,-1535
1346,15.395539,0,0,0,1022,-3,-1522
1347,15.406731,0,0,0,1018,-1,-1536
1348,15.417915,0,0,1,1020,0,-1530
1349,15.429099,0,0,1,1020,-2,-1532
1350,15.440286,0,0,1,1019,-1,-1531
1351,15.45147,0,0,1,1020,-2,-1535
1352,15.462657,0,0,1,1021,-3,-1528
1353,15.473839,0,0,1,1018,-1,-1529
1354,15.485024,0,0,1,1021,0,-1537
1355,15.496173,0,0,1,1017,-4,-1535
1356,15.507353,0,0,1,1021,2,-1539
1357,15.518534,0,0,1,1021,1,-1532
1358,15.529715,0,0,1,1019,3,-1534
1359,15.540913,0,0,1,1018,-3,-1529
1360,15.5521,0,0,1,1023,0,-1534
1361,15.563282,0,0,0,1019,2,-1529
1362,15.574467,0,0,1,1018,-1,-1537
1363,15.585652,0,0,1,1019,0,-1535
1364,15.596846,0,0,1,1022,-4,-1534
1365,15.607988,0,0,1,1021,-2,-1534
1366,15.619172,0,0,1,1019,2,-1536
1367,15.630355,0,0,1,1021,0,-1534
1368,15.641555,0,0,1,1021,0,-1535
1369,15.65273,0,0,1,1020,2,-1531
1370,15.663914,0,0,1,1022,1,-1533
1371,15.675096,0,0,1,1021,-1,-1525
1372,15.68628,0,0,1,1021,0,-1532
1373,15.697464,0,0,1,1021,0,-1536
1374,15.708653,0,0,1,1021,3,-1530
1375,15.71984,0,0,0,1021,0,-1534
1376,15.731022,0,0,1,1019,-2,-1526
1377,15.742207,0,0,0,1017,2,-1532
1378,15.753395,0,0,1,1023,-2,-1529
1379,15.764559,0,0,1,1020,1,-1534
1380,15.775744,0,0,0,1022,0,-1536
1381,15.786927,0,0,1,1019,0,-1522
1382,15.798108,0,0,0,1021,1,-1535
1383,15.80929,0,0,0,1027,0,-1531
1384,15.820477,0,0,0,1019,-2,-1531
1385,15.831656,0,0,1,1021,2,-1538
1386,15.842838,0,0,0,1019,0,-1528
1387,15.854023,0,0,0,1017,-1,-1539
1388,15.865205,0,0,1,1017,0,-1533
1389,15.876357,0,0,1,1022,5,-1533
1390,15.887539,0,0,1,1021,1,-1535
1391,15.898719,0,0,1,1020,0,-1537
1392,15.909918,0,0,1,1016,-2,-1535
1393,15.921101,0,0,0,1019,0,-1532
1394,15.932291,0,0,0,1022,-2,-1538
1395,15.9435,0,0,0,1022,-2,-1533
1396,15.954742,0,0,0,1021,-2,-1535
1397,15.965928,0,0,1,1020,0,-1534
1398,15.977109,0,0,1,1025,0,-1536
1399,15.988292,0,0,1,1019,4,-1532
1400,15.9995,0,0,1,1021,1,-1529
1401,16.010686,0,0,1,1020,4,-1535
1402,16.021871,0,0,1,1018,-3,-1532
1403,16.033059,0,0,1,1021,0,-1535
1404,16.044244,0,0,1,1022,0,-1531
1405,16.055431,0,0,1,1019,-3,-1535
1406,16.066617,0,0,1,1017,3,-1536
1407,16.0778,0,0,1,1021,2,-1532
1408,16.088987,0,0,1,1021,2,-1530
1409,16.100174,0,0,1,1020,0,-1543
1410,16.111361,0,0,1,1022,1,-1546
1411,16.122562,0,0,1,1021,-4,-1515
1412,16.133751,0,0,0,1019,2,-1547
1413,16.144913,0,0,1,1025,-1,-1540
1414,16.156099,0,0,1,1018,0,-1541
1415,16.167282,0,0,0,1020,-2,-1527
1416,16.178463,0,0,1,1022,1,-1532
1417,16.189647,0,0,1,1021,1,-1533
1418,16.200839,0,0,1,1016,1,-1530
1419,16.211987,0,0,1,1020,-1,-1529
1420,16.223169,0,0,0,1016,1,-1537
1421,16.234353,0,0,1,1021,2,-1536
1422,16.245534,0,0,0,1019,-2,-1535
1423,16.256726,0,0,0,1019,-1,-1530
1424,16.267909,0,0,0,1021,-1,-1529
1425,16.279088,0,0,0,1021,-2,-1536
1426,16.290271,0,0,0,1019,-1,-1530
1427,16.301455,0,0,1,1021,-1,-1524
1428,16.312655,0,0,1,1016,1,-1530
1429,16.323839,0,0,0,1017,-2,-1534
1430,16.335022,0,0,1,1026,1,-1535
1431,16.346204,0,0,1,1019,0,-1535
1432,16.357404,0,0,0,1020,0,-1531
1433,16.368588,0,0,0,1021,0,-1529
1434,16.379771,0,0,1,1019,3,-1538
1435,16.390955,0,0,1,1021,0,-1527
1436,16.402139,0,0,1,1021,-1,-1534
1437,16.413328,0,0,0,1022,-2,-1533
1438,16.424516,0,0,1,1021,0,-1528
1439,16.435701,0,0,0,1016,0,-1533
1440,16.446888,0,0,1,1017,1,-1531
1441,16.458071,0,0,1,1017,0,-1535
1442,16.469254,0,0,1,1020,-1,-1530
1443,16.480454,0,0,1,1020,0,-1537
1444,16.491645,0,0,1,1022,-4,-1529
1445,16.502832,0,0,1,1020,0,-1535
1446,16.514015,0,0,1,1020,-1,-1533
1447,16.5252,0,0,1,1016,1,-1531
1448,16.536358,0,0,1,1021,-4,-1525
1449,16.54754,0,0,1,1019,0,-1533
1450,16.558723,0,0,0,1019,-3,-1535
1451,16.569921,0,0,1,1017,0,-1532
1452,16.581104,0,0,1,1021,4,-1530
1453,16.592293,0,0,1,1023,-1,-1535
1454,16.603472,0,0,1,1019,0,-1537
1455,16.614654,0,0,1,1019,0,-1531
1456,16.625835,0,0,0,1022,-4,-1534
1457,16.637021,0,0,0,1018,-2,-1531
1458,16.648172,0,0,0,1020,0,-1532
1459,16.659353,0,0,1,1016,-2,-1525
1460,16.670534,0,0,0,1021,-3,-1530
1461,16.681717,0,0,1,1021,2,-1528
1462,16.692908,0,0,0,1020,0,-1531
1463,16.704099,0,0,0,1021,0,-1538
1464,16.715297,0,0,1,1019,1,-1536
1465,16.726481,0,0,1,1020,3,-1529
1466,16.737667,0,0,1,1017,-2,-1536
1467,16.74886,0,0,1,1022,-4,-1531
1468,16.760045,0,0,1,1022,0,-1528
1469,16.771229,0,0,1,1020,0,-1531
1470,16.782411,0,0,1,1016,-1,-1535
1471,16.793594,0,0,0,1021,0,-1537
1472,16.804781,0,0,1,1021,-7,-1532
1473,16.815962,0,0,1,1023,-1,-1537
1474,16.827157,0,0,0,1023,-2,-1540
1475,16.838342,0,0,0,1023,4,-1531
1476,16.849526,0,0,1,1020,-1,-1539
1477,16.860722,0,0,1,1018,0,-1532
1478,16.871906,0,0,1,1021,-2,-1527
1479,16.883087,0,0,1,1021,-1,-1538
1480,16.89427,0,0,1,1017,1,-1539
1481,16.905453,0,0,1,1023,-2,-1531
1482,16.916646,0,0,1,1020,-1,-1534
1483,16.927831,0,0,0,1022,-1,-1532
1484,16.939015,0,0,1,1019,0,-1527
1485,16.950198,0,0,1,1020,0,-1535
1486,16.961383,0,0,1,1021,4,-1535
1487,16.972541,0,0,1,1021,-1,-1532
1488,16.983722,0,0,1,1019,-1,-1528
1489,16.994905,0,0,0,1016,-3,-1532
1490,17.006085,0,0,0,1022,0,-1534
1491,17.017266,0,0,1,1021,-4,-1536
1492,17.028452,0,0,0,1021,2,-1536
1493,17.039634,0,0,0,1020,0,-1530
1494,17.050817,0,0,0,1017,0,-1532
1495,17.062011,0,0,0,1018,1,-1543
1496,17.073195,0,0,0,1021,1,-1534
1497,17.084357,0,0,0,1021,1,-1532
1498,17.095539,0,0,1,1020,-1,-1530
1499,17.10672,0,0,1,1021,0,-1530
1500,17.117915,0,0,1,1024,-4,-1534
1501,17.129099,0,0,1,1019,0,-1532
1502,17.140291,0,0,1,1018,0,-1527
1503,17.151474,0,0,1,1020,-2,-1534
1504,17.162657,0,0,1,1020,0,-1534
1505,17.173838,0,0,0,1024,1,-1533
1506,17.185033,0,0,1,1017,1,-1536
1507,17.196219,0,0,1,1016,-1,-1534
1508,17.207401,0,0,0,1023,0,-1525
1509,17.218585,0,0,0,1022,0,-1535
1510,17.229772,0,0,1,1021,-1,-1528
1511,17.240958,0,0,1,1019,0,-1535
1512,17.252143,0,0,1,1021,-1,-1532
1513,17.263333,0,0,1,1020,1,-1530
1514,17.274516,0,0,1,1019,-3,-1530
1515,17.285707,0,0,1,1018,-3,-1538
1516,17.296903,0,0,1,1021,0,-1532
1517,17.308099,0,0,1,1021,0,-1538
1518,17.319285,0,0,1,1018,0,-1532
1519,17.330467,0,0,1,1017,-2,-1535
1520,17.341652,0,0,0,1021,-2,-1540
1521,17.352845,0,0,0,1022,0,-1533
1522,17.363987,0,0,0,1018,0,-1534
1523,17.375169,0,0,1,1022,0,-1530
1524,17.386352,0,0,1,1019,0,-1528
1525,17.397534,0,0,1,1021,3,-1530
1526,17.408725,0,0,1,1021,-2,-1535
1527,17.41992,0,0,1,1020,-3,-1529
1528,17.431101,0,0,1,1021,0,-1538
1529,17.442285,0,0,0,1023,1,-1527
1530,17.453469,0,0,1,1018,-1,-1526
1531,17.464656,0,0,1,1021,-1,-1535
1532,17.475839,0,0,1,1016,-1,-1528
1533,17.487022,0,0,1,1019,0,-1533
1534,17.498203,0,0,1,1018,-1,-1532
1535,17.509389,0,0,1,1021,2,-1532
1536,17.520543,0,0,1,1020,0,-1535
1537,17.531728,0,0,1,1020,0,-1535
1538,17.542938,0,0,0,1019,4,-1533
1539,17.554126,0,0,1,1016,-1,-1529
1540,17.565324,0,0,1,1020,-2,-1537
1541,17.57651,0,0,1,1020,-2,-1523
1542,17.587693,0,0,1,1019,-7,-1525
1543,17.59888,0,0,1,1025,-4,-1538
1544,17.610071,0,0,0,1019,0,-1528
1545,17.62127,0,0,1,1020,-1,-1532
1546,17.632806,0,0,0,1017,-2,-1528
1547,17.644539,0,0,1,1022,2,-1533
1548,17.656199,0,0,0,1020,0,-1531
1549,17.667853,0,0,0,1022,0,-1538
1550,17.679521,0,0,0,1020,2,-1524
1551,17.691167,0,0,1,1022,0,-1533
1552,17.702815,0,0,0,1024,-1,-1539
1553,17.714481,0,0,1,1019,1,-1526
1554,17.726139,0,0,1,1023,1,-1528
1555,17.737795,0,0,0,1023,-4,-1531
1556,17.749469,0,0,1,1021,0,-1535
1557,17.76114,0,0,1,1021,0,-1540
1558,17.77281,0,0,0,1019,0,-1534
1559,17.784524,0,0,1,1025,4,-1534
1560,17.796184,0,0,1,1021,-2,-1541
1561,17.807828,0,0,0,1021,0,-1528
1562,17.819502,0,0,1,1021,1,-1532
1563,17.831172,0,0,0,1019,0,-1533
1564,17.842862,0,0,0,1019,-1,-1527
1565,17.854409,0,0,0,1020,3,-1532
1566,17.865968,0,0,0,1019,6,-1530
1567,17.877513,0,0,1,1023,0,-1532
1568,17.889062,0,0,1,1021,0,-1533
1569,17.900629,0,0,1,1019,-8,-1536
1570,17.91223,0,0,1,1021,0,-1535
1571,17.923779,0,0,0,1021,-1,-1531
1572,17.935355,0,0,1,1019,-2,-1532
1573,17.946971,0,0,0,1023,0,-1532
1574,17.958634,0,0,1,1020,0,-1530
1575,17.970285,0,0,1,1023,2,-1535
1576,17.981936,0,0,1,1022,0,-1537
1577,17.995889,0,0,1,1018,0,-1531
1578,18.007581,0,0,1,1021,3,-1537
1579,18.019238,0,0,1,1021,0,-1534
1580,18.030892,0,0,0,1023,-2,-1539
1581,18.042569,0,0,0,1022,1,-1536
1582,18.054265,0,0,0,1016,-3,-1536
1583,18.065825,0,0,0,1021,0,-1529
1584,18.077378,0,0,0,1019,-1,-1539
1585,18.088934,0,0,1,1016,0,-1537
1586,18.100507,0,0,0,1020,3,-1530
1587,18.112027,0,0,0,1020,0,-1537
1588,18.123582,0,0,0,1021,0,-1529
1589,18.135141,0,0,0,1020,-1,-1533
1590,18.146709,0,0,1,1020,-1,-1533
1591,18.158404,0,0,0,1022,-1,-1529
1592,18.170065,0,0,0,1016,-4,-1531
1593,18.181734,0,0,1,1019,-1,-1529
1594,18.193393,0,0,1,1015,1,-1529
1595,18.205062,0,0,1,1017,0,-1533
1596,18.216734,0,0,0,1020,2,-1535
1597,18.228409,0,0,1,1021,0,-1535
1598,18.240036,0,0,1,1020,0,-1536
1599,18.251696,0,0,1,1020,0,-1537
1600,18.263366,0,0,1,1023,-2,-1531
1601,18.275024,0,0,0,1021,-1,-1532
1602,18.286695,0,0,1,1022,4,-1532
1603,18.298367,0,0,1,1021,0,-1536
1604,18.310024,0,0,0,1021,1,-1535
1605,18.321669,0,0,0,1018,0,-1534
1606,18.333325,0,0,1,1021,0,-1535
1607,18.344976,0,0,1,1021,1,-1530
1608,18.356696,0,0,1,1023,0,-1533
1609,18.368358,0,0,1,1018,1,-1533
1610,18.380035,0,0,1,1021,-5,-1530
1611,18.391682,0,0,1,1019,-8,-1524
1612,18.403329,0,0,1,1016,0,-1537
1613,18.415,0,0,1,1022,0,-1533
1614,18.426643,0,0,1,1020,-1,-1538
1615,18.438292,0,0,0,1017,0,-1528
1616,18.449941,0,0,0,1016,4,-1533
1617,18.461604,0,0,0,1020,3,-1528
1618,18.473201,0,0,1,1024,-1,-1535
1619,18.484741,0,0,1,1021,3,-1531
1620,18.496331,0,0,1,1022,-1,-1530
1621,18.507874,0,0,0,1021,0,-1531
1622,18.519436,0,0,1,1020,-1,-1530
1623,18.530984,0,0,0,1021,-1,-1536
1624,18.542535,0,0,1,1019,-3,-1527
1625,18.554081,0,0,1,1022,0,-1539
1626,18.565645,0,0,1,1016,1,-1536
1627,18.577297,0,0,0,1021,-3,-1532
1628,18.588981,0,0,0,1019,0,-1532
1629,18.600667,0,0,1,1020,2,-1532
1630,18.612293,0,0,1,1022,-5,-1534
1631,18.623936,0,0,0,1020,0,-1540
1632,18.635581,0,0,1,1017,0,-1530
1633,18.647258,0,0,1,1018,1,-1538
1634,18.658922,0,0,0,1018,1,-1539
1635,18.670585,0,0,1,1017,0,-1536
1636,18.682253,0,0,1,1020,3,-1539
1637,18.693847,0,0,0,1021,0,-1533
1638,18.705423,0,0,1,1019,-1,-1536
1639,18.716986,0,0,0,1022,3,-1535
1640,18.728509,0,0,0,1019,-2,-1527
1641,18.740069,0,0,0,1024,1,-1529
1642,18.751622,0,0,1,1022,3,-1538
1643,18.763172,0,0,1,1024,1,-1533
1644,18.774732,0,0,0,1023,0,-1533
1645,18.786432,0,0,1,1018,0,-1534
1646,18.798144,0,0,1,1019,3,-1536
1647,18.809791,0,0,1,1023,-2,-1533
1648,18.821473,0,0,1,1020,-2,-1534
1649,18.833146,0,0,1,1022,0,-1524
1650,18.844803,0,0,1,1021,-4,-1535
1651,18.856461,0,0,1,1019,-1,-1534
1652,18.868153,0,0,0,1020,0,-1534
1653,18.879822,0,0,1,1020,1,-1535
1654,18.891524,0,0,1,1022,-1,-1531
1655,18.903089,0,0,1,1021,0,-1540
1656,18.914634,0,0,1,1023,1,-1532
1657,18.926194,0,0,0,1017,0,-1534
1658,18.937742,0,0,0,1020,0,-1539
1659,18.949293,0,0,1,1018,0,-1529
1660,18.96087,0,0,1,1016,2,-1535
1661,18.97245,0,0,1,1022,0,-1535
1662,18.984027,0,0,1,1021,0,-1537
1663,18.995646,0,0,1,1020,0,-1533
1664,19.007304,0,0,1,1018,0,-1528
1665,19.01895,0,0,1,1016,-5,-1527
1666,19.030629,0,0,1,1018,-5,-1535
1667,19.042284,0,0,1,1023,2,-1534
1668,19.053934,0,0,0,1021,-1,-1533
1669,19.065581,0,0,0,1024,1,-1531
1670,19.077264,0,0,1,1018,3,-1534
1671,19.088944,0,0,0,1017,-3,-1530
1672,19.100613,0,0,1,1018,-1,-1528
1673,19.112212,0,0,0,1018,-3,-1531
1674,19.123797,0,0,0,1021,0,-1530
1675,19.135358,0,0,0,1020,0,-1528
1676,19.146904,0,0,1,1019,-2,-1538
1677,19.158461,0,0,1,1017,-2,-1526
1678,19.17001,0,0,1,1017,0,-1534
1679,19.181577,0,0,1,1020,0,-1535
1680,19.193216,0,0,1,1020,1,-1533
1681,19.204923,0,0,0,1017,-1,-1537
1682,19.216619,0,0,0,1018,2,-1533
1683,19.228301,0,0,1,1020,0,-1531
1684,19.239953,0,0,0,1017,-2,-1531
1685,19.251615,0,0,1,1022,0,-1533
1686,19.263305,0,0,1,1017,-1,-1535
1687,19.274954,0,0,1,1019,0,-1524
1688,19.286602,0,0,1,1019,-2,-1529
1689,19.298262,0,0,1,1021,0,-1532
1690,19.309821,0,0,0,1020,0,-1537
1691,19.321376,0,0,1,1019,-3,-1536
1692,19.332956,0,0,0,1024,0,-1528
1693,19.344512,0,0,1,1021,-2,-1530
1694,19.356082,0,0,1,1022,-1,-1531
1695,19.367627,0,0,1,1022,4,-1538
1696,19.379197,0,0,1,1019,0,-1538
1697,19.390758,0,0,1,1022,0,-1529
1698,19.402455,0,0,1,1018,-1,-1529
1699,19.414125,0,0,1,1020,0,-1534
1700,19.425775,0,0,1,1020,0,-1539
1701,19.437468,0,0,1,1020,-3,-1538
1702,19.449133,0,0,1,1021,2,-1536
1703,19.460806,0,0,0,1023,3,-1538
1704,19.472485,0,0,1,1022,0,-1531
1705,19.484165,0,0,1,1023,-1,-1536
1706,19.495824,0,0,1,1023,2,-1527
1707,19.507513,0,0,1,1017,-1,-1534
1708,19.519086,0,0,0,1017,0,-1535
1709,19.530637,0,0,0,1021,1,-1535
1710,19.542205,0,0,1,1024,0,-1534
1711,19.553745,0,0,1,1021,1,-1530
1712,19.565291,0,0,1,1021,1,-1532
1713,19.576867,0,0,1,1023,-2,-1539
1714,19.588436,0,0,1,1018,-1,-1528
1715,19.600022,0,0,1,1022,-2,-1535
1716,19.611652,0,0,1,1020,-5,-1536
1717,19.623311,0,0,1,1021,-2,-1536
1718,19.635014,0,0,1,1019,1,-1528
1719,19.64671,0,0,1,1021,-1,-1532
1720,19.658671,0,0,1,1021,0,-1536
1721,19.670468,0,0,1,1021,-3,-1533
1722,19.68214,0,0,0,1020,1,-1534
1723,19.69381,0,0,1,1019,0,-1524
1724,19.705543,0,0,0,1021,2,-1533
1725,19.717219,0,0,1,1022,-3,-1534
1726,19.728937,0,0,0,1021,-2,-1528
1727,19.740591,0,0,1,1023,-3,-1535
1728,19.752292,0,0,1,1019,0,-1536
1729,19.763969,0,0,1,1016,-4,-1529
1730,19.775666,0,0,0,1020,-4,-1534
1731,19.787363,0,0,1,1021,0,-1537
1732,19.799011,0,0,1,1019,-4,-1537
1733,19.810672,0,0,1,1017,0,-1529
1734,19.822384,0,0,0,1020,2,-1533
1735,19.833961,0,0,1,1018,-2,-1531
1736,19.845507,0,0,1,1022,0,-1538
1737,19.857065,0,0,1,1022,-1,-1535
1738,19.868632,0,0,1,1020,-2,-1542
1739,19.880194,0,0,1,1021,-1,-1527
1740,19.891733,0,0,1,1020,0,-1524
1741,19.903273,0,0,1,1021,0,-1534
1742,19.914822,0,0,1,1024,-2,-1532
1743,19.926508,0,0,1,1016,-1,-1537
1744,19.938167,0,0,1,1021,0,-1532
1745,19.949854,0,0,1,1022,-2,-1539
1746,19.961504,0,0,1,1021,-1,-1528
1747,19.973203,0,0,1,1018,3,-1537
1748,19.984887,0,0,1,1019,-3,-1537
1749,19.996546,0,0,1,1019,-5,-1538
1750,20.008284,0,0,1,1017,-1,-1529
1751,20.019965,0,0,1,1020,-1,-1533
1752,20.031631,0,0,0,1021,2,-1535
1753,20.043205,0,0,1,1021,-1,-1536
1754,20.054761,0,0,0,1024,2,-1536
1755,20.066323,0,0,1,1024,3,-1534
1756,20.077862,0,0,1,1018,-3,-1532
1757,20.089402,0,0,1,1023,0,-1537
1758,20.100975,0,0,1,1021,1,-1533
1759,20.112506,0,0,1,1017,3,-1526
1760,20.124036,0,0,1,1021,-5,-1528
1761,20.135654,0,0,0,1016,0,-1532
1762,20.147336,0,0,0,1018,0,-1531
1763,20.158982,0,0,1,1018,-1,-1532
1764,20.170635,0,0,1,1018,0,-1531
1765,20.182287,0,0,1,1019,0,-1530
1766,20.193934,0,0,0,1021,-2,-1533
1767,20.205581,0,0,0,1021,-1,-1531
1768,20.217255,0,0,1,1014,4,-1534
1769,20.228939,0,0,1,1020,0,-1533
1770,20.240656,0,0,1,1015,-1,-1534
1771,20.25221,0,0,1,1023,0,-1532
1772,20.263751,0,0,1,1018,0,-1529
1773,20.275298,0,0,0,1019,0,-1533
1774,20.286843,0,0,0,1016,0,-1540
1775,20.298416,0,0,0,1021,0,-1536
1776,20.309965,0,0,0,1022,-1,-1533
1777,20.32154,0,0,1,1021,0,-1533
1778,20.333125,0,0,1,1023,-3,-1530
1779,20.344784,0,0,0,1015,0,-1534
1780,20.356461,0,0,1,1022,0,-1530
1781,20.368117,0,0,1,1021,2,-1525
1782,20.37979,0,0,0,1020,0,-1532
1783,20.391464,0,0,1,1019,0,-1526
1784,20.403123,0,0,1,1021,3,-1531
1785,20.414761,0,0,0,1020,2,-1533
1786,20.426407,0,0,1,1022,1,-1531
1787,20.438085,0,0,0,1021,0,-1531
1788,20.44974,0,0,0,1021,0,-1535
1789,20.461316,0,0,1,1020,-1,-1531
1790,20.472875,0,0,1,1021,-1,-1530
1791,20.484437,0,0,1,1017,0,-1533
1792,20.496016,0,0,1,1019,-1,-1532
1793,20.50759,0,0,0,1020,-4,-1536
1794,20.519169,0,0,0,1023,-2,-1537
1795,20.530711,0,0,1,1018,-1,-1533
1796,20.542271,0,0,1,1021,-4,-1529
1797,20.553898,0,0,1,1019,-2,-1535
1798,20.565585,0,0,0,1017,0,-1534
1799,20.577257,0,0,1,1020,3,-1534
1800,20.588944,0,0,0,1021,0,-1532
1801,20.600613,0,0,1,1016,-4,-1535
1802,20.612293,0,0,1,1021,-1,-1530
1803,20.623966,0,0,1,1020,-1,-1537
1804,20.635625,0,0,1,1020,-1,-1529
1805,20.647291,0,0,1,1020,0,-1538
1806,20.658945,0,0,1,1022,0,-1528
1807,20.670555,0,0,1,1020,-1,-1530
1808,20.682108,0,0,1,1019,-1,-1533
1809,20.693679,0,0,0,1018,-3,-1531
1810,20.705229,0,0,1,1019,-2,-1535
1811,20.716735,0,0,0,1018,-1,-1533
1812,20.728267,0,0,1,1019,2,-1533
1813,20.739814,0,0,1,1021,0,-1533
1814,20.751445,0,0,0,1017,-2,-1531
1815,20.763145,0,0,1,1020,-3,-1528
1816,20.774799,0,0,1,1020,-3,-1533
1817,20.786467,0,0,0,1022,0,-1532
1818,20.798117,0,0,0,1020,0,-1531
1819,20.809766,0,0,0,1018,0,-1533
1820,20.821534,0,0,0,1018,-2,-1534
1821,20.83336,0,0,0,1021,0,-1531
1822,20.845075,0,0,1,1020,0,-1531
1823,20.85676,0,0,1,1021,1,-1530
1824,20.86848,0,0,1,1023,0,-1540
1825,20.88007,0,0,0,1024,-1,-1535
1826,20.891653,0,0,0,1021,-1,-1532
1827,20.903209,0,0,0,1019,-3,-1533
1828,20.914759,0,0,0,1022,1,-1538
1829,20.926318,0,0,0,1021,-3,-1531
1830,20.937859,0,0,1,1021,1,-1534
1831,20.949406,0,0,1,1018,0,-1530
1832,20.960998,0,0,1,1020,-1,-1530
1833,20.97267,0,0,1,1022,1,-1533
1834,20.984372,0,0,0,1019,1,-1527
1835,20.996038,0,0,1,1020,-2,-1536
1836,21.007713,0,0,0,1017,-3,-1537
1837,21.019378,0,0,1,1021,-3,-1534
1838,21.031024,0,0,1,1019,0,-1535
1839,21.042675,0,0,1,1022,-2,-1533
1840,21.054367,0,0,1,1017,0,-1538
1841,21.066026,0,0,1,1019,1,-1531
1842,21.077689,0,0,0,1019,3,-1533
1843,21.089254,0,0,1,1020,0,-1531
1844,21.100828,0,0,1,1021,-1,-1532
1845,21.112394,0,0,1,1019,3,-1528
1846,21.123966,0,0,1,1021,1,-1534
1847,21.13551,0,0,0,1021,1,-1533
1848,21.147059,0,0,0,1021,-2,-1530
1849,21.158612,0,0,1,1019,-1,-1529
1850,21.170195,0,0,1,1021,1,-1528
1851,21.181812,0,0,1,1023,0,-1527
1852,21.193469,0,0,1,1017,-1,-1542
1853,21.205125,0,0,0,1021,1,-1532
1854,21.216801,0,0,0,1018,-2,-1534
1855,21.228456,0,0,1,1018,-6,-1530
1856,21.240155,0,0,1,1023,-3,-1528
1857,21.251834,0,0,1,1020,-2,-1530
1858,21.263502,0,0,1,1020,0,-1529
1859,21.275176,0,0,1,1018,-3,-1530
1860,21.286843,0,0,1,1020,0,-1534
1861,21.298414,0,0,1,1020,0,-1529
1862,21.309968,0,0,1,1021,2,-1532
1863,21.32157,0,0,0,1021,3,-1529
1864,21.333128,0,0,1,1018,-1,-1532
1865,21.344691,0,0,1,1021,0,-1535
1866,21.356257,0,0,0,1022,-3,-1532
1867,21.367807,0,0,0,1018,-2,-1536
1868,21.379359,0,0,0,1023,-5,-1530
1869,21.390976,0,0,0,1018,3,-1534
1870,21.402626,0,0,1,1020,0,-1537
1871,21.414288,0,0,0,1018,6,-1537
1872,21.425956,0,0,1,1020,3,-1536
1873,21.437618,0,0,1,1020,-1,-1535
1874,21.449287,0,0,0,1022,2,-1533
1875,21.460947,0,0,1,1021,0,-1536
1876,21.47267,0,0,0,1021,-1,-1535
1877,21.484369,0,0,1,1019,-4,-1538
1878,21.496034,0,0,0,1017,-2,-1532
1879,21.507583,0,0,1,1021,-3,-1533
1880,21.519126,0,0,1,1021,1,-1532
1881,21.53067,0,0,1,1018,1,-1531
1882,21.542221,0,0,1,1022,0,-1539
1883,21.553817,0,0,1,1018,0,-1535
1884,21.56537,0,0,1,1021,-1,-1536
1885,21.576937,0,0,1,1020,4,-1533
1886,21.588507,0,0,1,1021,3,-1535
1887,21.600206,0,0,1,1021,1,-1521
1888,21.611867,0,0,1,1017,0,-1534
1889,21.62354,0,0,1,1021,-5,-1533
1890,21.635205,0,0,1,1020,-1,-1535
1891,21.646862,0,0,0,1020,-1,-1532
1892,21.658511,0,0,1,1018,0,-1532
1893,21.670163,0,0,1,1021,-1,-1532
1894,21.681809,0,0,1,1019,0,-1528
1895,21.693475,0,0,1,1024,0,-1532
1896,21.705057,0,0,1,1020,-1,-1529
1897,21.716626,0,0,1,1023,1,-1526
1898,21.728189,0,0,0,1023,-1,-1530
1899,21.739721,0,0,0,1019,2,-1529
1900,21.751253,0,0,1,1017,2,-1534
1901,21.762792,0,0,1,1014,4,-1534
1902,21.774338,0,0,0,1020,0,-1534
1903,21.785933,0,0,0,1020,1,-1535
1904,21.797524,0,0,0,1020,-2,-1534
1905,21.809177,0,0,0,1019,0,-1530
1906,21.82086,0,0,1,1021,-3,-1534
1907,21.832532,0,0,1,1021,-3,-1537
1908,21.844195,0,0,0,1015,0,-1536
1909,21.85589,0,0,1,1021,-1,-1534
1910,21.867547,0,0,1,1020,-3,-1526
1911,21.879213,0,0,1,1022,-2,-1538
1912,21.890881,0,0,0,1020,1,-1534
1913,21.902539,0,0,0,1021,1,-1532
1914,21.914231,0,0,0,1017,-1,-1533
1915,21.925811,0,0,0,1021,0,-1529
1916,21.937369,0,0,1,1021,2,-1534
1917,21.948935,0,0,1,1019,1,-1537
1918,21.960508,0,0,0,1021,-3,-1534
1919,21.972067,0,0,1,1021,0,-1537
1920,21.983611,0,0,1,1021,-3,-1526
1921,21.995186,0,0,1,1017,0,-1533
1922,22.006745,0,0,0,1021,0,-1531
1923,22.01836,0,0,1,1018,0,-1534
1924,22.030014,0,0,1,1022,-3,-1540
1925,22.041676,0,0,1,1027,2,-1534
1926,22.053344,0,0,0,1019,0,-1531
1927,22.064999,0,0,0,1019,1,-1532
1928,22.076684,0,0,1,1018,-1,-1538
1929,22.088357,0,0,1,1023,-3,-1526
1930,22.100032,0,0,1,1022,-4,-1532
1931,22.111713,0,0,1,1017,0,-1535
1932,22.123375,0,0,1,1021,-3,-1535
1933,22.134936,0,0,1,1018,-1,-1535
1934,22.146528,0,0,0,1020,0,-1532
1935,22.158086,0,0,1,1020,-3,-1536
1936,22.169658,0,0,1,1020,1,-1540
1937,22.181224,0,0,1,1018,6,-1536
1938,22.192746,0,0,1,1022,-2,-1530
1939,22.204316,0,0,0,1018,-2,-1536
1940,22.215881,0,0,0,1019,-2,-1535
1941,22.227515,0,0,1,1022,-5,-1539
1942,22.239179,0,0,1,1023,1,-1528
1943,22.250831,0,0,0,1021,0,-1533
1944,22.262495,0,0,1,1020,0,-1535
1945,22.274143,0,0,1,1023,0,-1528
1946,22.285785,0,0,1,1016,1,-1532
1947,22.297474,0,0,0,1021,2,-1530
1948,22.309134,0,0,1,1025,0,-1534
1949,22.320809,0,0,0,1018,-3,-1530
1950,22.332479,0,0,1,1023,-3,-1534
1951,22.344024,0,0,1,1021,0,-1542
1952,22.355577,0,0,0,1022,1,-1532
1953,22.367186,0,0,1,1019,-1,-1537
1954,22.378747,0,0,1,1023,0,-1533
1955,22.390308,0,0,0,1021,1,-1537
1956,22.401851,0,0,1,1021,1,-1536
1957,22.413411,0,0,1,1020,1,-1533
1958,22.424996,0,0,1,1014,0,-1534
1959,22.436626,0,0,1,1018,-5,-1540
1960,22.448298,0,0,0,1021,0,-1534
1961,22.459961,0,0,1,1020,-3,-1532
1962,22.471611,0,0,1,1018,3,-1533
1963,22.483262,0,0,0,1022,-2,-1531
1964,22.494898,0,0,1,1021,0,-1541
1965,22.506548,0,0,1,1019,-1,-1537
1966,22.518231,0,0,1,1019,0,-1528
1967,22.529895,0,0,1,1019,0,-1532
1968,22.541594,0,0,1,1019,-1,-1530
1969,22.553176,0,0,1,1017,0,-1536
1970,22.564736,0,0,0,1024,1,-1532
1971,22.576265,0,0,1,1021,-1,-1531
1972,22.587816,0,0,1,1022,0,-1533
1973,22.599383,0,0,1,1020,-1,-1535
1974,22.610931,0,0,0,1018,1,-1534
1975,22.622486,0,0,0,1017,2,-1541
1976,22.634069,0,0,0,1021,0,-1532
1977,22.645758,0,0,0,1021,-1,-1537
1978,22.657466,0,0,0,1021,-2,-1527
1979,22.669128,0,0,1,1023,0,-1532
1980,22.680821,0,0,1,1021,-1,-1530
1981,22.692489,0,0,1,1024,0,-1539
1982,22.704167,0,0,1,1019,-1,-1533
1983,22.715825,0,0,0,1022,2,-1536
1984,22.727484,0,0,1,1020,-1,-1531
1985,22.739173,0,0,1,1018,3,-1531
1986,22.750833,0,0,0,1021,-3,-1535
1987,22.762398,0,0,0,1021,2,-1531
1988,22.773955,0,0,0,1024,-3,-1534
1989,22.785502,0,0,1,1020,-1,-1532
1990,22.797055,0,0,1,1021,0,-1535
1991,22.808625,0,0,1,1018,0,-1529
1992,22.820184,0,0,0,1021,1,-1528
1993,22.831734,0,0,0,1020,0,-1535
1994,22.843313,0,0,1,1021,0,-1528
1995,22.854933,0,0,1,1022,0,-1535
1996,22.866598,0,0,1,1022,0,-1538
1997,22.878253,0,0,0,1015,2,-1532
1998,22.889926,0,0,1,1018,0,-1530
1999,22.901593,0,0,1,1020,0,-1531
