sample,t_s,gyro_x,gyro_y,gyro_z,accel_x,accel_y,accel_z
0,1.9e-05,1,1,1,1048,0,-1565
1,0.01178,1,2,1,1046,1,-1556
2,0.023445,2,0,0,1048,1,-1564
3,0.035131,0,-2,2,1048,5,-1557
4,0.046781,1,1,1,1046,1,-1555
5,0.058435,0,-1,3,1048,1,-1561
6,0.070114,0,-1,2,1048,2,-1563
7,0.081765,1,1,2,1045,0,-1563
8,0.093421,-1,1,-1,1048,0,-1555
9,0.105096,-1,-1,0,1047,-2,-1561
10,0.11676,0,0,2,1046,-1,-1554
11,0.128424,1,-1,1,1048,-2,-1562
12,0.140185,0,0,0,1049,0,-1559
13,0.151861,0,-2,0,1044,0,-1557
14,0.163469,2,0,0,1046,0,-1562
15,0.175019,-1,0,0,1047,1,-1559
16,0.186579,0,2,0,1045,4,-1564
17,0.198132,1,2,-1,1049,2,-1563
18,0.209677,1,-1,-1,1047,0,-1560
19,0.221231,1,1,1,1047,0,-1559
20,0.232809,2,2,1,1042,0,-1567
21,0.244379,-1,1,2,1045,0,-1563
22,0.256043,-1,1,0,1045,0,-1563
23,0.267729,1,0,2,1045,1,-1558
24,0.279394,0,1,5,1049,-1,-1553
25,0.291053,2,-1,2,1049,-3,-1552
26,0.302728,1,0,1,1049,1,-1559
27,0.314383,2,-1,0,1046,3,-1559
28,0.326033,0,0,1,1050,3,-1563
29,0.337686,2,2,3,1047,0,-1561
30,0.349346,-1,0,2,1049,3,-1561
31,0.361011,0,0,-1,1046,0,-1559
32,0.372683,1,0,1,1043,0,-1563
33,0.384353,0,-1,0,1044,-1,-1561
34,0.396028,0,2,1,1046,0,-1553
35,0.407688,1,0,1,1048,0,-1560
36,0.419334,-2,1,2,1041,0,-1565
37,0.430997,0,-2,1,1049,0,-1556
38,0.442648,0,0,-2,1047,2,-1567
39,0.454317,0,2,2,1042,-1,-1554
40,0.465972,1,-1,0,1049,1,-1561
41,0.477639,2,0,2,1050,-1,-1563
42,0.489288,1,-1,2,1047,1,-1554
43,0.500939,1,2,1,1046,3,-1558
44,0.512625,0,0,0,1047,-1,-1556
45,0.524287,0,1,1,1051,0,-1562
46,0.535942,0,1,2,1046,0,-1560
47,0.547641,-1,0,1,1049,2,-1564
48,0.55926,0,0,1,1044,-1,-1560
49,0.57083,1,1,2,1049,1,-1564
50,0.582381,-2,-1,2,1044,0,-1565
51,0.593949,2,2,2,1043,0,-1561
52,0.605495,-1,0,0,1052,2,-1560
53,0.617054,1,1,2,1047,4,-1560
54,0.628608,-1,0,1,1048,1,-1557
55,0.640152,2,-1,2,1047,1,-1563
56,0.651724,1,0,1,1045,0,-1555
57,0.66337,2,0,2,1046,1,-1562
58,0.675034,0,1,1,1045,-3,-1563
59,0.686707,0,-4,1,1048,2,-1567
60,0.698379,1,3,5,1043,1,-1560
61,0.710036,1,-1,0,1048,-3,-1559
62,0.721679,1,1,1,1048,-2,-1558
63,0.733333,-2,1,0,1046,1,-1557
64,0.745016,-1,1,-1,1047,-1,-1551
65,0.756691,-1,0,1,1046,-4,-1559
66,0.768387,1,1,2,1050,0,-1558
67,0.780036,1,0,1,1043,-1,-1563
68,0.791711,0,0,0,1047,0,-1559
69,0.803403,0,-1,1,1046,-1,-1560
70,0.815058,1,0,2,1048,-1,-1549
71,0.826743,0,-1,0,1046,0,-1556
72,0.838388,1,0,3,1044,2,-1560
73,0.850042,1,2,0,1045,-2,-1560
74,0.861707,1,1,0,1046,1,-1565
75,0.873435,0,0,-1,1045,0,-1557
76,0.8851,-1,2,0,1046,1,-1562
77,0.896736,-1,0,-1,1046,0,-1554
78,0.908344,-1,0,1,1045,0,-1562
79,0.919899,1,0,1,1047,1,-1561
80,0.931484,0,1,2,1042,0,-1557
81,0.943054,0,0,3,1047,3,-1559
82,0.954609,1,-2,0,1047,3,-1555
83,0.966218,-1,-1,1,1045,-3,-1558
84,0.977772,1,-1,0,1048,3,-1557
85,0.989442,0,2,2,1047,0,-1557
86,1.001111,-1,1,1,1041,2,-1558
87,1.012795,0,1,0,1048,-2,-1561
88,1.024465,1,0,-1,1045,0,-1556
89,1.036157,0,-1,2,1046,0,-1561
90,1.047832,-1,2,3,1045,-5,-1560
91,1.059518,2,-1,-1,1046,0,-1558
92,1.071175,0,1,3,1047,0,-1560
93,1.082866,-1,1,3,1044,0,-1559
94,1.09452,1,-1,1,1049,-1,-1559
95,1.106085,0,2,3,1045,2,-1556
96,1.117632,1,1,2,1044,0,-1563
97,1.129192,0,-1,0,1049,-1,-1559
98,1.140744,0,-1,2,1048,1,-1559
99,1.152339,1,1,2,1046,0,-1562
100,1.163895,1,-1,3,1045,1,-1556
101,1.175476,0,0,1,1041,3,-1562
102,1.187031,-1,-1,3,1047,0,-1564
103,1.198656,-1,0,2,1044,3,-1556
104,1.210308,-1,-1,0,1049,0,-1559
105,1.221962,0,0,1,1048,-3,-1556
106,1.233633,1,0,2,1051,1,-1560
107,1.245285,1,-1,-1,1046,0,-1554
108,1.256934,1,1,1,1047,2,-1556
109,1.268618,0,-1,2,1042,0,-1563
110,1.280288,-1,0,0,1047,-1,-1559
111,1.291944,1,-2,3,1045,-2,-1561
112,1.3035,0,1,0,1047,0,-1557
113,1.315078,2,1,2,1049,4,-1557
114,1.326627,-1,-1,2,1046,0,-1561
115,1.338207,2,1,0,1045,0,-1559
116,1.349748,0,-1,3,1043,0,-1559
117,1.361303,-1,2,2,1044,-2,-1555
118,1.372854,0,1,2,1047,1,-1561
119,1.384406,2,-1,1,1044,0,-1558
120,1.395983,0,0,1,1045,2,-1561
121,1.407703,1,1,0,1047,0,-1566
122,1.419389,3,0,0,1049,0,-1558
123,1.43104,-1,2,-1,1049,3,-1560
124,1.442691,0,2,3,1041,0,-1568
125,1.45436,1,1,2,1051,2,-1561
126,1.466021,0,0,2,1045,0,-1560
127,1.477671,0,2,0,1046,-4,-1556
128,1.489323,0,0,0,1045,0,-1557
129,1.501012,1,0,2,1046,1,-1565
130,1.512659,0,1,4,1047,1,-1558
131,1.52425,2,2,2,1050,-1,-1561
132,1.535861,1,-1,2,1045,0,-1558
133,1.547474,0,1,3,1044,0,-1555
134,1.559022,1,2,-1,1044,-2,-1559
135,1.570582,1,0,1,1043,-2,-1560
136,1.58213,-1,-2,2,1041,2,-1558
137,1.593677,1,1,1,1049,0,-1561
138,1.605238,-2,0,1,1045,3,-1562
139,1.61694,0,-2,0,1047,0,-1556
140,1.628626,2,0,1,1045,-2,-1561
141,1.640293,1,-1,2,1049,2,-1557
142,1.651952,0,1,2,1050,-1,-1561
143,1.663652,1,1,1,1048,0,-1562
144,1.67531,0,-3,1,1045,2,-1558
145,1.686963,1,0,1,1046,0,-1563
146,1.69864,1,0,1,1046,1,-1555
147,1.710304,1,0,3,1043,-3,-1558
148,1.72197,1,0,1,1048,0,-1557
149,1.733555,1,1,1,1047,0,-1564
150,1.745111,0,1,1,1049,0,-1558
151,1.756733,0,1,-1,1046,-1,-1554
152,1.768302,2,-1,1,1050,-1,-1558
153,1.779868,0,0,2,1049,-2,-1556
154,1.791487,-2,0,-1,1044,0,-1565
155,1.803049,1,1,3,1044,0,-1561
156,1.81462,1,-1,1,1044,0,-1557
157,1.826241,1,0,2,1050,0,-1555
158,1.837903,1,4,1,1045,-1,-1562
159,1.849557,2,-2,1,1042,1,-1560
160,1.861235,3,0,0,1044,2,-1560
161,1.872893,1,1,-2,1046,-3,-1567
162,1.884555,0,0,3,1047,2,-1561
163,1.896258,1,2,1,1044,0,-1559
164,1.907917,1,2,1,1048,-1,-1563
165,1.919586,2,-1,2,1045,0,-1551
166,1.93126,0,1,0,1047,0,-1562
167,1.942826,0,1,2,1048,-1,-1558
168,1.954417,0,0,1,1045,0,-1564
169,1.965967,0,1,2,1047,-1,-1562
170,1.977521,-1,0,1,1047,2,-1560
171,1.989097,0,0,1,1046,1,-1562
172,2.000649,1,-1,2,1049,0,-1560
173,2.012237,0,2,2,1046,2,-1557
174,2.023791,-1,1,0,1043,-4,-1560
175,2.035451,1,0,1,1043,0,-1562
176,2.047137,-1,1,1,1043,0,-1562
177,2.058824,0,0,2,1045,-1,-1561
178,2.070479,1,1,0,1047,3,-1562
179,2.082158,1,0,1,1045,1,-1561
180,2.093804,0,2,0,1047,0,-1559
181,2.105454,1,0,0,1049,-1,-1558
182,2.117162,0,0,3,1049,0,-1561
183,2.128828,1,0,3,1041,0,-1562
184,2.140559,0,0,1,1044,0,-1557
185,2.15216,-1,-1,2,1050,0,-1563
186,2.16374,-2,-1,1,1042,0,-1560
187,2.17534,-1,1,1,1048,0,-1562
188,2.186894,1,1,2,1047,0,-1556
189,2.198477,-1,2,1,1045,1,-1557
190,2.210029,-2,-1,0,1049,-1,-1552
191,2.221579,1,-1,1,1049,0,-1556
192,2.23315,2,0,1,1048,1,-1553
193,2.24483,0,-1,3,1046,1,-1557
194,2.256539,1,0,1,1048,0,-1561
195,2.268201,2,-1,1,1049,-1,-1556
196,2.27989,0,-2,0,1046,2,-1567
197,2.291524,-1,0,1,1051,0,-1557
198,2.303177,1,1,1,1044,3,-1559
199,2.314863,0,0,2,1047,0,-1555
200,2.326527,2,-2,0,1045,3,-1564
201,2.338204,1,2,2,1049,0,-1560
202,2.34987,0,3,2,1047,0,-1558
203,2.361486,-1,0,0,1047,0,-1565
204,2.37304,2,1,3,1047,-2,-1561
205,2.384608,0,-1,1,1045,-1,-1561
206,2.396157,-1,-1,0,1048,3,-1563
207,2.407719,1,1,3,1048,0,-1558
208,2.419247,0,0,2,1047,-2,-1559
209,2.430793,1,-2,2,1044,0,-1552
210,2.442364,0,-1,3,1047,0,-1559
211,2.454053,0,0,0,1048,0,-1561
212,2.46572,1,-2,1,1047,2,-1562
213,2.477391,1,0,0,1050,2,-1560
214,2.489053,1,2,0,1048,0,-1559
215,2.500737,1,1,2,1045,-2,-1560
216,2.512421,0,2,1,1046,-1,-1558
217,2.524078,0,0,2,1047,2,-1558
218,2.535784,2,-2,2,1046,0,-1559
219,2.547456,-1,0,2,1051,0,-1557
220,2.559026,0,-1,2,1045,-1,-1559
221,2.5706,-1,0,3,1050,-1,-1559
222,2.582161,1,0,2,1048,-1,-1557
223,2.59373,0,3,2,1045,-2,-1559
224,2.605275,-2,1,1,1048,0,-1565
225,2.616834,-1,2,2,1046,-1,-1561
226,2.628393,2,-1,1,1050,2,-1558
227,2.639969,2,0,2,1047,-1,-1560
228,2.651516,-1,1,3,1048,0,-1557
229,2.66318,1,0,1,1044,1,-1559
230,2.674833,1,0,3,1048,-2,-1552
231,2.686528,1,1,1,1047,-2,-1560
232,2.69818,0,2,0,1046,1,-1558
233,2.709838,0,0,2,1044,0,-1568
234,2.72151,0,2,-1,1044,-3,-1566
235,2.733173,0,1,1,1046,-2,-1565
236,2.744833,1,1,2,1045,1,-1565
237,2.756512,0,0,0,1047,-4,-1562
238,2.768176,0,1,2,1049,-1,-1562
239,2.779835,1,0,0,1048,-4,-1565
240,2.791521,-1,-1,1,1050,0,-1558
241,2.803177,1,0,1,1046,-1,-1555
242,2.81482,-1,-1,1,1047,0,-1557
243,2.826469,0,1,3,1044,1,-1556
244,2.838149,1,0,2,1047,1,-1563
245,2.84982,0,1,0,1051,2,-1558
246,2.861468,0,0,2,1047,2,-1557
247,2.873162,0,-1,0,1046,0,-1560
248,2.884808,0,-2,1,1048,0,-1564
249,2.896459,1,-1,2,1045,-2,-1559
250,2.908131,2,1,0,1049,1,-1556
251,2.919776,0,-1,1,1048,-1,-1553
252,2.931442,-1,-2,2,1047,-4,-1562
253,2.9431,0,0,3,1048,0,-1559
254,2.954803,1,2,0,1046,3,-1562
255,2.966454,0,-1,1,1049,-3,-1562
256,2.978124,0,0,0,1048,1,-1557
257,2.989784,0,0,2,1046,2,-1563
258,3.00144,-1,0,1,1047,-3,-1558
259,3.013092,2,3,-2,1045,0,-1561
260,3.02476,-1,0,-1,1051,1,-1556
261,3.036445,0,-1,1,1044,0,-1556
262,3.048124,1,-2,1,1048,2,-1561
263,3.059786,0,1,1,1051,0,-1552
264,3.071365,1,0,0,1047,-1,-1558
265,3.082914,0,-1,0,1045,3,-1562
266,3.094461,0,0,1,1042,0,-1553
267,3.106006,-1,1,0,1046,0,-1559
268,3.117578,0,1,2,1047,2,-1563
269,3.12916,-1,-2,1,1049,-3,-1556
270,3.140738,0,-1,-1,1048,2,-1560
271,3.152288,0,1,1,1046,2,-1560
272,3.163865,3,-1,2,1046,0,-1555
273,3.175523,-1,1,1,1047,0,-1569
274,3.187182,0,2,1,1046,0,-1563
275,3.198835,0,0,2,1050,0,-1561
276,3.210507,-1,2,2,1050,0,-1555
277,3.22216,1,0,2,1047,0,-1554
278,3.233807,2,1,1,1043,-1,-1558
279,3.245459,-1,0,2,1050,-4,-1557
280,3.257102,1,1,0,1048,0,-1560
281,3.268805,1,2,2,1048,0,-1560
282,3.280464,1,2,-2,1042,-1,-1560
283,3.292037,1,0,1,1044,2,-1557
284,3.303621,-1,1,2,1046,0,-1563
285,3.315171,0,-1,1,1048,0,-1557
286,3.326753,0,1,2,1046,-3,-1564
287,3.33831,0,0,1,1048,2,-1552
288,3.349871,-1,-1,0,1044,-4,-1556
289,3.361415,0,-2,1,1048,1,-1561
290,3.37298,0,3,2,1047,3,-1563
291,3.384606,-1,-2,1,1051,4,-1559
292,3.396285,1,0,0,1045,1,-1558
293,3.407966,1,0,1,1046,0,-1559
294,3.419645,1,3,4,1048,1,-1566
295,3.431324,1,-1,0,1045,1,-1562
296,3.442991,1,1,1,1046,0,-1562
297,3.454663,-1,0,4,1042,-1,-1560
298,3.466319,1,-1,1,1047,2,-1555
299,3.477994,0,0,0,1047,1,-1556
300,3.489658,2,-1,-1,1042,-1,-1558
301,3.501308,1,0,0,1046,0,-1556
302,3.512961,1,-2,1,1047,1,-1568
303,3.524641,0,1,1,1047,1,-1553
304,3.536293,0,2,1,1046,-3,-1563
305,3.547948,1,-1,0,1049,0,-1557
306,3.559641,-2,1,1,1048,0,-1551
307,3.571298,-2,0,3,1048,-1,-1559
308,3.582974,1,1,2,1044,0,-1564
309,3.594648,2,-1,1,1048,0,-1559
310,3.606205,0,0,0,1045,-1,-1557
311,3.617758,1,1,0,1046,1,-1563
312,3.629323,-1,1,1,1044,-1,-1563
313,3.640874,-1,1,0,1049,-1,-1555
314,3.652501,1,0,2,1045,-2,-1555
315,3.664055,1,0,0,1044,1,-1560
316,3.675627,1,-1,1,1048,0,-1558
317,3.687183,1,-1,-1,1047,0,-1562
318,3.698812,0,1,0,1046,-5,-1560
319,3.710469,0,1,1,1044,3,-1557
320,3.722138,0,-1,3,1044,2,-1553
321,3.733812,-2,-2,-1,1045,0,-1563
322,3.745462,1,1,2,1047,1,-1556
323,3.757117,3,3,-2,1044,0,-1567
324,3.768815,-1,0,1,1042,1,-1562
325,3.780528,0,-2,-2,1046,1,-1561
326,3.79221,1,1,1,1045,0,-1564
327,3.803891,0,-2,2,1047,-2,-1558
328,3.815502,0,0,0,1047,-3,-1561
329,3.827052,1,1,2,1047,0,-1556
330,3.838619,1,0,2,1046,2,-1570
331,3.850174,0,0,1,1043,-1,-1563
332,3.861743,1,0,1,1045,0,-1555
333,3.873289,-2,0,1,1047,2,-1558
334,3.884843,0,0,1,1046,0,-1559
335,3.896409,-2,0,1,1044,1,-1553
336,3.908045,0,-1,0,1047,-3,-1561
337,3.919707,0,-1,0,1045,4,-1559
338,3.931391,1,0,1,1050,-3,-1559
339,3.943051,1,-1,0,1050,3,-1563
340,3.954701,2,1,-2,1045,1,-1556
341,3.966362,-1,0,2,1047,0,-1557
342,3.978032,1,2,1,1044,0,-1564
343,3.989696,1,-1,2,1047,0,-1563
344,4.001361,0,2,2,1044,-1,-1558
345,4.013018,0,-1,1,1043,1,-1556
346,4.024615,0,0,3,1046,-4,-1558
347,4.036225,-1,0,4,1050,-4,-1562
348,4.047783,0,2,1,1049,0,-1556
349,4.059385,1,1,1,1048,0,-1558
350,4.070931,2,2,2,1046,-2,-1558
351,4.082489,-1,0,-2,1044,0,-1559
352,4.094047,1,1,1,1044,-1,-1566
353,4.105634,1,0,1,1045,0,-1557
354,4.117259,0,1,0,1044,0,-1557
355,4.128929,1,0,4,1048,-1,-1563
356,4.140621,-1,1,0,1049,0,-1563
357,4.152317,-1,0,-1,1043,-5,-1563
358,4.163971,0,1,0,1051,3,-1559
359,4.17566,0,1,0,1049,0,-1560
360,4.187325,-1,0,2,1046,-2,-1558
361,4.19898,0,0,2,1047,-1,-1562
362,4.210666,1,-1,2,1045,-1,-1558
363,4.222324,-1,0,2,1046,0,-1566
364,4.233886,1,0,1,1044,1,-1572
365,4.245441,-2,-2,0,1048,5,-1564
366,4.257001,0,0,2,1053,2,-1563
367,4.268583,0,-1,1,1047,2,-1554
368,4.280148,0,3,2,1049,3,-1556
369,4.291753,-2,0,0,1046,0,-1560
370,4.303311,0,-1,2,1046,1,-1560
371,4.314893,0,0,3,1048,-1,-1562
372,4.326511,1,1,1,1046,-1,-1559
373,4.338188,1,3,3,1052,4,-1565
374,4.349842,1,1,0,1046,2,-1556
375,4.361489,0,2,1,1047,-1,-1565
376,4.373171,1,-2,1,1045,0,-1557
377,4.38483,0,-2,-1,1046,-6,-1562
378,4.39648,2,-2,1,1044,0,-1558
379,4.408173,0,0,1,1047,-1,-1557
380,4.419851,1,2,1,1047,-1,-1560
381,4.431501,3,0,2,1046,1,-1562
382,4.443076,-1,2,2,1051,-1,-1560
383,4.454637,1,1,1,1048,0,-1563
384,4.466189,0,0,1,1046,5,-1558
385,4.477752,1,0,2,1045,2,-1559
386,4.489297,0,0,2,1047,4,-1566
387,4.500853,-2,0,1,1047,-1,-1563
388,4.512455,1,1,1,1047,1,-1564
389,4.523989,0,1,2,1047,0,-1560
390,4.535647,1,1,4,1045,0,-1556
391,4.547335,0,-1,2,1047,-1,-1562
392,4.558998,2,0,2,1046,2,-1560
393,4.570661,0,0,0,1047,5,-1557
394,4.582313,-2,1,2,1047,0,-1557
395,4.593969,0,0,3,1047,3,-1561
396,4.605627,0,1,0,1048,0,-1560
397,4.617288,1,1,2,1045,0,-1565
398,4.628959,1,0,-1,1048,1,-1555
399,4.640622,-1,0,3,1047,-1,-1562
400,4.652205,1,0,0,1047,0,-1559
401,4.663748,1,0,2,1043,2,-1557
402,4.6753,0,-1,2,1047,0,-1563
403,4.686869,0,-2,1,1048,0,-1552
404,4.698423,0,-1,2,1048,0,-1560
405,4.709998,1,-1,3,1051,2,-1552
406,4.721548,1,0,1,1045,0,-1561
407,4.733163,0,0,1,1048,2,-1560
408,4.744793,0,-1,1,1043,0,-1558
409,4.756451,0,0,1,1046,0,-1565
410,4.768106,-1,1,2,1046,4,-1559
411,4.779786,1,1,0,1044,-3,-1564
412,4.791446,-2,0,0,1048,1,-1560
413,4.8031,-1,1,1,1046,0,-1564
414,4.814784,-1,1,0,1050,1,-1562
415,4.826443,1,2,3,1049,1,-1560
416,4.838114,-2,0,2,1043,-1,-1560
417,4.849802,-1,-1,0,1049,1,-1559
418,4.861371,0,1,0,1052,0,-1560
419,4.872933,0,2,2,1051,-1,-1559
420,4.884529,0,1,3,1046,0,-1564
421,4.89612,-1,1,0,1049,-2,-1562
422,4.907671,1,0,-1,1047,-5,-1558
423,4.919262,-1,0,2,1044,0,-1561
424,4.930813,1,-1,2,1045,1,-1560
425,4.942398,1,1,1,1046,0,-1565
426,4.954065,0,-1,0,1045,-1,-1564
427,4.965721,0,1,1,1048,0,-1556
428,4.977397,0,1,2,1046,-1,-1560
429,4.989057,-1,0,1,1043,-3,-1560
430,5.00073,1,1,2,1047,0,-1561
431,5.012425,1,-2,1,1047,1,-1563
432,5.024095,-1,0,1,1043,1,-1555
433,5.035788,0,0,1,1045,0,-1558
434,5.047464,0,1,2,1048,0,-1560
435,5.059172,0,-1,1,1044,2,-1563
436,5.070759,-2,1,2,1045,1,-1558
437,5.082307,-2,1,1,1049,0,-1565
438,5.09386,1,3,0,1049,-1,-1564
439,5.105405,-1,-1,0,1050,0,-1562
440,5.116988,-1,1,3,1047,-4,-1553
441,5.128536,0,-2,1,1048,2,-1559
442,5.140098,0,0,2,1048,1,-1560
443,5.151667,1,-2,2,1048,1,-1560
444,5.163329,1,0,1,1047,2,-1558
445,5.174982,0,-1,-1,1051,-2,-1559
446,5.186672,-1,-1,-1,1051,0,-1562
447,5.198335,0,-1,2,1047,2,-1554
448,5.209985,0,-1,2,1045,0,-1558
449,5.221639,0,1,1,1052,-3,-1556
450,5.233335,1,0,0,1049,0,-1556
451,5.244983,2,2,2,1047,4,-1563
452,5.256715,0,2,1,1042,-1,-1562
453,5.268395,0,2,-1,1045,0,-1564
454,5.27999,1,1,1,1045,0,-1556
455,5.29155,0,-2,2,1046,-3,-1562
456,5.303132,0,1,2,1042,1,-1561
457,5.314687,0,0,0,1046,0,-1557
458,5.326262,1,0,1,1048,0,-1559
459,5.337806,-2,-1,1,1050,6,-1555
460,5.34937,-1,0,1,1043,-2,-1556
461,5.360935,1,2,2,1044,1,-1560
462,5.372556,1,1,0,1048,0,-1560
463,5.384225,-1,0,0,1045,0,-1564
464,5.395897,-2,2,3,1046,-3,-1563
465,5.407519,2,0,1,1046,0,-1564
466,5.419191,1,0,1,1047,-3,-1557
467,5.430841,1,-1,2,1047,0,-1560
468,5.442493,2,-1,3,1046,2,-1555
469,5.454168,0,0,1,1045,-2,-1562
470,5.465837,2,0,1,1047,3,-1553
471,5.477499,1,1,2,1048,0,-1563
472,5.489062,1,0,1,1049,0,-1565
473,5.500641,1,-1,2,1044,2,-1559
474,5.512243,2,0,2,1045,0,-1558
475,5.523804,1,1,1,1044,-1,-1566
476,5.535395,1,0,0,1047,0,-1561
477,5.546939,0,1,2,1046,0,-1564
478,5.55849,0,0,2,1045,3,-1560
479,5.570062,2,2,0,1043,0,-1560
480,5.581686,2,-1,1,1044,0,-1565
481,5.593337,-1,0,0,1042,-2,-1555
482,5.604992,1,-1,1,1045,0,-1560
483,5.616712,1,0,2,1044,-6,-1558
484,5.628428,1,0,3,1045,1,-1559
485,5.64009,0,-1,1,1045,1,-1556
486,5.651787,2,0,1,1047,0,-1562
487,5.663452,1,1,2,1046,0,-1559
488,5.67511,0,1,2,1045,1,-1562
489,5.686775,1,-1,2,1051,3,-1555
490,5.698341,0,1,2,1047,2,-1558
491,5.709901,1,0,1,1045,-3,-1555
492,5.721455,0,-1,3,1048,-1,-1560
493,5.733014,2,1,1,1041,4,-1561
494,5.744587,0,2,0,1049,1,-1563
495,5.756158,0,-1,2,1045,-4,-1559
496,5.767736,0,0,1,1049,-3,-1564
497,5.779304,0,0,1,1049,0,-1551
498,5.79097,1,1,-1,1046,0,-1559
499,5.802626,1,1,1,1045,-1,-1559
500,5.814276,2,1,2,1051,0,-1555
501,5.825932,0,1,1,1048,-1,-1558
502,5.837594,2,1,1,1045,2,-1558
503,5.849297,0,1,2,1047,0,-1556
504,5.86105,-2,-2,1,1048,2,-1556
505,5.872732,2,1,1,1050,0,-1553
506,5.884428,-1,0,0,1047,1,-1554
507,5.895979,0,2,0,1049,-1,-1550
508,5.907538,-1,-1,0,1049,-3,-1562
509,5.919104,2,-2,1,1050,0,-1561
510,5.930659,1,0,3,1044,-1,-1556
511,5.942244,-1,1,2,1045,-2,-1558
512,5.953799,1,0,2,1044,4,-1560
513,5.965389,0,0,1,1047,1,-1560
514,5.976936,2,2,1,1045,0,-1565
515,5.98857,0,-1,-1,1047,3,-1556
516,6.000219,0,1,2,1049,-1,-1564
517,6.011909,0,0,0,1051,-1,-1560
518,6.023619,0,0,2,1044,-5,-1553
519,6.035263,-1,1,2,1044,0,-1559
520,6.046936,2,3,0,1049,3,-1564
521,6.058597,1,2,1,1043,-2,-1561
522,6.070237,-1,0,1,1042,0,-1559
523,6.081901,0,1,3,1051,0,-1553
524,6.09358,-2,-1,1,1050,-1,-1562
525,6.105164,-1,1,1,1047,0,-1555
526,6.116717,0,1,1,1046,1,-1564
527,6.128283,1,-1,1,1046,0,-1563
528,6.139874,1,1,-2,1042,-1,-1553
529,6.151428,0,-2,1,1044,-3,-1562
530,6.162979,-1,0,1,1050,-2,-1560
531,6.174539,-2,-1,0,1045,0,-1562
532,6.18611,1,1,1,1046,0,-1563
533,6.197791,1,0,2,1047,0,-1556
534,6.209473,1,1,1,1043,-1,-1562
535,6.221177,0,2,1,1051,2,-1563
536,6.232838,-1,0,3,1048,0,-1566
537,6.244527,-1,1,2,1043,-1,-1563
538,6.256211,1,3,2,1050,-1,-1563
539,6.267889,0,0,2,1050,-2,-1554
540,6.279522,0,-2,2,1045,0,-1564
541,6.291212,2,0,-1,1040,2,-1564
542,6.302917,-1,1,2,1047,0,-1560
543,6.314476,2,0,2,1045,-3,-1553
544,6.326037,1,1,0,1048,0,-1560
545,6.337607,0,2,2,1047,1,-1560
546,6.349162,0,1,2,1046,2,-1558
547,6.360813,0,-2,2,1049,1,-1562
548,6.372404,0,0,1,1045,0,-1551
549,6.383971,1,-1,0,1048,1,-1562
550,6.395535,0,1,1,1046,-2,-1561
551,6.407185,0,1,3,1048,1,-1564
552,6.418857,0,1,1,1047,-1,-1560
553,6.430519,-1,0,2,1046,1,-1561
554,6.442196,1,0,1,1048,-1,-1557
555,6.453854,0,-1,2,1048,3,-1561
556,6.465501,3,1,2,1044,3,-1559
557,6.477156,0,0,0,1045,0,-1557
558,6.488831,-1,1,2,1044,0,-1551
559,6.500495,0,1,1,1046,-2,-1563
560,6.51219,0,0,2,1046,-1,-1561
561,6.523739,0,-1,1,1051,3,-1561
562,6.535292,1,1,2,1046,1,-1558
563,6.546841,-1,0,0,1048,0,-1565
564,6.558402,1,0,-1,1046,-3,-1555
565,6.56995,-1,-1,2,1047,2,-1556
566,6.581502,-1,1,0,1048,1,-1558
567,6.593055,1,0,1,1050,0,-1560
568,6.604651,0,2,2,1045,-2,-1563
569,6.616355,-1,1,2,1044,1,-1558
570,6.628059,2,0,1,1043,0,-1557
571,6.639761,0,0,3,1048,-1,-1564
572,6.651446,-1,-2,2,1044,0,-1566
573,6.66311,0,-1,1,1047,1,-1562
574,6.674788,1,0,1,1046,-3,-1558
575,6.686446,0,1,1,1046,-1,-1557
576,6.698104,1,1,1,1050,-3,-1564
577,6.709789,0,1,3,1044,0,-1564
578,6.721461,1,2,-1,1044,0,-1556
579,6.733056,-1,-2,1,1046,3,-1566
580,6.744613,-1,1,0,1049,0,-1561
581,6.756174,2,2,0,1048,-2,-1564
582,6.767755,0,2,1,1048,0,-1558
583,6.779314,0,0,1,1047,1,-1562
584,6.790898,2,2,2,1044,0,-1557
585,6.802451,1,-1,2,1046,0,-1558
586,6.814037,3,1,1,1045,0,-1563
587,6.825652,1,-2,1,1046,-1,-1560
588,6.837329,0,0,3,1050,0,-1560
589,6.848984,1,0,3,1045,0,-1555
590,6.86069,1,-1,-4,1043,0,-1562
591,6.872402,1,-1,-1,1048,-1,-1560
592,6.884113,-1,1,1,1047,2,-1557
593,6.895785,0,-1,2,1047,0,-1556
594,6.90749,-1,1,1,1048,-2,-1564
595,6.91917,2,1,-1,1044,1,-1558
596,6.930847,1,2,4,1048,1,-1557
597,6.942496,2,-1,0,1049,1,-1558
598,6.954164,-2,0,0,1044,1,-1562
599,6.96584,1,0,2,1047,0,-1561
600,6.977491,-2,0,0,1051,-1,-1563
601,6.989149,0,-2,3,1051,2,-1555
602,7.000835,-1,1,1,1042,1,-1561
603,7.012489,2,-1,1,1048,1,-1562
604,7.024267,1,2,2,1049,0,-1561
605,7.03596,0,-1,2,1046,0,-1562
606,7.047497,-1,1,-1,1043,-1,-1563
607,7.059047,1,1,1,1044,1,-1570
608,7.070624,0,1,0,1047,1,-1560
609,7.082176,-1,0,1,1046,1,-1557
610,7.093757,2,0,3,1043,0,-1559
611,7.105332,0,-2,1,1048,0,-1557
612,7.116889,0,1,0,1051,0,-1557
613,7.128467,-1,0,0,1044,-4,-1558
614,7.14016,1,0,0,1047,0,-1559
615,7.151843,-1,-1,1,1048,0,-1565
616,7.163518,-1,1,-3,1044,3,-1561
617,7.175185,1,1,2,1047,-1,-1563
618,7.186842,0,2,1,1046,0,-1552
619,7.198504,0,1,-1,1050,0,-1558
620,7.21016,1,1,0,1047,1,-1566
621,7.221818,-1,1,1,1049,0,-1558
622,7.233499,0,1,2,1046,2,-1557
623,7.245159,-1,0,2,1045,-3,-1560
624,7.256752,0,-1,2,1048,1,-1556
625,7.268338,1,-1,-2,1047,3,-1559
626,7.279911,0,0,2,1046,2,-1559
627,7.291479,-2,-1,0,1048,0,-1571
628,7.30303,-1,0,0,1045,3,-1553
629,7.314581,-1,0,1,1048,0,-1557
630,7.32613,0,1,1,1048,2,-1562
631,7.337697,-1,1,1,1045,-1,-1562
632,7.349353,0,0,2,1047,0,-1565
633,7.361014,0,1,2,1047,-1,-1559
634,7.372701,0,0,0,1044,0,-1554
635,7.384359,2,0,0,1043,0,-1559
636,7.396052,0,1,3,1043,0,-1557
637,7.407716,3,1,0,1045,6,-1561
638,7.419391,1,0,0,1047,0,-1559
639,7.431042,2,0,1,1049,0,-1559
640,7.442726,0,2,2,1046,-1,-1559
641,7.454376,1,0,2,1047,-5,-1555
642,7.46594,0,0,1,1046,1,-1561
643,7.477539,2,0,2,1047,0,-1558
644,7.489091,-2,0,0,1044,2,-1561
645,7.500657,1,0,2,1049,-1,-1558
646,7.512234,0,1,2,1049,2,-1560
647,7.523791,0,-1,1,1046,2,-1563
648,7.535374,1,-2,0,1045,0,-1555
649,7.54694,0,1,1,1047,5,-1560
650,7.55859,-1,1,3,1047,-4,-1550
651,7.570251,-2,0,2,1048,0,-1557
652,7.5819,0,0,0,1049,0,-1562
653,7.593552,0,3,2,1047,-1,-1557
654,7.605221,2,2,2,1048,-2,-1559
655,7.616871,-2,-1,2,1047,-1,-1566
656,7.628555,0,1,-2,1047,-1,-1555
657,7.640228,-1,0,2,1045,0,-1566
658,7.651898,0,1,1,1043,0,-1557
659,7.663485,0,1,1,1044,3,-1560
660,7.675057,-1,1,-1,1045,3,-1562
661,7.686614,2,1,2,1043,-3,-1562
662,7.698178,0,0,1,1050,-2,-1556
663,7.709776,1,-1,0,1045,0,-1558
664,7.721333,0,1,0,1046,0,-1561
665,7.732914,1,1,0,1046,1,-1553
666,7.744461,-1,2,2,1043,0,-1562
667,7.755991,0,0,-1,1047,3,-1557
668,7.767641,-2,0,3,1047,3,-1556
669,7.779304,-1,2,2,1047,-1,-1562
670,7.790973,0,-1,2,1045,1,-1566
671,7.802631,-1,1,3,1052,-1,-1555
672,7.814289,1,1,0,1052,1,-1563
673,7.825956,2,0,2,1047,-3,-1556
674,7.837617,1,2,2,1045,-1,-1560
675,7.849303,2,-1,-1,1045,0,-1559
676,7.860985,-2,1,0,1047,-3,-1563
677,7.872683,0,-1,2,1049,1,-1561
678,7.884243,-1,0,1,1044,2,-1558
679,7.895808,-2,1,0,1050,3,-1558
680,7.907389,1,2,2,1046,-1,-1559
681,7.918935,-1,-1,2,1046,0,-1554
682,7.930548,-1,0,2,1046,0,-1565
683,7.942108,-1,-2,1,1046,-1,-1561
684,7.953663,1,0,2,1045,2,-1559
685,7.965221,2,1,2,1044,-1,-1555
686,7.976851,0,1,3,1044,0,-1558
687,7.988542,2,0,1,1047,2,-1559
688,8.000219,0,0,0,1047,2,-1562
689,8.011912,-1,-1,0,1048,1,-1557
690,8.023582,0,0,2,1044,2,-1557
691,8.03526,0,1,0,1047,0,-1557
692,8.046935,1,0,0,1048,0,-1565
693,8.058603,1,1,1,1049,-2,-1557
694,8.070267,0,0,3,1047,0,-1553
695,8.081829,1,1,1,1041,2,-1557
696,8.093395,1,1,-1,1049,-1,-1561
697,8.10495,-1,1,1,1048,2,-1557
698,8.116552,0,-2,0,1047,0,-1560
699,8.128119,-2,-1,1,1047,4,-1559
700,8.139706,1,0,1,1045,2,-1565
701,8.151324,0,1,0,1049,-3,-1559
702,8.16292,2,2,0,1045,0,-1561
703,8.174467,1,1,1,1048,4,-1562
704,8.186224,2,0,1,1042,1,-1558
705,8.197886,-2,1,1,1045,-3,-1564
706,8.209572,-1,0,0,1045,1,-1561
707,8.221267,0,-1,1,1049,0,-1556
708,8.232945,0,2,3,1043,-1,-1563
709,8.244616,0,0,2,1045,0,-1558
710,8.256288,1,-2,1,1049,-1,-1561
711,8.267966,0,-2,1,1044,-2,-1554
712,8.279644,0,-1,0,1046,0,-1559
713,8.2912,0,0,-1,1046,-1,-1556
714,8.302786,-2,-1,1,1044,-1,-1562
715,8.314328,0,1,0,1043,1,-1556
716,8.32587,1,-2,1,1046,0,-1560
717,8.337421,1,1,-1,1047,1,-1553
718,8.348966,1,0,1,1045,-1,-1561
719,8.36052,1,1,2,1049,-3,-1564
720,8.372097,0,0,1,1045,1,-1563
721,8.383688,0,0,0,1043,1,-1564
722,8.395377,1,-1,3,1047,0,-1559
723,8.407041,-1,-1,1,1043,-2,-1565
724,8.4187,1,2,2,1048,0,-1561
725,8.430352,-1,-3,3,1050,-2,-1561
726,8.441999,-1,0,1,1047,2,-1559
727,8.453647,2,-4,1,1045,-3,-1565
728,8.46531,2,0,1,1046,2,-1561
729,8.476978,1,2,0,1044,-2,-1560
730,8.488633,0,2,1,1051,0,-1565
731,8.500312,1,1,1,1046,0,-1562
732,8.51197,0,1,2,1047,1,-1563
733,8.52364,-1,0,-1,1044,0,-1560
734,8.535309,0,-1,1,1042,1,-1556
735,8.546966,2,1,-1,1048,5,-1565
736,8.558612,1,2,2,1047,-3,-1560
737,8.570267,0,0,1,1045,0,-1558
738,8.581967,0,-1,0,1046,0,-1555
739,8.593623,2,0,-2,1042,1,-1558
740,8.605277,3,2,1,1048,-1,-1556
741,8.616939,1,1,1,1049,-1,-1568
742,8.628599,0,1,1,1045,-1,-1556
743,8.640294,1,-1,1,1052,2,-1558
744,8.651945,1,2,1,1043,2,-1563
745,8.66363,-1,0,1,1046,-1,-1561
746,8.675261,0,0,-1,1048,4,-1556
747,8.686906,0,-1,1,1048,-2,-1559
748,8.698471,-2,0,-1,1045,0,-1561
749,8.710025,1,0,1,1045,-4,-1556
750,8.721577,0,-2,0,1048,-1,-1558
751,8.733161,0,0,3,1049,3,-1562
752,8.74471,-1,-1,1,1051,1,-1559
753,8.756291,0,0,2,1051,0,-1561
754,8.767853,0,1,2,1044,3,-1558
755,8.779403,0,2,1,1043,1,-1553
756,8.790968,1,-1,2,1047,0,-1559
757,8.802589,0,2,2,1049,2,-1557
758,8.814242,1,2,3,1049,0,-1558
759,8.825894,0,0,3,1051,3,-1563
760,8.837563,2,0,0,1047,-1,-1564
761,8.84923,1,1,1,1045,1,-1556
762,8.860882,2,0,2,1045,-2,-1566
763,8.872572,2,1,0,1047,-4,-1563
764,8.884233,2,0,3,1045,-4,-1559
765,8.895929,1,0,1,1047,1,-1561
766,8.907606,1,0,0,1047,1,-1560
767,8.919179,0,1,0,1049,-2,-1559
768,8.93073,0,-1,3,1048,3,-1562
769,8.94229,-1,0,1,1047,-4,-1561
770,8.953875,1,0,3,1050,-3,-1557
771,8.965431,-1,1,0,1045,1,-1561
772,8.976982,2,1,2,1048,0,-1556
773,8.988556,-1,-1,3,1045,-2,-1562
774,9.000132,3,-1,1,1046,1,-1560
775,9.011807,0,2,0,1046,-1,-1560
776,9.023513,-1,-1,0,1046,2,-1561
777,9.035187,-1,1,0,1044,0,-1563
778,9.046844,0,-1,1,1047,1,-1556
779,9.0585,0,1,2,1047,-2,-1558
780,9.070157,2,-1,3,1045,-2,-1554
781,9.081803,0,2,1,1046,0,-1562
782,9.093482,-1,0,-1,1043,-2,-1558
783,9.10516,1,1,2,1046,0,-1559
784,9.116812,0,-1,1,1048,2,-1559
785,9.128416,0,0,1,1049,0,-1557
786,9.139978,1,-1,2,1049,-1,-1560
787,9.151552,0,0,1,1047,-3,-1560
788,9.163096,1,-1,1,1048,4,-1555
789,9.174663,1,-1,2,1047,-2,-1562
790,9.186207,0,-1,1,1046,5,-1559
791,9.197751,1,2,1,1049,1,-1561
792,9.209313,-1,-1,2,1048,-2,-1560
793,9.220931,1,2,0,1049,0,-1560
794,9.2326,2,2,1,1046,0,-1556
795,9.244335,0,0,1,1048,0,-1560
796,9.256227,0,0,1,1045,-1,-1555
797,9.267949,0,1,1,1047,0,-1562
798,9.279645,-1,-2,2,1044,0,-1558
799,9.291336,0,-1,1,1045,1,-1557
800,9.302986,-1,2,1,1045,1,-1559
801,9.31467,0,0,1,1050,0,-1559
802,9.326435,-1,0,1,1050,0,-1555
803,9.337995,0,1,2,1047,4,-1558
804,9.349558,0,-1,2,1041,-3,-1563
805,9.36116,-1,1,0,1049,4,-1559
806,9.372727,1,2,2,1048,-1,-1556
807,9.384325,0,0,1,1049,-2,-1559
808,9.395917,0,0,2,1046,0,-1562
809,9.407486,1,0,1,1048,-1,-1564
810,9.419057,1,1,0,1046,-2,-1564
811,9.430735,-1,0,1,1043,0,-1558
812,9.442394,-1,3,0,1044,0,-1563
813,9.454049,-1,-1,0,1048,2,-1561
814,9.465726,0,0,2,1045,1,-1562
815,9.477379,0,0,0,1047,1,-1560
816,9.489046,0,3,2,1049,-2,-1563
817,9.500717,0,1,3,1046,0,-1565
818,9.512367,2,1,0,1046,0,-1562
819,9.524055,2,0,1,1044,2,-1561
820,9.535763,-1,-1,-2,1044,1,-1562
821,9.547323,-1,2,2,1048,-2,-1565
822,9.558914,1,0,3,1045,3,-1563
823,9.570467,2,-1,1,1047,0,-1558
824,9.582046,-1,-1,0,1046,-2,-1557
825,9.593587,0,0,-1,1044,5,-1559
826,9.605165,-1,-2,0,1045,3,-1559
827,9.61671,0,3,2,1048,2,-1560
828,9.628273,2,1,0,1046,-2,-1562
829,9.639916,-1,-1,-1,1047,-1,-1567
830,9.651582,-1,0,0,1045,0,-1559
831,9.663258,0,0,2,1050,3,-1563
832,9.674903,1,0,0,1046,0,-1559
833,9.686552,-1,0,2,1049,-1,-1565
834,9.698253,1,1,1,1046,2,-1559
835,9.709902,1,1,0,1045,1,-1556
836,9.721713,-1,0,2,1051,0,-1561
837,9.733422,1,0,2,1049,1,-1555
838,9.7451,2,-2,1,1045,4,-1559
839,9.756696,0,0,2,1047,3,-1556
840,9.768281,1,2,1,1044,0,-1563
841,9.779846,1,1,0,1043,4,-1560
842,9.791411,2,0,1,1046,3,-1554
843,9.802963,-2,1,1,1046,-1,-1561
844,9.81451,2,0,0,1047,2,-1555
845,9.826055,1,3,2,1049,4,-1562
846,9.837626,-1,-1,1,1047,-3,-1559
847,9.849251,0,1,0,1048,0,-1554
848,9.860906,0,1,1,1045,0,-1555
849,9.872575,0,1,4,1048,0,-1558
850,9.884237,0,1,1,1047,0,-1557
851,9.895916,-1,1,2,1047,0,-1561
852,9.907589,1,0,3,1044,0,-1558
853,9.91925,-1,0,0,1047,-2,-1561
854,9.930897,0,1,2,1047,0,-1554
855,9.942581,0,0,2,1044,-3,-1561
856,9.954239,0,-2,1,1047,0,-1556
857,9.965804,1,1,2,1050,0,-1557
858,9.977365,-1,-2,0,1046,0,-1563
859,9.988939,-1,0,1,1050,-1,-1559
860,10.000461,1,1,2,1045,0,-1559
861,10.012023,1,1,1,1046,-2,-1561
862,10.023607,0,-1,1,1044,0,-1557
863,10.03517,0,1,2,1046,3,-1558
864,10.046743,0,0,0,1050,-3,-1561
865,10.058376,2,1,3,1049,-3,-1558
866,10.070083,-1,-1,1,1048,-4,-1557
867,10.081744,0,0,1,1049,-2,-1562
868,10.093395,0,1,1,1048,2,-1555
869,10.105087,0,-2,2,1044,2,-1558
870,10.116739,0,1,1,1049,-1,-1560
871,10.128442,1,2,2,1045,1,-1563
872,10.140163,-2,2,2,1045,0,-1565
873,10.151835,-1,0,0,1044,1,-1562
874,10.163508,1,-1,2,1046,-4,-1552
875,10.175068,-1,1,1,1049,0,-1563
876,10.186618,-1,0,1,1048,0,-1559
877,10.198173,0,-1,3,1043,-3,-1561
878,10.209722,1,0,2,1050,1,-1559
879,10.221274,-1,1,2,1046,1,-1558
880,10.23283,1,2,0,1047,0,-1558
881,10.244384,1,2,3,1043,2,-1559
882,10.255981,1,0,2,1044,2,-1563
883,10.267693,1,1,0,1050,1,-1561
884,10.279392,-1,1,0,1044,-2,-1569
885,10.291044,-1,0,2,1043,0,-1549
886,10.302724,2,0,0,1047,2,-1559
887,10.314382,-2,-1,1,1045,0,-1564
888,10.32603,-1,0,3,1045,0,-1560
889,10.337683,2,1,2,1045,0,-1566
890,10.349374,0,0,-1,1046,2,-1560
891,10.361036,1,0,1,1047,0,-1559
892,10.372735,0,0,2,1052,2,-1561
893,10.384315,1,-1,1,1049,1,-1559
894,10.395871,-1,1,2,1043,0,-1558
895,10.407427,1,0,2,1047,1,-1556
896,10.418976,0,0,0,1045,4,-1559
897,10.430521,0,1,1,1044,1,-1550
898,10.442108,1,0,2,1047,0,-1563
899,10.453677,0,2,1,1046,-2,-1557
900,10.465243,1,0,0,1050,0,-1558
901,10.476883,-1,1,1,1045,0,-1564
902,10.48858,0,1,2,1052,-2,-1551
903,10.500283,0,1,-1,1050,0,-1558
904,10.511938,-1,1,2,1048,1,-1562
905,10.523597,0,1,0,1048,1,-1564
906,10.535264,0,-2,1,1047,1,-1555
907,10.546911,1,-1,1,1048,-1,-1556
908,10.55856,1,-1,2,1049,-1,-1558
909,10.570253,-1,0,0,1042,1,-1562
910,10.581918,-1,0,0,1046,3,-1565
911,10.593472,0,1,0,1047,-1,-1559
912,10.605028,1,-2,3,1044,0,-1561
913,10.616593,1,1,0,1045,0,-1559
914,10.628151,0,0,1,1043,-3,-1566
915,10.639727,1,2,2,1045,-1,-1559
916,10.651318,0,0,1,1047,0,-1555
917,10.662873,1,2,2,1050,0,-1564
918,10.674454,1,0,0,1048,-2,-1555
919,10.686069,0,-1,1,1048,2,-1566
920,10.697735,-1,0,1,1046,-3,-1561
921,10.709389,0,0,-1,1047,2,-1560
922,10.72106,-1,-1,1,1044,0,-1558
923,10.732729,1,0,1,1047,1,-1566
924,10.744505,2,0,3,1045,0,-1566
925,10.756201,1,1,2,1048,0,-1561
926,10.767888,0,0,-2,1045,2,-1557
927,10.779533,2,1,3,1045,2,-1559
928,10.791254,2,-1,0,1049,2,-1566
929,10.802818,0,-1,2,1048,2,-1559
930,10.814407,4,-1,-1,1050,0,-1556
931,10.825962,0,0,1,1045,0,-1562
932,10.837512,0,0,2,1044,0,-1563
933,10.84908,0,-2,1,1045,1,-1563
934,10.860674,0,0,1,1046,2,-1561
935,10.872223,-1,0,1,1047,-1,-1563
936,10.883822,0,0,1,1044,2,-1568
937,10.895446,-1,2,1,1047,0,-1564
938,10.907111,-1,1,1,1046,-1,-1559
939,10.918765,2,0,1,1047,1,-1564
940,10.93043,2,-3,1,1049,0,-1563
941,10.942094,1,0,1,1046,2,-1564
942,10.953753,0,1,2,1047,4,-1560
943,10.965406,1,0,2,1048,-2,-1565
944,10.977079,1,1,2,1048,-3,-1558
945,10.988752,0,0,1,1050,0,-1563
946,11.000436,1,2,2,1045,0,-1565
947,11.011976,0,-2,1,1047,-2,-1556
948,11.023536,0,1,0,1046,1,-1561
949,11.03509,-1,2,1,1047,1,-1569
950,11.046643,1,2,2,1046,0,-1563
951,11.058206,-1,0,2,1048,1,-1562
952,11.069802,-1,-2,-1,1044,-1,-1562
953,11.081357,0,3,4,1047,-1,-1560
954,11.092948,1,-1,2,1049,-2,-1556
955,11.104575,0,0,1,1047,0,-1562
956,11.116267,0,-1,-1,1046,0,-1560
957,11.127918,2,0,1,1048,-2,-1560
958,11.139595,0,1,4,1047,4,-1560
959,11.151259,-1,0,1,1047,3,-1559
960,11.162915,1,-1,2,1042,-1,-1558
961,11.17461,0,-1,1,1043,1,-1562
962,11.18632,1,-2,1,1048,-3,-1565
963,11.197987,0,0,0,1047,-1,-1563
964,11.20965,1,0,2,1047,0,-1555
965,11.221216,1,1,2,1049,2,-1554
966,11.232768,3,1,1,1046,3,-1558
967,11.244344,1,1,0,1047,3,-1560
968,11.255948,-1,1,0,1048,0,-1560
969,11.267495,1,-1,0,1045,-1,-1563
970,11.279046,-1,1,1,1046,2,-1558
971,11.290597,1,1,2,1044,0,-1563
972,11.302187,0,0,-1,1047,0,-1565
973,11.313825,2,-1,0,1047,-2,-1562
974,11.325503,0,2,0,1042,0,-1564
975,11.337157,-1,-1,1,1045,1,-1566
976,11.34881,1,1,2,1048,0,-1561
977,11.360484,0,0,1,1050,0,-1560
978,11.372152,1,0,2,1046,2,-1556
979,11.383778,-2,-1,1,1045,4,-1561
980,11.395448,-1,0,2,1046,-1,-1552
981,11.407124,0,2,3,1045,2,-1563
982,11.418777,0,1,2,1049,2,-1555
983,11.430337,1,0,2,1050,-4,-1560
984,11.441887,2,0,2,1046,-1,-1561
985,11.453434,0,0,3,1051,1,-1565
986,11.464991,-1,2,0,1050,1,-1555
987,11.476582,1,1,0,1045,0,-1561
988,11.48816,-1,0,2,1046,0,-1559
989,11.499725,0,1,1,1049,0,-1559
990,11.511264,0,-1,1,1046,0,-1559
991,11.522891,1,-1,1,1048,3,-1565
992,11.534558,1,-2,1,1045,-1,-1561
993,11.546252,-1,1,2,1043,-2,-1556
994,11.557899,1,0,2,1045,-3,-1559
995,11.569561,1,3,-1,1045,-2,-1556
996,11.58125,-1,2,1,1046,-3,-1567
997,11.592903,-1,1,2,1046,-1,-1560
998,11.604563,0,2,2,1050,0,-1557
999,11.616247,1,-2,1,1050,-2,-1565
1000,11.627913,-2,4,1,1046,1,-1563
1001,11.639491,0,1,2,1046,1,-1567
1002,11.651065,0,-2,-1,1047,0,-1561
1003,11.662611,-1,1,0,1047,0,-1559
1004,11.674155,1,0,0,1049,0,-1555
1005,11.685707,0,0,4,1043,1,-1559
1006,11.69725,0,0,-1,1046,1,-1564
1007,11.708801,-1,1,2,1049,2,-1552
1008,11.720372,0,1,0,1044,0,-1562
1009,11.732079,0,1,0,1047,0,-1564
1010,11.74377,-2,3,1,1047,2,-1559
1011,11.755423,0,1,2,1047,3,-1559
1012,11.767078,0,1,1,1046,-1,-1563
1013,11.778748,0,-1,-1,1045,1,-1562
1014,11.79041,-1,-1,2,1042,0,-1559
1015,11.802059,0,0,1,1048,2,-1560
1016,11.813716,-2,-1,4,1044,-2,-1565
1017,11.825388,0,0,2,1046,0,-1554
1018,11.836953,-1,2,1,1047,0,-1567
1019,11.848557,-1,2,1,1047,4,-1550
1020,11.860117,0,0,0,1048,2,-1556
1021,11.871695,1,-2,1,1048,2,-1562
1022,11.883249,-1,-2,0,1046,3,-1558
1023,11.894802,-1,1,0,1042,0,-1561
1024,11.906347,-1,-1,1,1047,-3,-1559
1025,11.917915,-1,1,1,1048,1,-1555
1026,11.929479,1,0,2,1046,1,-1559
1027,11.941157,-1,0,-1,1044,0,-1556
1028,11.952859,1,0,0,1043,-2,-1556
1029,11.964534,0,0,0,1048,-3,-1561
1030,11.976217,0,0,1,1045,1,-1560
1031,11.987908,1,-1,2,1045,0,-1560
1032,11.999564,-1,-1,1,1050,-3,-1567
1033,12.011261,0,1,3,1046,1,-1566
1034,12.022919,0,2,2,1045,0,-1558
1035,12.034625,1,2,2,1043,2,-1556
1036,12.046277,-1,-1,1,1048,3,-1562
1037,12.057838,0,1,-2,1047,0,-1559
1038,12.069391,1,2,2,1047,1,-1555
1039,12.080942,1,0,1,1050,-3,-1555
1040,12.092462,-2,0,3,1046,0,-1565
1041,12.104014,0,0,3,1048,-1,-1556
1042,12.115563,1,-1,0,1046,3,-1561
1043,12.127115,1,-2,2,1046,4,-1559
1044,12.138696,-1,0,1,1052,0,-1560
1045,12.150383,0,0,0,1044,1,-1558
1046,12.162043,0,1,3,1050,2,-1559
1047,12.17369,0,-1,1,1047,1,-1562
1048,12.185339,-2,-2,2,1051,0,-1560
1049,12.197005,-1,1,1,1045,0,-1557
1050,12.208676,1,0,2,1049,0,-1562
1051,12.220337,-1,1,2,1045,-1,-1557
1052,12.232025,1,1,2,1050,4,-1558
1053,12.243688,1,-1,3,1046,6,-1561
1054,12.255349,0,0,0,1048,-3,-1556
1055,12.26691,3,2,0,1047,0,-1556
1056,12.278467,0,0,3,1048,-3,-1557
1057,12.290075,1,1,1,1048,0,-1556
1058,12.301625,0,-2,0,1048,2,-1564
1059,12.313185,2,0,0,1045,0,-1558
1060,12.324748,0,-2,3,1046,4,-1563
1061,12.336297,0,-3,0,1045,0,-1562
1062,12.347874,0,1,3,1045,0,-1559
1063,12.359569,-1,-1,1,1048,0,-1562
1064,12.371268,1,0,3,1044,3,-1565
1065,12.382919,0,0,2,1049,0,-1565
1066,12.394571,2,1,1,1047,2,-1558
1067,12.406253,-1,0,-2,1044,1,-1559
1068,12.417895,1,-1,1,1045,0,-1555
1069,12.429548,0,3,1,1048,0,-1564
1070,12.441226,1,2,0,1048,1,-1563
1071,12.452889,1,0,2,1047,0,-1557
1072,12.464547,2,0,1,1048,0,-1559
1073,12.476224,0,1,1,1045,2,-1555
1074,12.487902,1,-1,0,1048,-6,-1557
1075,12.499522,1,0,1,1047,2,-1567
1076,12.511172,0,1,1,1049,2,-1564
1077,12.52284,-1,2,2,1043,0,-1566
1078,12.534493,0,2,1,1047,-3,-1561
1079,12.546142,-2,2,1,1047,4,-1560
1080,12.557822,0,-1,2,1044,0,-1555
1081,12.569497,3,1,2,1047,-1,-1555
1082,12.581176,-2,0,0,1052,3,-1562
1083,12.592828,-1,-1,4,1046,-3,-1558
1084,12.604502,0,-1,-1,1046,0,-1557
1085,12.616174,-2,2,3,1047,-3,-1556
1086,12.627833,2,1,2,1044,-1,-1563
1087,12.639519,0,0,1,1044,-2,-1562
1088,12.651164,-1,1,1,1044,0,-1556
1089,12.662897,-1,2,2,1044,0,-1559
1090,12.674565,1,1,2,1050,1,-1560
1091,12.686124,1,-1,1,1049,0,-1556
1092,12.697718,-2,1,1,1045,1,-1566
1093,12.709268,1,-1,0,1045,0,-1557
1094,12.720819,0,2,1,1045,-3,-1559
1095,12.732376,2,0,1,1048,-1,-1561
1096,12.743952,1,3,0,1049,-2,-1556
1097,12.755496,2,0,2,1046,1,-1554
1098,12.767091,-1,1,0,1047,1,-1558
1099,12.778753,1,2,-1,1052,-2,-1557
1100,12.790416,0,1,1,1050,0,-1561
1101,12.802088,2,0,1,1048,2,-1558
1102,12.813759,0,0,1,1046,1,-1558
1103,12.825407,-1,-3,1,1046,0,-1553
1104,12.837056,-2,0,2,1043,0,-1564
1105,12.848735,2,0,1,1049,-2,-1564
1106,12.8604,3,1,2,1045,0,-1555
1107,12.87205,2,-1,0,1042,2,-1557
1108,12.883721,1,1,3,1048,2,-1557
1109,12.895256,-1,1,2,1046,-2,-1561
1110,12.906811,-1,0,1,1047,1,-1562
1111,12.91836,1,3,0,1049,3,-1561
1112,12.929905,0,-1,0,1045,-1,-1563
1113,12.941453,0,1,1,1043,1,-1568
1114,12.953012,-1,-1,1,1041,0,-1559
1115,12.964593,1,3,2,1047,-2,-1560
1116,12.976168,0,0,1,1048,-1,-1562
1117,12.987779,1,0,1,1051,1,-1567
1118,12.999451,0,1,1,1048,3,-1557
1119,13.011113,1,-1,2,1048,-1,-1561
1120,13.022798,1,-1,0,1054,1,-1563
1121,13.034487,0,0,1,1050,-2,-1557
1122,13.046149,0,1,0,1042,-2,-1561
1123,13.057791,-2,1,0,1051,4,-1554
1124,13.069462,0,-1,1,1047,2,-1566
1125,13.081155,0,0,1,1047,3,-1562
1126,13.092808,0,3,2,1047,1,-1562
1127,13.10437,1,1,1,1047,1,-1560
1128,13.115915,1,1,1,1049,-1,-1557
1129,13.127489,2,-1,1,1046,3,-1560
1130,13.139047,-1,-1,2,1043,4,-1562
1131,13.150639,0,-2,2,1045,0,-1557
1132,13.162213,0,0,2,1047,0,-1564
1133,13.17379,0,0,1,1046,0,-1566
1134,13.185356,1,3,1,1047,2,-1560
1135,13.197013,1,0,0,1050,2,-1560
1136,13.208688,1,1,4,1049,-1,-1560
1137,13.220344,-1,0,1,1047,-1,-1564
1138,13.232027,1,-1,3,1048,-2,-1560
1139,13.243683,0,1,1,1045,0,-1561
1140,13.255331,0,1,3,1048,-1,-1554
1141,13.266999,-1,1,1,1047,0,-1563
1142,13.278655,0,1,0,1047,-1,-1561
1143,13.290297,1,-1,2,1046,0,-1563
1144,13.301851,-1,-1,2,1046,1,-1558
1145,13.313423,0,2,0,1047,0,-1556
1146,13.324974,0,1,1,1048,-3,-1564
1147,13.336586,-1,1,1,1044,3,-1558
1148,13.348141,-2,2,2,1048,0,-1557
1149,13.359716,1,-2,2,1047,1,-1561
1150,13.371247,-1,-2,0,1046,-2,-1555
1151,13.382806,1,2,3,1047,-1,-1560
1152,13.394472,0,1,1,1048,2,-1561
1153,13.406144,1,0,-1,1050,1,-1563
1154,13.417803,1,-1,1,1049,0,-1559
1155,13.429474,0,2,0,1047,1,-1557
1156,13.441157,0,2,3,1049,1,-1559
1157,13.452827,-2,-1,0,1043,-1,-1563
1158,13.464498,0,0,2,1046,1,-1560
1159,13.476164,-1,-1,2,1048,0,-1559
1160,13.487855,0,-1,-2,1045,-3,-1559
1161,13.499519,0,-3,2,1047,1,-1559
1162,13.511081,0,0,-1,1048,2,-1565
1163,13.522646,0,1,2,1044,1,-1559
1164,13.534208,-1,1,1,1045,2,-1564
1165,13.545763,0,-1,1,1044,0,-1557
1166,13.557326,1,0,-2,1045,1,-1560
1167,13.568878,0,0,0,1043,0,-1565
1168,13.580458,0,0,0,1043,0,-1568
1169,13.592028,-1,2,1,1046,0,-1556
1170,13.603663,0,0,2,1048,-5,-1560
1171,13.615333,0,1,1,1042,1,-1559
1172,13.626996,1,0,1,1044,-2,-1560
1173,13.638642,2,1,1,1051,0,-1560
1174,13.650298,0,-1,2,1046,0,-1562
1175,13.661942,1,0,0,1046,-1,-1564
1176,13.673587,0,1,0,1050,0,-1561
1177,13.685259,0,-1,1,1045,2,-1567
1178,13.696921,0,2,1,1047,-2,-1557
1179,13.708539,0,-1,-1,1048,-1,-1557
1180,13.720107,1,1,0,1051,-2,-1557
1181,13.73167,2,0,0,1044,0,-1558
1182,13.743244,-1,1,0,1047,0,-1562
1183,13.754793,0,0,2,1046,1,-1563
1184,13.766366,1,-2,1,1047,0,-1570
1185,13.777947,0,0,1,1049,1,-1559
1186,13.7895,1,1,1,1049,3,-1565
1187,13.801086,0,-1,0,1047,2,-1562
1188,13.812786,1,1,0,1047,0,-1565
1189,13.824477,0,-1,0,1045,-2,-1565
1190,13.836156,0,0,0,1044,0,-1567
1191,13.847774,-2,0,-1,1044,0,-1567
1192,13.859426,1,2,2,1049,0,-1566
1193,13.871089,1,0,0,1046,-2,-1564
1194,13.882742,0,1,1,1048,0,-1555
1195,13.894392,1,3,0,1043,-2,-1564
1196,13.90606,-1,1,2,1046,0,-1559
1197,13.917761,2,2,-1,1046,-1,-1561
1198,13.929326,2,-1,2,1047,1,-1558
1199,13.940888,0,-2,2,1048,0,-1561
1200,13.952464,0,0,2,1046,-2,-1559
1201,13.964027,0,-2,-2,1046,0,-1555
1202,13.97561,0,-1,1,1044,0,-1561
1203,13.987171,1,0,1,1048,0,-1555
1204,13.998726,-2,2,1,1048,0,-1560
1205,14.01029,-1,2,3,1050,0,-1556
1206,14.02192,1,-2,1,1049,0,-1557
1207,14.033577,0,-2,0,1045,-2,-1560
1208,14.045255,-2,0,0,1045,1,-1557
1209,14.056903,0,-1,2,1047,-1,-1558
1210,14.068552,0,1,1,1047,-2,-1562
1211,14.080213,1,-1,1,1045,-2,-1567
1212,14.091898,1,-1,1,1047,4,-1559
1213,14.103557,2,0,2,1043,0,-1559
1214,14.11525,-1,1,0,1048,-1,-1559
1215,14.126924,1,2,1,1049,2,-1558
1216,14.138614,1,-1,-2,1052,1,-1553
1217,14.15037,-2,1,0,1046,-2,-1558
1218,14.161959,0,-1,2,1047,0,-1567
1219,14.173548,1,0,1,1047,0,-1562
1220,14.185101,1,0,2,1044,0,-1555
1221,14.196672,2,0,1,1049,-4,-1567
1222,14.20823,-2,-2,0,1047,0,-1564
1223,14.219807,2,0,2,1045,3,-1555
1224,14.231379,-1,0,1,1044,-1,-1560
1225,14.242954,-1,-2,1,1046,-1,-1555
1226,14.254502,0,0,2,1044,3,-1561
1227,14.266063,1,-2,1,1047,3,-1563
1228,14.277613,1,-2,1,1044,0,-1564
1229,14.28917,0,-2,1,1049,1,-1556
1230,14.300724,0,0,1,1045,0,-1562
1231,14.312317,0,-1,3,1052,2,-1555
1232,14.323873,1,1,1,1047,-1,-1561
1233,14.335513,-2,0,1,1050,2,-1560
1234,14.347171,-1,-2,3,1046,0,-1562
1235,14.358849,1,-2,2,1048,-1,-1559
1236,14.370509,1,-3,2,1047,1,-1564
1237,14.382161,0,1,1,1044,-2,-1560
1238,14.393831,-1,2,3,1048,1,-1559
1239,14.4055,0,-1,0,1044,0,-1558
1240,14.417156,0,0,2,1048,2,-1558
1241,14.428812,0,-1,2,1048,0,-1567
1242,14.440377,2,0,2,1045,2,-1559
1243,14.451943,1,0,2,1044,0,-1558
1244,14.4635,2,2,0,1048,-1,-1559
1245,14.475097,0,0,1,1049,0,-1561
1246,14.486649,1,0,0,1052,0,-1562
1247,14.498209,0,0,0,1047,0,-1563
1248,14.509778,0,0,1,1048,0,-1559
1249,14.521326,1,-1,1,1046,0,-1559
1250,14.532966,0,-1,3,1050,3,-1559
1251,14.544646,0,1,1,1046,5,-1560
1252,14.556298,-1,1,1,1046,-1,-1562
1253,14.567974,1,1,1,1048,0,-1564
1254,14.579647,1,0,3,1045,-1,-1567
1255,14.591301,1,-1,0,1047,2,-1559
1256,14.602954,0,1,3,1048,0,-1562
1257,14.614634,-1,2,2,1048,0,-1555
1258,14.626297,1,0,1,1046,-3,-1561
1259,14.637984,1,1,1,1048,0,-1561
1260,14.649588,-1,0,0,1045,-2,-1566
1261,14.661167,1,-1,2,1046,0,-1560
1262,14.672724,-1,-1,1,1047,3,-1563
1263,14.684279,2,-1,-1,1045,0,-1560
1264,14.695853,0,0,1,1046,0,-1558
1265,14.707446,0,-2,2,1045,0,-1558
1266,14.719,2,1,1,1048,1,-1560
1267,14.730603,0,1,-1,1047,-1,-1556
1268,14.74223,1,-2,3,1049,4,-1557
1269,14.753897,0,-3,2,1048,3,-1564
1270,14.765551,0,0,1,1047,2,-1555
1271,14.777225,2,-2,0,1042,-4,-1554
1272,14.788888,1,-1,0,1045,1,-1557
1273,14.800552,-1,0,1,1047,0,-1563
1274,14.812235,1,0,0,1046,-2,-1564
1275,14.823919,1,-2,0,1046,-2,-1560
1276,14.835573,0,0,1,1047,4,-1563
1277,14.847143,0,1,6,1047,0,-1559
1278,14.858713,-1,1,3,1043,-2,-1559
1279,14.870271,0,-1,1,1053,1,-1566
1280,14.881843,1,-2,0,1047,4,-1561
1281,14.893387,0,1,1,1045,2,-1559
1282,14.904952,0,-2,0,1052,1,-1562
1283,14.916522,1,1,1,1046,-1,-1556
1284,14.9281,1,1,0,1046,2,-1554
1285,14.939689,-2,0,3,1047,0,-1556
1286,14.951341,0,1,3,1045,-3,-1559
1287,14.963015,0,-1,3,1046,2,-1556
1288,14.974664,0,0,0,1049,0,-1563
1289,14.986317,-2,1,0,1048,1,-1552
1290,14.997991,-2,1,2,1046,1,-1558
1291,15.009647,-1,0,1,1045,1,-1562
1292,15.021303,0,-3,3,1044,0,-1561
1293,15.032973,0,0,2,1049,5,-1562
1294,15.044673,0,1,0,1048,-1,-1559
1295,15.056344,1,0,2,1050,0,-1560
1296,15.068029,0,0,1,1048,3,-1558
1297,15.079691,1,0,0,1044,2,-1561
1298,15.091369,1,1,1,1042,0,-1556
1299,15.103035,1,-3,3,1046,-1,-1561
1300,15.114694,-1,0,2,1048,0,-1559
1301,15.126365,-2,2,1,1045,1,-1557
1302,15.138024,0,-2,1,1047,-2,-1557
1303,15.14969,0,-1,1,1046,-2,-1559
1304,15.16136,-2,1,1,1046,0,-1563
1305,15.172965,1,1,1,1047,0,-1562
1306,15.184516,-1,0,1,1047,-2,-1557
1307,15.196101,-1,0,1,1048,-1,-1560
1308,15.207673,-2,0,2,1047,0,-1564
1309,15.219247,-1,-1,1,1049,3,-1560
1310,15.230845,-1,1,0,1044,0,-1563
1311,15.242397,0,1,2,1046,-2,-1559
1312,15.253975,-1,1,1,1049,0,-1565
1313,15.265646,-1,-1,2,1044,-3,-1565
1314,15.277293,0,-3,1,1047,-1,-1562
1315,15.288968,-1,1,1,1044,0,-1557
1316,15.300644,0,3,1,1047,0,-1559
1317,15.312288,0,0,0,1049,0,-1560
1318,15.323944,2,-1,1,1047,-1,-1567
1319,15.335645,1,-1,2,1049,0,-1564
1320,15.347273,1,2,0,1049,0,-1560
1321,15.358953,1,-1,-1,1050,0,-1556
1322,15.370608,-1,1,1,1045,2,-1566
1323,15.382204,0,1,2,1046,2,-1553
1324,15.393762,-1,2,1,1045,0,-1562
1325,15.405334,0,-1,1,1049,1,-1560
1326,15.416883,0,0,0,1045,0,-1559
1327,15.428473,1,2,1,1047,0,-1557
1328,15.440029,0,1,1,1045,-1,-1562
1329,15.451602,0,-2,-1,1044,0,-1559
1330,15.463196,1,2,1,1047,0,-1562
1331,15.474831,1,1,0,1046,-1,-1563
1332,15.486513,0,0,0,1046,-1,-1557
1333,15.498166,0,-1,-1,1048,-2,-1556
1334,15.509824,0,-1,1,1047,0,-1563
1335,15.521504,-1,2,2,1049,-1,-1556
1336,15.533162,0,0,2,1048,4,-1559
1337,15.544819,0,1,2,1048,-2,-1555
1338,15.556498,1,-1,2,1045,-4,-1564
1339,15.568187,0,0,0,1049,-2,-1555
1340,15.579843,-2,1,2,1048,-2,-1558
1341,15.591421,1,2,3,1044,-2,-1558
1342,15.602976,0,1,3,1046,-1,-1555
1343,15.614525,-1,0,0,1042,0,-1562
1344,15.626104,-2,-1,1,1047,-2,-1557
1345,15.637676,-1,-1,2,1044,1,-1556
1346,15.649231,-1,1,3,1044,0,-1558
1347,15.660842,0,2,0,1048,0,-1562
1348,15.672412,1,-1,2,1042,-2,-1558
1349,15.684035,-1,-1,2,1049,-2,-1558
1350,15.695711,1,2,1,1048,1,-1557
1351,15.707388,0,-1,3,1051,0,-1558
1352,15.71904,0,0,3,1044,-2,-1564
1353,15.730695,0,1,2,1045,0,-1556
1354,15.742345,0,-2,2,1048,0,-1557
1355,15.753997,-2,-1,2,1049,0,-1563
1356,15.765668,-1,-1,2,1050,-1,-1563
1357,15.777326,1,-1,1,1048,3,-1558
1358,15.788999,0,1,1,1047,2,-1553
1359,15.800599,-1,-1,1,1047,-3,-1559
1360,15.812159,0,0,1,1048,0,-1566
1361,15.823734,2,1,1,1048,2,-1555
1362,15.835251,0,-1,3,1048,2,-1560
1363,15.846798,0,2,-1,1054,-1,-1560
1364,15.858354,0,1,2,1045,-1,-1560
1365,15.86991,0,0,2,1048,0,-1553
1366,15.881474,1,0,3,1049,0,-1553
1367,15.893191,1,0,0,1049,-3,-1562
1368,15.904875,2,0,-1,1046,0,-1562
1369,15.916552,0,-1,3,1045,-2,-1563
1370,15.928231,1,0,1,1050,0,-1568
1371,15.939917,1,0,1,1046,0,-1556
1372,15.951581,1,0,0,1046,0,-1558
1373,15.963261,-1,-2,1,1046,1,-1558
1374,15.974911,0,0,-1,1049,0,-1558
1375,15.986581,-1,1,0,1047,1,-1557
1376,15.998263,-1,1,1,1045,-2,-1557
1377,16.009909,0,3,3,1044,-1,-1561
1378,16.021561,1,1,0,1043,-2,-1561
1379,16.033261,1,1,1,1048,0,-1562
1380,16.04491,1,1,1,1046,0,-1556
1381,16.05655,1,-1,2,1045,1,-1562
1382,16.068229,2,0,1,1049,1,-1562
1383,16.079912,1,0,2,1052,0,-1562
1384,16.091608,0,2,1,1046,0,-1556
1385,16.103267,1,1,2,1042,0,-1560
1386,16.114845,1,0,0,1049,0,-1556
1387,16.12641,1,-1,0,1046,-1,-1564
1388,16.137973,-1,-1,2,1047,1,-1555
1389,16.149523,0,0,0,1051,0,-1562
1390,16.161092,-1,-2,1,1048,2,-1566
1391,16.172638,-1,-1,1,1048,0,-1563
1392,16.18423,-2,1,1,1048,2,-1559
1393,16.195802,-2,2,1,1044,4,-1557
1394,16.207458,0,0,1,1043,-1,-1559
1395,16.219111,1,0,1,1044,0,-1560
1396,16.230779,0,-1,3,1047,3,-1558
1397,16.242425,-1,-1,-1,1047,0,-1561
1398,16.254073,-1,0,1,1047,-2,-1557
1399,16.265742,-2,-1,-2,1047,1,-1560
1400,16.277396,0,0,0,1047,0,-1564
1401,16.289064,0,2,1,1045,-1,-1562
1402,16.30073,-1,2,0,1046,-2,-1554
1403,16.312419,-2,-2,0,1048,-3,-1562
1404,16.324094,1,2,-2,1046,0,-1560
1405,16.335781,2,0,2,1046,-1,-1555
1406,16.34744,0,-1,4,1048,3,-1558
1407,16.359153,2,1,1,1044,-1,-1560
1408,16.370804,-2,2,2,1045,0,-1563
1409,16.382495,-1,-1,1,1045,1,-1561
1410,16.394181,0,1,3,1044,2,-1561
1411,16.405902,0,-1,0,1046,1,-1560
1412,16.417476,2,-1,2,1048,2,-1557
1413,16.429025,-1,2,1,1050,1,-1559
1414,16.440597,-1,-1,0,1046,2,-1562
1415,16.45216,-1,-2,3,1046,0,-1559
1416,16.463729,-2,-1,1,1050,-3,-1556
1417,16.475297,0,-2,1,1046,1,-1557
1418,16.486855,-2,1,1,1044,3,-1552
1419,16.498425,0,0,0,1046,0,-1558
1420,16.510038,0,0,1,1046,0,-1558
1421,16.521701,0,-1,1,1046,0,-1553
1422,16.533353,0,-1,1,1048,4,-1559
1423,16.545026,-2,2,2,1047,-3,-1557
1424,16.556697,0,0,0,1043,1,-1564
1425,16.568352,2,-1,-1,1046,1,-1565
1426,16.580032,0,1,2,1047,0,-1556
1427,16.591696,0,3,1,1052,-1,-1564
1428,16.603353,-1,-1,2,1045,0,-1564
1429,16.615038,2,1,3,1045,-4,-1561
1430,16.626604,1,0,0,1049,-1,-1558
1431,16.638182,1,0,0,1046,0,-1560
1432,16.649735,1,-1,3,1046,2,-1557
1433,16.661286,1,0,1,1047,0,-1559
1434,16.672847,-1,-2,1,1046,0,-1563
1435,16.684392,1,-1,0,1047,0,-1563
1436,16.695959,1,1,2,1049,4,-1561
1437,16.707507,0,0,1,1046,1,-1556
1438,16.719132,0,1,2,1050,0,-1558
1439,16.730824,0,2,0,1045,0,-1554
1440,16.742502,0,1,3,1046,5,-1560
1441,16.754157,0,2,1,1048,-1,-1565
1442,16.765809,0,3,-1,1044,0,-1555
1443,16.777487,2,0,2,1045,-3,-1559
1444,16.789171,-1,2,1,1040,0,-1557
1445,16.800817,2,-1,1,1048,4,-1562
1446,16.812504,0,0,2,1045,0,-1560
1447,16.824181,1,-2,2,1046,-3,-1554
1448,16.835745,0,0,3,1050,0,-1559
1449,16.847298,-2,-1,0,1044,-1,-1560
1450,16.858852,-1,2,0,1045,1,-1554
1451,16.870425,0,0,1,1048,3,-1558
1452,16.881986,0,-1,1,1050,2,-1561
1453,16.893541,2,-2,1,1045,0,-1561
1454,16.905095,1,-2,1,1048,0,-1558
1455,16.916718,1,1,2,1044,1,-1557
1456,16.92837,0,1,2,1044,3,-1561
1457,16.940039,0,-1,1,1045,4,-1562
1458,16.951769,-1,0,-1,1045,0,-1555
1459,16.963441,-1,0,3,1052,-1,-1551
1460,16.975119,0,1,1,1045,-1,-1559
1461,16.986772,0,3,4,1044,0,-1560
1462,16.998423,1,1,1,1045,1,-1559
1463,17.010079,0,0,0,1044,-2,-1554
1464,17.021762,1,-1,0,1047,0,-1561
1465,17.033421,3,-1,1,1051,-1,-1553
1466,17.045087,2,0,4,1049,0,-1562
1467,17.056767,1,0,2,1043,0,-1559
1468,17.068423,0,1,2,1044,-3,-1563
1469,17.080079,1,2,0,1047,0,-1559
1470,17.091767,0,0,0,1049,3,-1560
1471,17.103455,0,0,2,1050,0,-1560
1472,17.115151,1,-1,-1,1047,0,-1557
1473,17.126826,0,-2,2,1044,-2,-1561
1474,17.138518,2,1,2,1048,0,-1557
1475,17.150174,1,0,0,1047,1,-1560
1476,17.161831,1,-2,2,1045,0,-1561
1477,17.173501,0,2,1,1047,0,-1561
1478,17.185163,0,-1,2,1050,-4,-1558
1479,17.19682,1,0,0,1052,0,-1555
1480,17.208509,-1,1,-1,1046,0,-1559
1481,17.220183,2,2,0,1048,0,-1562
1482,17.231939,0,0,2,1046,1,-1566
1483,17.24359,-1,-1,3,1047,1,-1555
1484,17.255155,1,-1,1,1047,0,-1557
1485,17.266727,0,1,0,1045,0,-1560
1486,17.278285,1,2,-1,1048,0,-1564
1487,17.289851,1,1,3,1042,-1,-1560
1488,17.301397,1,1,2,1047,0,-1564
1489,17.312961,-1,-3,1,1046,0,-1555
1490,17.324513,2,-1,0,1044,0,-1559
1491,17.336097,1,-1,2,1048,0,-1560
1492,17.347756,0,-1,2,1045,2,-1564
1493,17.359415,-1,-2,0,1048,4,-1559
1494,17.371073,1,0,1,1047,0,-1562
1495,17.382719,0,-1,2,1046,0,-1562
1496,17.394375,0,0,2,1050,1,-1557
1497,17.406026,2,0,2,1045,4,-1554
1498,17.417674,2,-1,0,1042,-3,-1563
1499,17.429328,-1,-1,1,1048,-1,-1563
1500,17.44099,0,-1,1,1045,0,-1564
1501,17.45267,-1,-1,1,1048,-1,-1560
1502,17.464232,-1,1,0,1045,0,-1565
1503,17.475808,-1,1,1,1045,-3,-1562
1504,17.487377,0,1,2,1045,0,-1556
1505,17.498945,-1,1,1,1043,0,-1555
1506,17.510519,1,1,-2,1048,0,-1564
1507,17.522093,1,0,1,1048,2,-1563
1508,17.533643,0,0,2,1048,0,-1555
1509,17.545244,2,0,-1,1047,0,-1561
1510,17.556865,-1,-1,1,1046,0,-1557
1511,17.568547,0,2,4,1047,0,-1564
1512,17.58021,2,0,1,1043,0,-1560
1513,17.591911,0,1,3,1048,-3,-1558
1514,17.603565,1,0,0,1051,3,-1559
1515,17.615249,1,0,2,1050,2,-1554
1516,17.626912,0,0,2,1045,0,-1559
1517,17.638561,1,0,2,1046,2,-1556
1518,17.650242,1,-1,2,1043,1,-1557
1519,17.661899,0,1,0,1048,3,-1556
1520,17.673464,-1,1,3,1045,-3,-1562
1521,17.685018,0,-2,-1,1046,0,-1558
1522,17.696593,1,0,1,1042,-4,-1565
1523,17.708157,1,1,1,1046,2,-1558
1524,17.719735,-2,-1,2,1046,3,-1559
1525,17.731253,2,0,0,1047,1,-1568
1526,17.742838,1,0,-1,1046,-2,-1558
1527,17.754399,1,-1,-1,1049,0,-1561
1528,17.766032,1,1,1,1047,6,-1556
1529,17.777683,0,0,1,1043,2,-1561
1530,17.789332,-1,0,1,1051,0,-1559
1531,17.801002,0,1,3,1046,-1,-1559
1532,17.812676,1,1,4,1048,0,-1561
1533,17.824325,0,0,2,1047,0,-1562
1534,17.836022,-1,0,1,1044,0,-1559
1535,17.847706,0,0,5,1049,-1,-1559
1536,17.859398,0,-1,1,1046,-2,-1561
1537,17.87105,2,-1,0,1047,3,-1557
1538,17.882636,0,1,2,1049,2,-1555
1539,17.894186,-1,0,1,1047,4,-1561
1540,17.905738,0,-1,2,1045,0,-1557
1541,17.917354,-1,-1,2,1049,3,-1559
1542,17.928912,0,-2,0,1047,-1,-1557
1543,17.940482,-1,2,2,1046,1,-1560
1544,17.952034,1,0,1,1048,3,-1562
1545,17.963631,-1,-1,1,1047,1,-1563
1546,17.975204,1,1,2,1043,-1,-1560
1547,17.986766,1,1,3,1041,-2,-1558
1548,17.998369,-1,-1,1,1041,-3,-1560
1549,18.009934,-1,-1,2,1046,0,-1566
1550,18.021484,0,2,1,1047,0,-1559
1551,18.033027,0,1,4,1048,-4,-1553
1552,18.0446,0,-2,2,1049,0,-1558
1553,18.056166,0,0,2,1046,0,-1560
1554,18.067735,0,1,3,1044,0,-1563
1555,18.079405,-1,1,3,1046,2,-1565
1556,18.091059,-1,-1,0,1050,1,-1560
1557,18.102715,-1,0,2,1046,1,-1557
1558,18.114365,1,0,1,1046,0,-1555
1559,18.126024,0,2,0,1045,-4,-1558
1560,18.137704,1,1,0,1044,-1,-1558
1561,18.149372,-1,0,1,1046,2,-1556
1562,18.161037,0,1,1,1050,-2,-1567
1563,18.172709,1,0,1,1048,-1,-1559
1564,18.184417,-1,0,3,1047,0,-1558
1565,18.195984,1,-2,0,1045,0,-1566
1566,18.207545,1,0,2,1046,2,-1559
1567,18.219131,0,-1,2,1046,2,-1562
1568,18.230684,1,0,0,1045,5,-1556
1569,18.242246,-1,1,2,1051,0,-1556
1570,18.253857,0,0,2,1047,0,-1563
1571,18.265417,0,-1,1,1047,2,-1555
1572,18.277,-1,-1,4,1050,3,-1564
1573,18.288662,0,1,2,1048,0,-1561
1574,18.300293,-2,-1,2,1045,0,-1561
1575,18.311958,-2,2,2,1050,1,-1565
1576,18.323649,-1,-2,2,1045,-2,-1566
1577,18.337585,0,0,0,1045,0,-1563
1578,18.349299,0,2,1,1045,2,-1558
1579,18.360963,0,0,1,1049,3,-1559
1580,18.372631,2,0,1,1043,0,-1559
1581,18.384284,-1,1,2,1045,-3,-1562
1582,18.395868,1,0,1,1044,2,-1564
1583,18.407435,2,-1,3,1045,0,-1553
1584,18.418988,2,-1,0,1048,-1,-1561
1585,18.430542,0,-1,3,1047,1,-1557
1586,18.442094,1,1,-1,1048,0,-1563
1587,18.453646,0,1,2,1046,0,-1556
1588,18.465217,2,0,0,1047,-2,-1564
1589,18.476868,1,0,2,1043,-1,-1561
1590,18.488509,0,-2,0,1042,-2,-1564
1591,18.50009,2,1,0,1047,0,-1557
1592,18.511646,0,0,2,1048,0,-1560
1593,18.523201,1,1,2,1045,0,-1560
1594,18.534752,1,-1,1,1048,-3,-1559
1595,18.546299,0,0,-1,1048,-4,-1559
1596,18.557845,1,-1,3,1046,-3,-1555
1597,18.569393,-1,0,1,1048,-2,-1550
1598,18.580973,0,-2,3,1049,0,-1563
1599,18.592643,0,-1,0,1047,1,-1559
1600,18.60431,1,0,0,1046,-2,-1557
1601,18.616019,0,0,1,1045,1,-1563
1602,18.627711,1,-1,2,1046,0,-1556
1603,18.639409,0,1,3,1045,0,-1563
1604,18.651059,0,1,1,1049,0,-1560
1605,18.662718,1,1,1,1049,4,-1563
1606,18.674394,0,0,0,1047,0,-1554
1607,18.686045,1,2,1,1046,3,-1562
1608,18.697713,0,0,0,1049,-2,-1566
1609,18.709366,1,-1,1,1051,3,-1562
1610,18.72104,0,0,0,1046,-1,-1555
1611,18.732701,0,0,0,1047,1,-1552
1612,18.744359,0,-1,-1,1050,4,-1561
1613,18.756029,1,0,1,1043,3,-1553
1614,18.767691,0,0,0,1046,1,-1557
1615,18.779333,0,-1,1,1050,-1,-1563
1616,18.791012,-1,0,1,1047,0,-1561
1617,18.802695,0,-1,0,1048,-3,-1560
1618,18.814353,-1,1,1,1044,0,-1566
1619,18.826004,0,0,2,1044,-3,-1556
1620,18.837686,0,1,-1,1046,0,-1563
1621,18.849334,0,-1,2,1047,2,-1559
1622,18.860998,2,-2,2,1046,1,-1556
1623,18.872681,0,1,1,1048,1,-1566
1624,18.884328,1,-1,1,1045,-1,-1558
1625,18.896012,0,0,-1,1042,0,-1555
1626,18.907755,1,-1,3,1049,-1,-1563
1627,18.919424,-1,3,0,1047,-3,-1560
1628,18.931,0,2,3,1045,0,-1564
1629,18.942564,1,1,1,1048,1,-1559
1630,18.954119,0,1,0,1043,0,-1564
1631,18.96573,-1,2,0,1047,0,-1562
1632,18.977285,1,-2,0,1047,-2,-1558
1633,18.988861,0,2,1,1045,-1,-1564
1634,19.00051,-1,0,-1,1046,1,-1563
1635,19.012122,1,0,2,1045,3,-1558
1636,19.023773,-1,1,2,1046,-1,-1561
1637,19.035438,0,0,2,1049,3,-1567
1638,19.047091,-1,1,3,1045,0,-1560
1639,19.058764,0,-1,1,1046,-2,-1560
1640,19.070417,0,1,2,1047,2,-1562
1641,19.08207,1,0,0,1048,2,-1567
1642,19.093729,0,3,1,1048,0,-1559
1643,19.105396,2,0,2,1046,1,-1556
1644,19.117058,1,1,1,1045,-1,-1551
1645,19.128748,0,2,1,1047,0,-1562
1646,19.140365,-1,0,2,1044,1,-1563
1647,19.151912,-1,1,2,1048,2,-1559
1648,19.163485,1,0,-2,1049,-3,-1563
1649,19.175035,2,2,0,1048,-1,-1560
1650,19.186582,0,-1,-1,1048,0,-1557
1651,19.198139,1,3,1,1045,0,-1558
1652,19.209717,1,0,0,1043,0,-1554
1653,19.22128,0,0,1,1045,4,-1561
1654,19.232924,1,0,0,1046,-3,-1558
1655,19.244608,0,-1,0,1043,-1,-1558
1656,19.25629,1,-2,0,1048,0,-1560
1657,19.26795,1,2,3,1050,2,-1558
1658,19.279646,-1,0,1,1047,0,-1561
1659,19.291306,0,2,1,1050,-1,-1559
1660,19.302961,1,-2,0,1047,1,-1566
1661,19.314637,1,1,-1,1045,0,-1548
1662,19.326306,-1,1,0,1046,2,-1560
1663,19.338015,0,-1,2,1048,0,-1558
1664,19.349666,0,0,0,1049,1,-1559
1665,19.361316,-2,2,1,1048,0,-1558
1666,19.372999,2,0,2,1047,-1,-1562
1667,19.384676,1,0,1,1048,1,-1562
1668,19.396333,0,1,2,1047,1,-1561
1669,19.408025,1,0,3,1047,0,-1559
1670,19.419681,1,1,0,1046,-1,-1563
1671,19.431346,0,-1,0,1047,1,-1565
1672,19.443015,1,-2,2,1049,-2,-1559
1673,19.454582,-1,1,1,1049,-2,-1559
1674,19.466144,0,-1,2,1046,-1,-1561
1675,19.477731,1,0,1,1049,0,-1560
1676,19.489288,0,0,1,1047,-2,-1560
1677,19.500863,-1,1,-1,1050,1,-1554
1678,19.512442,-1,2,1,1048,0,-1561
1679,19.523976,1,1,1,1048,1,-1561
1680,19.535509,0,0,0,1047,3,-1560
1681,19.547128,2,0,0,1048,-1,-1557
1682,19.55879,-1,2,1,1048,1,-1565
1683,19.570445,0,-2,0,1044,0,-1563
1684,19.582109,1,1,2,1047,2,-1558
1685,19.593765,2,-2,1,1045,-1,-1563
1686,19.605425,2,-1,0,1045,2,-1557
1687,19.617088,1,-1,1,1045,4,-1560
1688,19.628756,1,0,2,1054,2,-1564
1689,19.640434,0,1,2,1049,5,-1558
1690,19.652091,0,-1,-1,1045,-3,-1550
1691,19.663653,-1,-1,0,1047,2,-1558
1692,19.675236,1,-2,0,1044,2,-1564
1693,19.686783,-2,4,1,1046,-1,-1560
1694,19.698334,1,0,0,1048,0,-1568
1695,19.709901,1,-2,1,1046,0,-1557
1696,19.721455,0,0,-1,1046,-1,-1558
1697,19.733004,-2,0,0,1047,0,-1563
1698,19.744602,-1,0,2,1047,1,-1554
1699,19.756239,-1,0,2,1048,3,-1562
1700,19.76791,0,-2,2,1044,3,-1559
1701,19.779571,1,0,2,1047,0,-1567
1702,19.791247,-1,0,1,1049,-1,-1556
1703,19.802908,-1,0,1,1050,-1,-1558
1704,19.814561,1,1,2,1048,0,-1556
1705,19.826206,0,1,2,1047,0,-1559
1706,19.837855,1,3,1,1049,0,-1561
1707,19.849542,1,2,0,1048,0,-1564
1708,19.861192,-2,2,2,1043,4,-1555
1709,19.872755,-1,1,0,1048,3,-1558
1710,19.88433,-1,0,1,1047,3,-1564
1711,19.895894,0,0,2,1046,-1,-1564
1712,19.907494,0,-1,3,1047,-4,-1553
1713,19.919052,0,0,2,1047,0,-1555
1714,19.930617,-1,-2,2,1048,0,-1566
1715,19.942169,-1,-1,2,1043,3,-1565
1716,19.953731,0,-1,1,1048,-1,-1558
1717,19.965419,-1,-2,1,1042,0,-1557
1718,19.977076,1,-1,1,1046,-2,-1562
1719,19.988756,2,-1,2,1043,-1,-1558
1720,20.000427,0,1,1,1048,-3,-1560
1721,20.012086,-1,-2,3,1045,0,-1560
1722,20.023777,2,0,1,1048,-3,-1564
1723,20.035433,-1,1,1,1045,0,-1559
1724,20.047089,1,1,2,1052,0,-1562
1725,20.058779,-1,2,-1,1046,2,-1555
1726,20.070429,-2,0,1,1048,0,-1555
1727,20.082019,0,0,0,1047,1,-1562
1728,20.093577,1,2,2,1046,0,-1562
1729,20.105127,0,1,2,1045,0,-1558
1730,20.116747,1,0,2,1047,-3,-1558
1731,20.128316,-1,-3,0,1050,-2,-1555
1732,20.140082,1,0,3,1049,1,-1563
1733,20.151775,0,0,1,1045,2,-1563
1734,20.163486,1,0,2,1042,-1,-1563
1735,20.175132,0,-1,1,1047,1,-1557
1736,20.186825,-1,1,1,1047,4,-1552
1737,20.198489,-2,0,1,1048,2,-1555
1738,20.210149,2,1,2,1045,-3,-1561
1739,20.221812,0,-1,0,1045,-1,-1562
1740,20.233476,0,0,0,1042,-2,-1559
1741,20.245156,0,0,1,1050,0,-1560
1742,20.256816,2,1,2,1048,1,-1558
1743,20.268542,1,0,3,1050,1,-1565
1744,20.280205,1,1,2,1046,0,-1562
1745,20.291901,-1,2,1,1047,-2,-1558
1746,20.303567,1,0,-1,1046,3,-1559
1747,20.315255,0,1,-2,1051,-3,-1561
1748,20.32692,0,0,0,1046,1,-1562
1749,20.338584,1,0,1,1047,2,-1559
1750,20.350265,0,-1,1,1048,3,-1560
1751,20.361921,1,0,1,1047,0,-1564
1752,20.373589,1,0,1,1045,0,-1561
1753,20.385283,2,-1,0,1050,-1,-1556
1754,20.396866,1,-1,2,1050,0,-1562
1755,20.408456,-1,0,1,1045,-1,-1561
1756,20.419975,0,-2,0,1049,-1,-1563
1757,20.431492,0,2,-2,1047,0,-1557
1758,20.44308,-1,2,-1,1048,2,-1557
1759,20.45463,1,-1,0,1046,0,-1557
1760,20.466212,0,1,2,1041,-2,-1557
1761,20.477774,0,0,1,1048,-1,-1560
1762,20.489462,1,0,1,1047,0,-1561
1763,20.501127,1,0,2,1049,2,-1562
1764,20.512816,-1,1,1,1046,0,-1563
1765,20.524484,2,2,1,1048,0,-1561
1766,20.536185,1,0,0,1044,-3,-1568
1767,20.547859,0,-1,-1,1045,0,-1554
1768,20.559511,3,-1,2,1045,0,-1561
1769,20.571169,2,1,1,1047,-2,-1559
1770,20.582839,1,0,2,1047,2,-1562
1771,20.594497,0,0,6,1045,-1,-1554
1772,20.606055,1,-2,3,1047,3,-1562
1773,20.617601,0,-2,2,1049,2,-1561
1774,20.629157,0,0,1,1048,1,-1562
1775,20.640737,1,0,0,1047,0,-1563
1776,20.652301,1,-1,1,1048,0,-1567
1777,20.663869,0,0,1,1044,3,-1562
1778,20.67542,0,2,1,1048,2,-1555
1779,20.686993,0,-2,-1,1048,-3,-1564
1780,20.698611,1,0,2,1048,0,-1563
1781,20.710271,0,1,1,1051,0,-1561
1782,20.721921,0,0,1,1044,0,-1562
1783,20.73358,-1,0,1,1045,2,-1559
1784,20.745252,1,1,1,1044,-1,-1560
1785,20.756917,1,1,0,1047,1,-1563
1786,20.768561,-1,0,2,1047,0,-1556
1787,20.780245,1,0,2,1048,-1,-1563
1788,20.791936,0,-1,2,1046,0,-1560
1789,20.80361,0,1,-1,1048,0,-1559
1790,20.815199,-1,1,0,1046,1,-1561
1791,20.826754,-1,3,-1,1047,-2,-1555
1792,20.838346,1,-2,1,1048,0,-1564
1793,20.849899,1,0,0,1048,5,-1557
1794,20.86153,0,0,1,1047,0,-1566
1795,20.873085,0,-1,0,1048,-1,-1562
1796,20.884641,0,0,2,1045,1,-1559
1797,20.896223,1,-2,1,1044,1,-1557
1798,20.907862,-1,1,1,1047,-1,-1564
1799,20.919526,0,-1,2,1047,0,-1558
1800,20.931186,-1,1,1,1048,-1,-1561
1801,20.942836,0,0,0,1040,3,-1554
1802,20.954511,1,0,2,1044,0,-1560
1803,20.966173,0,-1,-1,1046,1,-1560
1804,20.977815,-1,-1,0,1042,1,-1563
1805,20.98949,0,-1,1,1048,5,-1554
1806,21.001168,0,1,0,1045,3,-1558
1807,21.012868,-1,0,0,1044,-2,-1555
1808,21.024495,0,0,1,1048,0,-1560
1809,21.03605,-2,1,1,1049,1,-1558
1810,21.047636,0,0,1,1044,-1,-1562
1811,21.05923,-1,-1,0,1046,0,-1561
1812,21.070789,-1,1,1,1047,2,-1561
1813,21.082383,2,-1,1,1047,2,-1562
1814,21.093945,0,-1,2,1048,0,-1556
1815,21.105512,1,-1,1,1046,0,-1561
1816,21.117163,0,-2,3,1048,0,-1565
1817,21.128811,0,2,1,1048,2,-1564
1818,21.140504,0,1,2,1047,-1,-1561
1819,21.152188,2,-1,2,1049,1,-1556
1820,21.16384,-1,1,0,1044,2,-1558
1821,21.175523,0,-1,1,1048,0,-1567
1822,21.18724,1,2,0,1044,0,-1567
1823,21.198893,-2,1,1,1046,-2,-1559
1824,21.210564,0,1,0,1048,-1,-1553
1825,21.222235,0,-2,1,1049,1,-1557
1826,21.233825,1,-1,1,1043,1,-1560
1827,21.24538,1,0,2,1052,0,-1562
1828,21.256965,-1,0,2,1044,-1,-1558
1829,21.268526,-1,-2,2,1048,-3,-1557
1830,21.280117,0,1,2,1048,-3,-1564
1831,21.291669,-1,2,0,1045,-1,-1561
1832,21.303242,1,-1,1,1051,3,-1562
1833,21.314808,-1,1,0,1043,-2,-1557
1834,21.326458,0,-1,1,1050,2,-1565
1835,21.338127,2,0,2,1047,0,-1561
1836,21.349799,0,0,1,1044,1,-1563
1837,21.361449,0,0,0,1048,0,-1556
1838,21.373114,1,1,4,1047,1,-1554
1839,21.384803,-1,2,1,1043,1,-1562
1840,21.39646,-1,1,1,1046,0,-1559
1841,21.408152,-1,0,1,1048,0,-1561
1842,21.419834,1,2,1,1045,1,-1564
1843,21.431519,0,-1,0,1044,-3,-1564
1844,21.443177,1,2,1,1046,-2,-1553
1845,21.454822,1,1,2,1043,-3,-1559
1846,21.46649,0,-1,1,1048,0,-1561
1847,21.478163,0,2,3,1049,-1,-1557
1848,21.489814,0,1,1,1049,-1,-1555
1849,21.501461,1,0,3,1048,0,-1564
1850,21.51311,0,0,1,1050,1,-1558
1851,21.524815,-2,0,2,1046,-1,-1563
1852,21.536483,0,0,0,1046,-2,-1564
1853,21.548111,0,2,1,1044,-3,-1556
1854,21.559716,1,2,1,1046,0,-1557
1855,21.571267,0,0,1,1046,2,-1564
1856,21.582814,1,1,-2,1049,-4,-1560
1857,21.594389,1,2,3,1045,1,-1563
1858,21.605936,1,-1,2,1045,0,-1561
1859,21.617485,0,1,1,1046,1,-1557
1860,21.629056,0,-1,1,1050,0,-1557
1861,21.640708,1,-2,1,1045,3,-1560
1862,21.652394,-2,0,2,1048,3,-1565
1863,21.664042,0,-1,2,1044,0,-1561
1864,21.675704,-1,-1,3,1045,-3,-1554
1865,21.687384,0,0,2,1041,1,-1563
1866,21.699043,-1,0,0,1048,0,-1565
1867,21.710695,0,1,2,1045,-2,-1557
1868,21.722352,1,2,2,1047,0,-1560
1869,21.734014,-1,0,2,1049,2,-1566
1870,21.745677,0,-1,-1,1047,-3,-1566
1871,21.757333,3,1,1,1047,1,-1566
1872,21.769005,0,2,1,1047,0,-1557
1873,21.780685,-1,1,2,1045,-2,-1557
1874,21.792339,1,0,2,1046,-1,-1556
1875,21.804034,-1,1,-1,1049,0,-1559
1876,21.815692,0,3,3,1045,-1,-1562
1877,21.827373,1,1,1,1049,-3,-1555
1878,21.839112,1,-1,3,1048,-2,-1557
1879,21.85078,-2,0,2,1045,2,-1564
1880,21.86239,0,0,1,1043,0,-1560
1881,21.87397,0,3,0,1049,3,-1563
1882,21.88552,-1,-1,1,1045,1,-1558
1883,21.89707,-1,1,1,1047,1,-1563
1884,21.908634,0,0,3,1045,0,-1554
1885,21.920205,1,0,1,1048,-1,-1560
1886,21.931791,-1,2,1,1047,-2,-1564
1887,21.94339,1,2,1,1045,-2,-1561
1888,21.955055,-1,0,2,1048,1,-1557
1889,21.966736,2,1,1,1045,0,-1554
1890,21.978388,1,2,2,1049,0,-1565
1891,21.990045,-1,-1,-2,1046,3,-1562
1892,22.001703,1,-1,2,1049,1,-1564
1893,22.013404,1,-1,2,1051,0,-1561
1894,22.025056,0,-2,-1,1042,0,-1559
1895,22.036721,1,2,1,1046,-3,-1562
1896,22.048427,0,1,1,1048,3,-1559
1897,22.060096,-1,1,2,1047,0,-1556
1898,22.071672,0,0,1,1049,-4,-1562
1899,22.083255,-1,1,0,1042,-3,-1563
1900,22.094808,1,1,2,1048,-3,-1559
1901,22.106376,0,-1,2,1046,0,-1564
1902,22.117917,1,1,3,1050,0,-1558
1903,22.129474,1,0,2,1049,2,-1558
1904,22.141046,-1,-1,0,1046,0,-1560
1905,22.152617,0,1,1,1045,2,-1555
1906,22.164304,2,0,2,1047,-2,-1558
1907,22.175969,0,1,0,1047,-2,-1560
1908,22.187655,0,-1,0,1046,-3,-1564
1909,22.19932,-1,1,1,1046,0,-1563
1910,22.210966,2,1,2,1044,-2,-1560
1911,22.222622,1,1,-1,1048,-1,-1560
1912,22.234308,-1,1,2,1045,0,-1565
1913,22.245958,-1,-2,0,1048,0,-1557
1914,22.257633,1,0,3,1050,0,-1559
1915,22.269308,0,2,1,1047,0,-1559
1916,22.280886,1,1,2,1045,2,-1554
1917,22.292499,0,2,0,1049,0,-1558
1918,22.304101,1,0,2,1042,0,-1557
1919,22.315663,0,-1,2,1049,-2,-1558
1920,22.327246,0,-1,0,1047,0,-1565
1921,22.338817,1,0,1,1045,0,-1559
1922,22.350378,1,-1,1,1049,-1,-1561
1923,22.361933,-1,-2,3,1046,0,-1563
1924,22.373565,-1,1,0,1049,-2,-1553
1925,22.385219,1,2,1,1046,0,-1562
1926,22.396872,1,0,1,1046,0,-1555
1927,22.408561,0,1,1,1044,-2,-1563
1928,22.420218,0,0,-1,1041,-1,-1560
1929,22.431911,1,-1,1,1047,0,-1551
1930,22.443578,2,0,0,1047,0,-1562
1931,22.455249,2,0,1,1045,0,-1560
1932,22.466924,0,1,2,1047,2,-1560
1933,22.478584,-2,0,0,1044,0,-1562
1934,22.490153,0,1,1,1044,4,-1556
1935,22.501743,1,1,2,1047,-2,-1563
1936,22.5133,-1,1,2,1043,1,-1559
1937,22.524886,0,0,0,1043,1,-1561
1938,22.5365,0,0,1,1044,5,-1558
1939,22.548053,0,-1,2,1044,0,-1561
1940,22.559623,1,1,2,1044,-3,-1557
1941,22.57119,1,0,-1,1044,-1,-1555
1942,22.582816,-1,-1,1,1048,5,-1554
1943,22.594477,0,1,1,1048,0,-1557
1944,22.606156,1,0,2,1047,2,-1554
1945,22.617819,0,-1,1,1045,-2,-1560
1946,22.629476,0,-1,0,1048,0,-1559
1947,22.641171,-1,-1,1,1042,2,-1561
1948,22.652821,-1,3,3,1048,-2,-1564
1949,22.664481,0,0,2,1046,0,-1558
1950,22.676205,1,1,0,1046,1,-1561
1951,22.687902,2,1,2,1049,0,-1561
1952,22.699504,2,-1,1,1047,2,-1558
1953,22.71108,0,0,4,1048,-3,-1557
1954,22.722628,0,1,0,1050,0,-1565
1955,22.734173,0,0,0,1046,-2,-1555
1956,22.745722,1,-2,1,1047,2,-1565
1957,22.757268,-1,0,1,1048,0,-1562
1958,22.768811,0,0,1,1046,0,-1566
1959,22.780385,1,-2,1,1045,0,-1563
1960,22.792032,-1,0,4,1045,-1,-1562
1961,22.803691,-1,1,1,1048,0,-1564
1962,22.815375,0,1,2,1044,0,-1558
1963,22.82705,-1,1,1,1043,-4,-1558
1964,22.8387,0,-1,1,1045,2,-1566
1965,22.850349,0,1,1,1046,-1,-1560
1966,22.862022,-1,2,0,1048,1,-1556
1967,22.873679,1,1,2,1047,0,-1563
1968,22.885328,-1,1,0,1047,0,-1554
1969,22.896884,-2,-1,0,1045,1,-1563
1970,22.908445,1,-1,1,1044,0,-1565
1971,22.91997,0,1,2,1047,0,-1559
1972,22.931493,0,-1,3,1046,1,-1556
1973,22.94304,1,2,2,1043,1,-1554
1974,22.954583,1,1,0,1049,0,-1558
1975,22.966128,0,-2,1,1045,2,-1553
1976,22.97769,0,0,1,1049,-1,-1561
1977,22.989405,1,-1,-1,1043,0,-1558
1978,23.001068,-1,1,0,1043,1,-1560
1979,23.012739,1,1,1,1045,2,-1559
1980,23.024429,-1,2,2,1046,0,-1561
1981,23.036095,0,2,3,1041,-3,-1559
1982,23.04779,0,-1,-1,1049,1,-1554
1983,23.059463,0,0,2,1048,1,-1551
1984,23.071119,-1,1,3,1048,2,-1557
1985,23.082827,-1,0,1,1047,0,-1559
1986,23.094493,1,2,2,1047,3,-1554
1987,23.106051,0,-1,1,1049,1,-1557
1988,23.117602,2,0,1,1046,2,-1552
1989,23.129156,2,2,0,1045,2,-1557
1990,23.140734,1,0,0,1047,1,-1563
1991,23.152296,-2,-2,2,1044,-2,-1562
1992,23.163873,1,0,1,1043,3,-1559
1993,23.17542,-1,-1,2,1044,0,-1556
1994,23.18699,0,0,1,1045,0,-1561
1995,23.198608,0,2,1,1048,-2,-1561
1996,23.21026,0,0,2,1048,-2,-1556
1997,23.221916,0,0,2,1049,0,-1558
1998,23.233572,-1,0,0,1048,-3,-1560
1999,23.245216,0,-1,2,1044,0,-1561
