sample,t_s,gyro_x,gyro_y,gyro_z,accel_x,accel_y,accel_z
0,1.2e-05,3,7,9,13,27,-1034
1,0.011436,2,9,9,17,22,-1034
2,0.022658,4,5,9,14,26,-1032
3,0.033817,2,8,6,19,31,-1036
4,0.045006,0,8,8,11,25,-1038
5,0.0562,3,5,8,14,27,-1035
6,0.067388,4,8,9,14,26,-1035
7,0.078576,3,6,10,15,24,-1030
8,0.089774,0,7,8,17,28,-1033
9,0.100967,1,4,8,17,22,-1039
10,0.112153,1,6,9,18,27,-1029
11,0.123339,1,7,9,15,26,-1035
12,0.134526,3,7,8,13,24,-1028
13,0.145714,3,6,9,16,25,-1035
14,0.156899,3,4,10,14,26,-1032
15,0.16809,8,2,8,12,24,-1033
16,0.17928,2,7,8,12,24,-1034
17,0.190471,1,5,10,15,22,-1034
18,0.201638,2,8,11,14,26,-1036
19,0.212832,1,5,8,13,25,-1033
20,0.224025,4,7,8,15,21,-1040
21,0.235211,3,7,8,15,24,-1037
22,0.246376,5,5,9,12,24,-1035
23,0.257594,3,5,11,12,27,-1035
24,0.268778,4,6,8,14,27,-1033
25,0.279968,2,5,8,14,22,-1034
26,0.291152,0,5,8,14,24,-1034
27,0.30234,2,6,11,11,24,-1034
28,0.313529,2,7,8,9,22,-1030
29,0.324713,3,8,8,15,24,-1033
30,0.3359,0,6,7,18,26,-1033
31,0.347082,4,6,8,9,26,-1035
32,0.358269,1,6,9,12,30,-1032
33,0.369452,2,6,9,15,22,-1037
34,0.380638,1,6,8,15,26,-1035
35,0.391826,3,4,8,13,31,-1031
36,0.40304,2,3,11,18,22,-1034
37,0.414248,4,7,9,10,26,-1032
38,0.425446,4,4,7,13,22,-1036
39,0.436634,2,7,10,14,26,-1031
40,0.447832,2,7,12,13,28,-1033
41,0.459023,3,6,9,16,28,-1042
42,0.470197,2,6,9,15,26,-1035
43,0.481384,2,4,10,14,26,-1032
44,0.492579,2,6,11,13,24,-1041
45,0.503769,2,5,7,13,29,-1031
46,0.514954,4,7,8,15,28,-1034
47,0.52615,1,8,9,12,26,-1031
48,0.537339,1,7,10,12,23,-1037
49,0.548524,3,6,9,9,26,-1041
50,0.559712,2,6,8,17,31,-1036
51,0.570898,2,7,10,17,22,-1041
52,0.582087,3,6,9,13,22,-1045
53,0.593275,1,6,11,16,25,-1033
54,0.604461,2,6,8,11,27,-1035
55,0.615654,1,7,8,15,27,-1038
56,0.62684,3,6,9,15,28,-1032
57,0.638003,2,6,9,17,28,-1033
58,0.64919,2,7,8,17,26,-1047
59,0.660375,3,6,10,11,23,-1035
60,0.671558,4,6,7,16,25,-1037
61,0.682741,3,4,8,15,28,-1035
62,0.693933,2,8,9,14,27,-1036
63,0.705115,2,7,11,14,26,-1031
64,0.716299,2,5,10,18,25,-1034
65,0.727483,2,8,9,16,21,-1034
66,0.738666,4,7,10,14,23,-1031
67,0.74982,1,6,9,17,22,-1032
68,0.761025,2,7,8,12,26,-1033
69,0.772211,1,6,8,15,26,-1039
70,0.783397,4,6,9,17,27,-1037
71,0.794584,3,7,7,20,25,-1034
72,0.805778,4,6,8,16,28,-1036
73,0.816962,2,7,11,18,27,-1033
74,0.828151,1,7,9,13,29,-1032
75,0.839335,3,6,9,11,27,-1033
76,0.850533,3,7,7,13,24,-1038
77,0.861731,1,7,10,12,27,-1032
78,0.872915,2,6,8,15,27,-1033
79,0.884101,1,6,8,16,26,-1033
80,0.89529,1,7,10,12,26,-1031
81,0.906486,3,9,8,12,23,-1041
82,0.917681,3,5,8,13,24,-1034
83,0.928862,4,2,10,9,25,-1036
84,0.940048,3,5,11,10,27,-1040
85,0.951232,2,8,7,11,27,-1040
86,0.962425,1,6,9,14,23,-1031
87,0.973631,3,5,11,14,24,-1038
88,0.984815,2,7,9,7,29,-1034
89,0.996,4,6,11,13,26,-1033
90,1.007184,3,7,10,11,23,-1036
91,1.018374,3,6,7,15,27,-1041
92,1.029561,4,7,10,18,25,-1039
93,1.040749,3,6,8,14,25,-1037
94,1.051932,3,7,10,14,30,-1031
95,1.063114,3,6,6,13,30,-1036
96,1.074303,3,6,10,16,23,-1036
97,1.085447,3,7,8,13,23,-1038
98,1.096631,1,10,9,17,24,-1027
99,1.107819,3,7,10,14,25,-1037
100,1.119012,2,4,9,13,24,-1031
101,1.130189,3,8,10,13,27,-1034
102,1.141374,3,8,8,14,27,-1041
103,1.15256,3,6,9,17,26,-1039
104,1.163748,3,4,8,14,24,-1032
105,1.174932,1,6,9,16,27,-1035
106,1.186124,2,8,12,12,23,-1034
107,1.197314,2,7,10,15,27,-1043
108,1.208509,2,6,9,16,24,-1031
109,1.219699,2,6,10,15,25,-1035
110,1.230882,3,6,9,13,20,-1034
111,1.242071,3,9,9,12,25,-1037
112,1.253253,3,6,7,16,25,-1037
113,1.264441,3,6,10,11,28,-1036
114,1.275631,3,6,8,15,30,-1032
115,1.286816,2,6,9,13,29,-1031
116,1.298005,3,9,9,12,22,-1040
117,1.309191,2,5,7,14,26,-1033
118,1.320378,1,7,11,11,23,-1035
119,1.331565,2,6,9,12,26,-1032
120,1.342751,2,8,12,13,31,-1032
121,1.353943,1,7,11,16,28,-1037
122,1.36513,5,6,9,12,29,-1034
123,1.376321,2,6,9,14,25,-1034
124,1.387504,4,8,9,14,26,-1032
125,1.398691,1,4,9,12,23,-1038
126,1.409881,1,6,8,14,28,-1038
127,1.421068,0,6,9,15,25,-1025
128,1.432254,3,8,9,18,25,-1040
129,1.44344,1,6,8,12,24,-1040
130,1.454629,2,6,9,13,27,-1036
131,1.465822,1,7,9,15,27,-1033
132,1.477022,1,5,8,13,27,-1035
133,1.488207,1,5,10,11,21,-1035
134,1.499394,1,6,8,10,24,-1031
135,1.510576,3,7,6,16,26,-1038
136,1.521767,2,4,9,14,28,-1033
137,1.532956,3,6,9,14,26,-1036
138,1.544142,3,6,8,15,25,-1037
139,1.555328,0,6,9,15,28,-1032
140,1.566518,2,7,11,14,26,-1033
141,1.577711,2,7,6,17,26,-1030
142,1.588898,2,6,8,13,28,-1036
143,1.60009,1,5,9,16,25,-1036
144,1.611276,2,6,9,13,26,-1037
145,1.622466,1,5,10,15,24,-1034
146,1.633633,4,8,11,15,20,-1036
147,1.64482,4,8,9,15,25,-1040
148,1.656005,2,7,9,12,22,-1038
149,1.667192,4,8,8,13,26,-1030
150,1.67839,2,5,8,13,24,-1030
151,1.689579,0,8,9,16,27,-1035
152,1.70077,2,6,9,13,25,-1035
153,1.711961,4,5,9,15,30,-1038
154,1.723147,3,7,9,8,29,-1039
155,1.734336,2,7,8,14,23,-1039
156,1.745523,3,4,8,12,25,-1028
157,1.756709,3,4,7,11,28,-1028
158,1.767895,2,7,10,10,23,-1031
159,1.779081,3,7,10,15,23,-1037
160,1.790269,1,8,9,16,32,-1037
161,1.801448,1,6,10,16,25,-1036
162,1.81263,3,5,9,13,25,-1035
163,1.823812,2,3,8,11,29,-1036
164,1.835006,2,6,10,12,25,-1032
165,1.846188,3,6,10,15,27,-1037
166,1.85737,3,6,10,11,26,-1038
167,1.868553,2,7,9,11,27,-1028
168,1.879747,2,6,9,11,26,-1033
169,1.890931,2,8,9,15,26,-1039
170,1.902125,0,5,11,8,25,-1039
171,1.91331,2,8,9,16,25,-1034
172,1.924495,2,4,8,13,28,-1033
173,1.935681,2,6,10,13,25,-1040
174,1.946864,3,6,8,14,25,-1037
175,1.958051,2,6,11,12,28,-1040
176,1.969234,3,6,8,13,25,-1035
177,1.980425,2,7,9,12,26,-1037
178,1.99161,2,6,10,17,26,-1030
179,2.002795,1,7,7,12,25,-1036
180,2.013998,2,6,6,12,24,-1034
181,2.02518,2,9,10,12,26,-1030
182,2.036364,3,6,10,18,24,-1035
183,2.04755,3,7,10,13,28,-1040
184,2.058734,2,5,9,15,25,-1030
185,2.069928,2,6,10,9,22,-1033
186,2.081113,2,4,10,14,27,-1032
187,2.092298,2,6,7,15,25,-1028
188,2.103487,3,7,10,11,24,-1032
189,2.114678,3,7,9,13,25,-1028
190,2.125867,2,8,9,14,24,-1032
191,2.137054,2,8,8,9,26,-1034
192,2.148247,4,7,7,16,27,-1033
193,2.159431,3,8,9,16,25,-1039
194,2.170621,4,6,9,14,27,-1035
195,2.181815,1,7,7,14,24,-1033
196,2.193016,1,7,10,17,26,-1038
197,2.204198,0,5,11,11,26,-1036
198,2.215387,4,10,10,12,30,-1033
199,2.226581,0,6,8,12,30,-1038
200,2.237771,2,8,9,13,24,-1040
201,2.248956,2,7,9,12,24,-1031
202,2.26014,2,6,11,9,28,-1035
203,2.271324,1,7,8,15,24,-1033
204,2.282509,1,6,10,13,23,-1038
205,2.293698,4,8,9,12,24,-1035
206,2.304885,2,6,10,18,26,-1031
207,2.316069,3,7,10,13,25,-1033
208,2.327252,3,8,8,12,29,-1042
209,2.338443,0,5,8,15,26,-1036
210,2.349635,2,4,10,12,25,-1033
211,2.360819,2,7,9,14,28,-1034
212,2.372016,1,6,9,13,25,-1033
213,2.383264,2,10,6,13,26,-1029
214,2.394605,3,5,9,15,23,-1033
215,2.405822,2,8,11,10,27,-1033
216,2.417014,0,9,8,14,25,-1035
217,2.428202,1,4,10,15,26,-1041
218,2.439389,4,5,9,14,27,-1038
219,2.450578,2,5,10,14,29,-1034
220,2.461771,2,9,8,13,27,-1029
221,2.472956,3,3,10,17,26,-1039
222,2.484147,2,8,11,14,23,-1038
223,2.495331,3,7,9,16,25,-1034
224,2.506522,1,9,8,14,25,-1028
225,2.517717,3,6,8,15,30,-1039
226,2.528902,3,7,8,16,22,-1035
227,2.540092,1,5,8,13,25,-1029
228,2.551291,3,5,9,13,23,-1033
229,2.562492,3,8,10,16,26,-1031
230,2.573681,2,7,8,14,21,-1032
231,2.584866,4,7,9,15,30,-1037
232,2.596053,3,7,10,12,28,-1038
233,2.607239,0,7,9,12,26,-1035
234,2.61843,2,6,11,13,24,-1034
235,2.629632,3,8,8,12,28,-1036
236,2.640822,2,5,9,15,24,-1030
237,2.652009,4,7,10,17,24,-1034
238,2.663198,4,7,9,15,27,-1030
239,2.674374,2,7,10,19,24,-1040
240,2.685561,1,7,10,13,27,-1034
241,2.696744,3,5,8,14,22,-1032
242,2.707927,1,5,9,11,27,-1035
243,2.719113,1,5,10,16,29,-1028
244,2.730302,0,6,10,14,25,-1042
245,2.74145,3,7,10,11,27,-1034
246,2.752641,4,6,10,11,26,-1033
247,2.763829,1,8,9,16,28,-1035
248,2.775017,2,5,9,16,31,-1033
249,2.786189,3,6,9,14,25,-1039
250,2.797373,2,8,10,11,25,-1033
251,2.808561,3,5,11,13,26,-1040
252,2.819744,3,6,9,8,28,-1038
253,2.830929,4,5,9,11,26,-1036
254,2.842117,3,7,10,15,25,-1028
255,2.8533,2,5,9,11,23,-1032
256,2.864486,3,6,8,12,24,-1032
257,2.875672,1,6,9,10,27,-1036
258,2.886856,1,5,8,16,25,-1036
259,2.898004,1,6,8,14,23,-1033
260,2.909203,3,7,8,11,23,-1032
261,2.92039,2,6,10,11,27,-1036
262,2.931573,3,7,12,13,24,-1037
263,2.942755,0,6,9,16,28,-1033
264,2.953941,2,7,7,15,27,-1029
265,2.965123,2,6,9,16,24,-1034
266,2.976306,2,7,9,12,26,-1033
267,2.987489,4,5,8,17,20,-1033
268,2.998677,2,6,8,15,28,-1032
269,3.009866,2,5,8,12,22,-1033
270,3.021051,3,6,8,12,23,-1038
271,3.032245,3,5,8,14,26,-1036
272,3.04343,2,5,11,14,20,-1036
273,3.054615,0,8,8,12,23,-1041
274,3.065813,3,6,7,14,26,-1035
275,3.076999,2,2,12,13,28,-1041
276,3.088184,2,6,11,12,25,-1033
277,3.099379,2,5,10,13,26,-1035
278,3.110564,3,7,10,14,31,-1030
279,3.121757,0,5,8,11,24,-1040
280,3.132941,1,6,11,12,29,-1028
281,3.144124,0,8,9,15,22,-1035
282,3.155306,2,5,8,14,21,-1038
283,3.166497,1,8,8,12,21,-1036
284,3.177685,3,6,9,10,22,-1040
285,3.188869,3,5,9,15,27,-1028
286,3.200057,1,7,9,12,25,-1032
287,3.211243,1,7,9,15,27,-1037
288,3.222432,2,6,10,14,27,-1039
289,3.233628,0,7,9,14,25,-1036
290,3.244814,1,6,9,14,28,-1043
291,3.256021,3,8,11,14,25,-1030
292,3.267206,3,5,8,18,24,-1031
293,3.278379,2,7,9,11,25,-1037
294,3.289569,2,4,8,14,26,-1035
295,3.300753,4,6,7,14,24,-1030
296,3.311944,2,7,9,12,28,-1031
297,3.323128,2,7,8,12,21,-1030
298,3.334321,4,7,6,12,25,-1036
299,3.345506,1,9,8,13,25,-1038
300,3.356691,2,7,9,13,21,-1038
301,3.367876,2,8,9,10,27,-1036
302,3.379061,3,6,9,13,27,-1034
303,3.390252,1,5,11,12,24,-1034
304,3.401447,1,7,9,17,26,-1036
305,3.412631,2,7,10,9,25,-1033
306,3.423818,3,5,10,14,22,-1040
307,3.435004,2,10,10,15,23,-1030
308,3.44619,3,8,9,12,23,-1031
309,3.457391,2,7,9,16,25,-1032
310,3.468575,3,5,9,11,26,-1037
311,3.479761,4,6,10,8,23,-1030
312,3.490945,2,4,10,14,27,-1035
313,3.502136,1,7,11,14,24,-1036
314,3.51333,3,7,10,13,24,-1033
315,3.524514,2,8,8,12,28,-1033
316,3.535699,3,8,11,10,26,-1039
317,3.546885,2,6,8,13,25,-1027
318,3.558077,2,8,10,14,25,-1031
319,3.569263,4,6,8,13,32,-1037
320,3.580452,1,8,9,15,28,-1044
321,3.591636,4,8,11,12,26,-1034
322,3.602821,2,6,10,8,23,-1034
323,3.614018,2,7,9,12,28,-1032
324,3.625202,3,6,9,13,25,-1039
325,3.636391,2,7,10,15,26,-1038
326,3.647576,4,7,10,14,28,-1034
327,3.658765,3,6,9,13,29,-1045
328,3.669955,3,8,12,11,28,-1032
329,3.68114,2,6,9,14,29,-1035
330,3.69233,3,5,10,13,29,-1037
331,3.703514,2,7,9,12,26,-1041
332,3.714703,2,5,6,10,25,-1037
333,3.725889,1,6,8,12,24,-1034
334,3.737076,2,7,10,9,23,-1035
335,3.748261,3,7,9,15,23,-1038
336,3.759458,3,7,9,17,24,-1031
337,3.770644,1,7,10,11,23,-1029
338,3.781818,2,7,9,14,26,-1031
339,3.793,3,3,11,16,27,-1040
340,3.804183,2,7,8,15,24,-1033
341,3.815378,6,5,10,12,25,-1041
342,3.826564,1,10,10,12,24,-1037
343,3.837753,2,7,10,14,27,-1031
344,3.848935,3,4,10,16,27,-1038
345,3.860117,4,9,11,14,23,-1035
346,3.871301,1,6,11,12,27,-1029
347,3.882489,1,4,9,13,25,-1036
348,3.893634,1,7,11,13,25,-1037
349,3.904822,3,8,9,15,21,-1033
350,3.916003,3,7,6,13,24,-1040
351,3.927185,2,6,12,16,26,-1033
352,3.938373,2,3,9,15,22,-1031
353,3.949564,3,5,9,14,24,-1035
354,3.960747,2,5,9,10,27,-1032
355,3.971941,2,6,9,12,24,-1031
356,3.983132,2,6,8,15,17,-1035
357,3.994319,2,5,7,14,26,-1038
358,4.005502,3,6,7,18,22,-1037
359,4.016684,2,6,10,13,25,-1033
360,4.027868,3,8,9,14,26,-1037
361,4.039048,2,5,8,15,30,-1035
362,4.050236,0,8,9,12,26,-1034
363,4.061419,3,6,7,11,27,-1028
364,4.072605,3,5,10,16,26,-1035
365,4.083791,4,6,11,13,26,-1039
366,4.094978,4,8,8,14,23,-1038
367,4.106166,3,7,11,10,25,-1033
368,4.117349,2,7,11,14,27,-1033
369,4.128535,3,7,7,19,28,-1033
370,4.139717,3,6,10,16,29,-1031
371,4.150903,1,6,7,12,27,-1034
372,4.162098,2,7,10,15,29,-1032
373,4.173283,2,6,7,11,23,-1035
374,4.184471,4,4,11,9,26,-1040
375,4.195658,3,6,10,14,23,-1034
376,4.206845,3,5,9,14,24,-1034
377,4.218011,3,5,10,16,29,-1032
378,4.229504,2,5,11,15,25,-1031
379,4.241176,1,7,10,19,26,-1045
380,4.252824,1,5,8,16,26,-1036
381,4.264497,1,6,9,12,23,-1035
382,4.276154,2,5,8,12,28,-1031
383,4.28781,3,4,8,12,26,-1032
384,4.299462,1,6,10,13,23,-1035
385,4.311123,2,6,11,14,28,-1037
386,4.322806,1,8,8,16,24,-1041
387,4.334507,2,5,11,16,25,-1038
388,4.346097,3,4,12,16,22,-1031
389,4.357657,2,6,9,14,22,-1032
390,4.369211,1,8,11,14,30,-1040
391,4.380782,2,6,8,17,25,-1035
392,4.392349,2,7,8,16,26,-1038
393,4.403907,4,8,9,11,24,-1036
394,4.415468,3,6,9,15,22,-1039
395,4.427023,4,5,8,15,27,-1034
396,4.438658,2,6,8,14,27,-1030
397,4.450317,1,8,10,9,21,-1037
398,4.462037,2,6,7,18,25,-1034
399,4.47369,1,7,10,11,25,-1030
400,4.485332,3,6,9,12,28,-1035
401,4.497016,2,7,9,13,23,-1036
402,4.508673,3,4,10,13,22,-1034
403,4.520319,0,7,8,13,21,-1037
404,4.532014,3,5,9,14,22,-1033
405,4.543673,1,7,11,15,25,-1037
406,4.555238,3,7,11,14,27,-1035
407,4.566843,2,10,9,15,22,-1038
408,4.578394,3,8,9,16,27,-1030
409,4.589969,2,7,10,13,29,-1037
410,4.601484,1,6,8,17,28,-1034
411,4.613029,3,7,9,14,23,-1032
412,4.624585,3,6,8,14,25,-1036
413,4.636148,1,6,10,11,25,-1031
414,4.64779,2,5,8,17,26,-1035
415,4.659448,1,6,10,15,24,-1033
416,4.671117,3,6,9,13,25,-1033
417,4.682795,2,6,8,12,25,-1035
418,4.694455,1,6,7,12,27,-1033
419,4.706166,3,9,11,14,25,-1036
420,4.717829,3,5,9,12,24,-1034
421,4.729504,2,5,11,13,23,-1030
422,4.74116,0,5,11,14,27,-1032
423,4.752738,2,6,7,12,22,-1033
424,4.764294,2,5,8,15,25,-1034
425,4.775865,3,8,7,13,27,-1034
426,4.787453,4,8,9,15,26,-1034
427,4.799005,2,7,8,13,27,-1034
428,4.810606,3,9,9,13,27,-1036
429,4.822155,1,8,8,16,23,-1039
430,4.833717,3,7,9,11,24,-1035
431,4.845276,3,7,8,13,26,-1033
432,4.85691,4,8,8,15,25,-1035
433,4.868568,1,8,9,10,21,-1039
434,4.880234,3,5,8,13,23,-1037
435,4.891901,1,7,8,12,25,-1041
436,4.903559,4,6,12,17,27,-1033
437,4.915216,2,6,9,14,21,-1038
438,4.926916,3,7,8,13,22,-1032
439,4.93858,2,5,11,12,23,-1032
440,4.950292,1,7,9,17,26,-1039
441,4.961994,2,6,11,16,29,-1037
442,4.973554,2,3,8,15,24,-1043
443,4.985118,1,8,10,11,24,-1033
444,4.996662,2,8,7,16,23,-1033
445,5.008207,4,8,9,13,28,-1036
446,5.019762,3,8,8,18,26,-1038
447,5.031308,3,8,8,15,27,-1034
448,5.042874,2,7,9,16,31,-1033
449,5.054455,2,5,9,12,26,-1034
450,5.066088,3,7,9,17,23,-1039
451,5.077785,2,5,9,10,24,-1033
452,5.089443,1,7,9,12,26,-1033
453,5.101104,1,6,10,17,23,-1041
454,5.112753,2,5,10,9,20,-1038
455,5.124416,2,7,10,12,29,-1037
456,5.136072,3,9,8,12,21,-1033
457,5.147719,2,5,11,13,23,-1037
458,5.159384,1,7,8,17,26,-1031
459,5.171049,0,5,9,13,25,-1038
460,5.182639,3,6,9,13,25,-1038
461,5.194213,0,7,9,12,25,-1036
462,5.205766,2,6,8,14,22,-1034
463,5.217314,4,7,10,11,24,-1041
464,5.228864,0,6,10,10,26,-1032
465,5.24041,3,5,10,15,25,-1034
466,5.251951,0,7,11,16,26,-1036
467,5.263504,3,7,8,13,28,-1032
468,5.275203,1,6,10,9,27,-1036
469,5.286885,3,6,10,18,25,-1033
470,5.298574,4,7,10,13,27,-1032
471,5.310259,1,6,9,14,25,-1031
472,5.321924,2,7,11,13,24,-1033
473,5.333623,3,8,10,12,26,-1036
474,5.34527,2,6,10,17,26,-1032
475,5.356935,3,7,10,15,25,-1032
476,5.36861,0,7,8,18,30,-1040
477,5.380276,1,7,8,13,27,-1034
478,5.391872,4,8,11,14,24,-1035
479,5.403433,3,6,8,14,26,-1036
480,5.415016,1,3,8,14,27,-1035
481,5.426593,0,6,10,16,24,-1032
482,5.43815,4,4,8,12,30,-1040
483,5.449745,4,7,9,12,26,-1035
484,5.461323,1,6,10,16,25,-1034
485,5.472913,3,5,9,14,28,-1035
486,5.484581,1,6,9,15,23,-1032
487,5.496242,3,3,9,17,25,-1039
488,5.507889,3,6,8,16,28,-1040
489,5.519553,4,6,9,15,22,-1035
490,5.531228,3,7,9,15,28,-1039
491,5.542924,4,7,9,11,25,-1035
492,5.554589,3,6,8,13,27,-1037
493,5.566271,5,7,8,16,27,-1033
494,5.577968,3,7,10,16,23,-1026
495,5.589645,2,6,9,13,26,-1031
496,5.601198,1,7,9,14,25,-1030
497,5.612759,1,6,8,12,25,-1036
498,5.624309,3,7,9,16,23,-1031
499,5.635856,2,7,8,12,26,-1037
500,5.64741,2,7,9,14,26,-1034
501,5.658982,3,5,10,14,26,-1043
502,5.670558,1,6,9,8,27,-1037
503,5.682166,3,7,9,14,23,-1039
504,5.693758,2,6,10,11,29,-1030
505,5.705433,2,7,8,13,26,-1033
506,5.717095,2,6,9,16,28,-1036
507,5.728745,2,5,9,12,26,-1035
508,5.740402,0,7,8,14,30,-1032
509,5.752056,1,5,9,12,25,-1034
510,5.763704,1,8,10,13,30,-1034
511,5.77536,3,6,9,15,30,-1035
512,5.787047,1,6,7,15,27,-1038
513,5.79871,2,5,9,16,22,-1035
514,5.810384,0,5,9,12,26,-1033
515,5.822048,4,5,10,13,27,-1030
516,5.833739,3,7,10,12,25,-1039
517,5.845392,3,9,8,11,22,-1030
518,5.857059,3,6,9,16,26,-1029
519,5.868722,2,6,9,14,25,-1035
520,5.880376,4,9,8,13,23,-1035
521,5.892065,4,6,9,11,25,-1035
522,5.90373,3,6,11,18,27,-1034
523,5.915292,0,6,8,16,25,-1034
524,5.926873,1,5,9,14,26,-1034
525,5.938451,3,6,10,11,24,-1037
526,5.950058,1,6,9,13,22,-1045
527,5.961624,2,6,11,11,27,-1039
528,5.97318,4,5,8,17,29,-1035
529,5.984736,1,6,9,14,25,-1032
530,5.996312,2,7,8,15,27,-1034
531,6.008012,0,7,10,17,30,-1045
532,6.019692,2,9,9,10,26,-1037
533,6.031359,2,4,10,15,21,-1029
534,6.043049,3,5,8,17,23,-1034
535,6.054734,2,7,10,10,26,-1034
536,6.066419,3,7,11,11,25,-1034
537,6.078091,2,8,9,16,25,-1034
538,6.089761,4,5,8,11,29,-1035
539,6.101451,1,7,9,16,26,-1034
540,6.113122,1,6,8,11,19,-1029
541,6.124685,3,5,10,17,26,-1032
542,6.136233,5,9,9,10,31,-1033
543,6.147787,2,7,11,14,28,-1040
544,6.159336,5,7,9,11,27,-1030
545,6.17089,3,8,10,13,30,-1031
546,6.182474,2,6,8,13,23,-1039
547,6.194056,1,7,8,11,27,-1030
548,6.205622,3,7,10,15,24,-1037
549,6.217245,3,5,9,14,27,-1040
550,6.228903,5,5,11,13,27,-1037
551,6.240549,1,8,8,12,23,-1036
552,6.252209,0,6,11,13,24,-1033
553,6.263866,2,6,8,13,26,-1034
554,6.275516,1,6,8,14,26,-1038
555,6.287195,3,5,9,14,23,-1036
556,6.298865,3,8,8,17,25,-1037
557,6.310527,3,5,9,15,26,-1041
558,6.322101,2,6,10,11,27,-1042
559,6.333676,4,8,10,14,25,-1037
560,6.34522,3,9,10,9,28,-1031
561,6.356774,1,5,10,10,28,-1034
562,6.368335,3,4,11,16,23,-1035
563,6.379882,1,7,9,13,26,-1043
564,6.391453,3,7,9,15,28,-1037
565,6.403035,2,6,11,14,23,-1036
566,6.414609,3,6,9,14,24,-1032
567,6.426282,1,6,10,11,24,-1034
568,6.438024,3,5,10,13,30,-1028
569,6.449682,3,6,7,13,28,-1037
570,6.461349,3,6,10,14,28,-1038
571,6.473013,3,6,9,15,24,-1032
572,6.484667,1,6,11,20,26,-1035
573,6.496352,2,7,10,14,28,-1037
574,6.508015,1,7,9,13,24,-1031
575,6.519683,2,7,8,13,28,-1032
576,6.531352,2,7,10,15,25,-1034
577,6.542937,2,6,10,16,28,-1032
578,6.554517,3,4,8,12,28,-1035
579,6.566096,1,5,9,10,32,-1034
580,6.57765,3,5,8,12,28,-1032
581,6.589193,0,8,9,14,23,-1036
582,6.600744,2,8,11,16,26,-1036
583,6.612316,1,7,10,13,24,-1037
584,6.623885,2,6,10,15,22,-1035
585,6.635512,1,6,8,12,24,-1037
586,6.647169,3,5,8,17,28,-1035
587,6.658824,2,5,11,15,27,-1037
588,6.670507,3,4,9,14,23,-1037
589,6.68217,4,4,9,11,29,-1032
590,6.693821,0,5,8,9,26,-1036
591,6.705498,3,6,9,15,28,-1034
592,6.717155,-1,6,10,11,30,-1038
593,6.72882,3,4,8,15,31,-1026
594,6.740496,3,7,9,16,23,-1037
595,6.752089,3,5,9,13,25,-1040
596,6.763641,2,7,11,16,27,-1037
597,6.7752,3,7,10,13,28,-1037
598,6.786757,2,6,9,13,30,-1032
599,6.798347,3,8,10,13,26,-1033
600,6.809985,2,6,9,15,21,-1034
601,6.821596,2,5,8,12,23,-1040
602,6.833219,3,8,9,14,23,-1035
603,6.84487,3,6,8,16,25,-1034
604,6.85654,4,5,10,12,23,-1039
605,6.868199,2,6,9,11,26,-1030
606,6.879868,2,7,10,14,22,-1030
607,6.891544,3,6,10,13,24,-1039
608,6.903197,2,5,8,11,26,-1034
609,6.914887,2,6,9,17,28,-1039
610,6.926564,2,5,10,17,25,-1033
611,6.938282,2,5,9,14,27,-1035
612,6.949934,2,6,10,15,27,-1032
613,6.961483,3,8,10,13,28,-1037
614,6.973048,4,6,11,17,25,-1037
615,6.984601,3,6,8,13,24,-1027
616,6.996179,3,7,11,14,23,-1034
617,7.00773,1,6,11,14,25,-1033
618,7.01928,0,7,8,14,23,-1031
619,7.030844,2,7,9,16,31,-1036
620,7.042396,2,7,10,15,25,-1045
621,7.054016,3,7,11,13,30,-1034
622,7.065673,1,6,12,15,27,-1038
623,7.077332,3,7,9,17,28,-1037
624,7.088993,3,6,10,16,28,-1038
625,7.100656,3,6,9,11,23,-1033
626,7.11231,1,8,8,14,27,-1040
627,7.123964,2,5,9,13,26,-1044
628,7.135618,2,7,10,15,23,-1036
629,7.147309,2,7,7,11,25,-1037
630,7.158983,2,5,11,9,28,-1031
631,7.170539,2,5,6,13,25,-1034
632,7.182142,1,6,9,13,25,-1044
633,7.193713,1,7,9,14,26,-1030
634,7.205261,4,5,11,13,23,-1033
635,7.21684,3,6,11,14,22,-1038
636,7.22839,2,8,11,13,25,-1043
637,7.239971,3,6,8,12,26,-1040
638,7.251522,1,6,10,16,25,-1035
639,7.263156,2,7,10,15,22,-1035
640,7.274784,2,6,10,15,23,-1031
641,7.286444,3,5,11,15,25,-1035
642,7.298167,3,5,8,16,25,-1038
643,7.309819,2,7,10,13,22,-1037
644,7.321495,4,6,9,13,24,-1041
645,7.333169,4,7,10,13,21,-1036
646,7.344825,3,6,8,14,29,-1037
647,7.356491,3,6,9,11,19,-1036
648,7.36816,3,7,9,16,22,-1031
649,7.379726,2,6,8,13,26,-1026
650,7.391283,1,6,10,12,27,-1026
651,7.402856,3,6,8,14,27,-1030
652,7.414474,1,5,8,18,26,-1030
653,7.426038,1,5,11,8,28,-1040
654,7.437617,1,6,9,16,28,-1034
655,7.449171,2,4,9,17,26,-1038
656,7.460739,2,4,11,18,22,-1034
657,7.472383,2,5,8,12,29,-1035
658,7.484039,2,8,8,15,23,-1041
659,7.495691,3,6,8,20,27,-1038
660,7.507354,2,7,8,12,25,-1041
661,7.519046,4,6,10,13,25,-1040
662,7.530713,2,7,8,16,26,-1034
663,7.542408,2,6,9,16,27,-1035
664,7.55407,1,6,10,10,29,-1037
665,7.565769,4,9,9,16,25,-1035
666,7.577482,2,7,7,13,24,-1034
667,7.589039,2,4,12,13,27,-1034
668,7.600597,4,6,8,14,28,-1031
669,7.612148,3,7,10,14,28,-1033
670,7.623694,0,6,9,14,26,-1038
671,7.635237,1,8,9,15,26,-1037
672,7.646837,2,6,7,15,28,-1038
673,7.658391,2,7,10,12,24,-1035
674,7.670019,3,5,9,18,26,-1028
675,7.68164,3,7,9,13,25,-1034
676,7.693304,4,5,10,18,29,-1037
677,7.704958,3,7,10,11,26,-1030
678,7.716621,0,6,9,14,27,-1033
679,7.728288,3,8,10,12,26,-1039
680,7.739939,4,6,11,16,29,-1039
681,7.751588,3,7,8,16,29,-1036
682,7.763247,1,6,10,11,27,-1031
683,7.774942,1,6,9,14,29,-1030
684,7.786599,2,6,10,15,23,-1039
685,7.798283,1,6,9,15,22,-1039
686,7.809939,2,7,10,15,24,-1038
687,7.821628,4,6,10,13,23,-1032
688,7.833293,3,6,9,15,24,-1031
689,7.844941,2,6,10,15,28,-1037
690,7.856592,1,8,8,10,27,-1039
691,7.868239,1,5,9,16,24,-1032
692,7.879936,2,4,9,13,25,-1038
693,7.891588,2,7,9,15,27,-1032
694,7.903154,1,4,10,14,28,-1033
695,7.914708,3,6,8,10,26,-1038
696,7.926355,1,6,9,16,28,-1036
697,7.937916,4,7,9,15,23,-1034
698,7.949485,3,6,7,17,24,-1031
699,7.961031,2,8,10,13,24,-1038
700,7.972575,2,5,9,15,24,-1036
701,7.984149,3,7,9,14,31,-1041
702,7.995763,2,5,10,15,23,-1038
703,8.00743,4,6,8,13,29,-1037
704,8.019081,2,6,8,14,25,-1035
705,8.03079,4,6,10,14,27,-1034
706,8.042477,2,7,8,15,27,-1038
707,8.054154,3,6,11,17,26,-1029
708,8.065826,1,5,8,9,26,-1035
709,8.077496,1,7,10,12,25,-1036
710,8.08916,3,5,9,15,26,-1033
711,8.100709,2,3,11,12,25,-1035
712,8.112268,0,6,11,15,23,-1032
713,8.123815,3,6,11,13,24,-1039
714,8.135389,1,8,10,15,28,-1038
715,8.146935,2,6,7,11,20,-1037
716,8.158449,1,4,8,9,27,-1031
717,8.169965,2,5,9,10,26,-1033
718,8.181484,2,4,10,13,28,-1034
719,8.19304,2,7,9,12,25,-1036
720,8.204735,1,7,9,18,26,-1032
721,8.21641,2,7,10,15,24,-1034
722,8.228071,4,5,8,16,28,-1038
723,8.239728,3,7,9,17,23,-1030
724,8.251395,3,5,9,12,29,-1038
725,8.263058,3,6,9,15,27,-1033
726,8.274715,3,5,9,12,27,-1029
727,8.286421,3,6,7,11,29,-1026
728,8.298088,3,5,10,15,27,-1038
729,8.30973,2,6,8,13,23,-1031
730,8.321288,1,5,10,11,28,-1040
731,8.33285,1,6,11,12,27,-1035
732,8.344408,3,6,7,15,29,-1035
733,8.35598,2,7,9,16,25,-1035
734,8.367661,1,6,10,11,27,-1034
735,8.37931,2,7,10,14,29,-1036
736,8.391049,2,3,8,13,23,-1035
737,8.402655,1,6,11,13,25,-1031
738,8.41428,4,3,8,15,25,-1035
739,8.425856,5,5,11,16,28,-1036
740,8.437407,1,5,10,14,26,-1033
741,8.448949,2,8,9,16,26,-1037
742,8.460506,2,6,10,14,24,-1038
743,8.472056,1,7,10,14,27,-1037
744,8.483603,0,6,8,17,24,-1034
745,8.495153,2,7,9,13,26,-1033
746,8.506717,4,6,9,15,31,-1032
747,8.518419,1,6,9,16,24,-1036
748,8.530085,2,7,9,15,28,-1036
749,8.541782,2,8,10,13,28,-1039
750,8.553499,2,8,8,14,27,-1036
751,8.565151,1,6,8,9,22,-1028
752,8.5768,4,6,9,12,26,-1032
753,8.588466,2,7,8,15,26,-1036
754,8.600132,3,7,11,16,25,-1026
755,8.611786,1,6,11,16,28,-1029
756,8.623468,1,6,10,16,25,-1034
757,8.635119,2,7,9,16,28,-1041
758,8.646811,3,8,9,13,28,-1047
759,8.658487,3,7,8,14,23,-1031
760,8.670175,2,6,9,13,22,-1033
761,8.681994,2,5,10,12,23,-1035
762,8.693679,1,6,8,13,25,-1038
763,8.705431,1,7,9,13,29,-1034
764,8.717113,2,6,8,13,24,-1040
765,8.728685,1,6,7,12,28,-1036
766,8.740298,2,5,11,12,25,-1033
767,8.75185,2,7,9,11,24,-1035
768,8.763413,3,7,8,15,24,-1037
769,8.774954,2,5,9,15,27,-1034
770,8.786533,2,6,9,13,26,-1037
771,8.798092,2,9,9,16,21,-1038
772,8.809655,2,6,8,15,26,-1033
773,8.821293,3,7,7,16,27,-1042
774,8.832969,3,7,8,10,24,-1033
775,8.844628,3,6,10,15,28,-1037
776,8.856276,1,8,10,17,28,-1032
777,8.86794,3,6,7,13,23,-1035
778,8.879614,2,5,10,11,27,-1034
779,8.891265,1,6,6,12,22,-1038
780,8.902946,3,8,10,13,30,-1030
781,8.914657,3,7,10,10,27,-1035
782,8.926344,2,8,8,11,26,-1028
783,8.937934,2,7,8,16,28,-1036
784,8.949488,3,7,10,17,26,-1027
785,8.961053,0,6,9,9,30,-1037
786,8.972601,3,6,8,15,25,-1039
787,8.984156,4,7,10,14,27,-1038
788,8.995701,2,3,11,11,25,-1037
789,9.007246,3,4,9,10,24,-1035
790,9.018824,3,6,9,14,24,-1036
791,9.030497,3,6,9,16,24,-1038
792,9.042172,2,6,6,12,25,-1032
793,9.053872,4,7,10,14,25,-1033
794,9.065498,2,7,8,13,24,-1030
795,9.077147,3,7,11,13,26,-1035
796,9.088816,3,6,8,15,27,-1032
797,9.10048,1,5,6,13,27,-1035
798,9.112131,2,5,7,15,23,-1037
799,9.123797,4,5,11,17,29,-1036
800,9.135453,2,6,8,12,28,-1036
801,9.147036,1,5,9,10,26,-1043
802,9.158594,1,8,9,14,27,-1036
803,9.170146,2,9,9,13,25,-1037
804,9.181721,3,5,12,13,24,-1031
805,9.193308,4,6,8,12,23,-1038
806,9.204861,3,7,8,14,30,-1037
807,9.216436,2,7,11,14,23,-1037
808,9.227993,3,6,8,15,30,-1029
809,9.23962,2,6,9,12,21,-1034
810,9.251263,3,9,9,14,23,-1039
811,9.262932,3,8,10,12,25,-1026
812,9.274612,2,6,9,14,27,-1036
813,9.286266,3,6,9,10,26,-1037
814,9.297922,3,5,8,13,25,-1035
815,9.309621,2,5,8,16,22,-1038
816,9.321267,4,7,9,13,26,-1038
817,9.332937,2,6,9,14,28,-1038
818,9.344613,3,6,8,12,28,-1032
819,9.356192,2,4,9,14,24,-1029
820,9.367746,3,6,10,11,23,-1035
821,9.379314,3,5,10,14,24,-1038
822,9.391003,3,7,9,11,25,-1037
823,9.402584,2,4,8,13,27,-1036
824,9.414209,4,6,11,11,29,-1029
825,9.425728,1,9,9,15,24,-1034
826,9.437291,1,8,10,13,27,-1037
827,9.448942,2,7,9,11,27,-1041
828,9.460623,3,7,8,13,28,-1042
829,9.472278,2,6,9,15,23,-1036
830,9.48394,3,4,8,9,28,-1033
831,9.495599,3,9,10,15,28,-1035
832,9.507258,2,5,8,9,30,-1033
833,9.518945,1,6,10,9,28,-1041
834,9.530643,3,6,8,12,21,-1040
835,9.542285,2,7,9,12,27,-1033
836,9.553968,2,6,10,17,26,-1037
837,9.565562,2,6,10,14,27,-1032
838,9.577109,2,6,9,10,26,-1028
839,9.588654,2,6,9,14,26,-1036
840,9.600212,3,8,10,15,24,-1039
841,9.611799,2,6,9,12,26,-1042
842,9.623461,2,7,9,12,25,-1040
843,9.63501,3,8,9,17,23,-1035
844,9.646595,2,6,9,13,28,-1035
845,9.658276,1,8,10,14,19,-1037
846,9.669953,2,5,8,17,27,-1033
847,9.681639,1,5,8,12,25,-1038
848,9.693295,3,6,8,11,24,-1035
849,9.704966,3,6,9,14,22,-1033
850,9.716627,2,6,9,14,26,-1033
851,9.728277,2,6,12,14,26,-1033
852,9.739928,2,7,7,13,25,-1033
853,9.751611,3,6,7,14,30,-1029
854,9.763276,3,5,11,16,25,-1039
855,9.774943,2,5,10,13,25,-1033
856,9.786617,3,6,11,11,24,-1032
857,9.798273,3,6,10,16,25,-1033
858,9.809933,3,6,9,16,29,-1035
859,9.821621,2,5,12,14,26,-1040
860,9.83328,2,6,9,17,21,-1036
861,9.844933,2,6,8,9,26,-1038
862,9.856639,1,7,9,13,27,-1033
863,9.868295,1,7,9,11,28,-1040
864,9.879969,2,5,9,10,25,-1030
865,9.891671,1,6,9,14,27,-1035
866,9.903353,2,7,7,12,26,-1036
867,9.915039,2,8,10,15,25,-1035
868,9.926713,2,5,10,13,28,-1038
869,9.938398,2,6,9,13,24,-1031
870,9.950056,3,6,10,13,24,-1036
871,9.961819,4,7,8,12,26,-1040
872,9.973478,2,6,7,13,30,-1032
873,9.985058,2,6,8,20,24,-1032
874,9.996605,2,4,9,14,26,-1035
875,10.008144,4,6,8,16,21,-1033
876,10.019686,3,8,7,15,30,-1036
877,10.031234,3,7,8,16,24,-1033
878,10.04281,4,6,10,16,25,-1034
879,10.05437,3,7,10,14,23,-1036
880,10.065979,0,7,11,13,26,-1038
881,10.077678,2,6,8,14,24,-1036
882,10.089347,3,8,6,16,25,-1031
883,10.101016,2,8,11,19,25,-1037
884,10.112668,1,5,9,17,26,-1038
885,10.124321,2,4,9,12,24,-1034
886,10.135974,3,8,9,15,23,-1034
887,10.14763,1,4,7,15,24,-1037
888,10.159284,3,4,8,16,25,-1030
889,10.170952,3,7,9,15,27,-1038
890,10.182631,2,6,10,11,23,-1035
891,10.194272,1,7,9,15,25,-1029
892,10.205932,3,7,9,13,22,-1034
893,10.21762,3,10,8,15,24,-1036
894,10.22928,2,5,8,14,25,-1033
895,10.240927,2,7,10,13,25,-1036
896,10.252579,1,5,11,15,27,-1033
897,10.264262,1,6,7,13,23,-1030
898,10.275903,3,5,8,14,24,-1026
899,10.287554,3,7,8,13,27,-1031
900,10.299207,3,6,10,16,25,-1036
901,10.31091,2,6,6,14,27,-1034
902,10.322561,3,9,8,11,24,-1034
903,10.334263,1,5,9,14,24,-1032
904,10.345923,3,6,9,13,26,-1036
905,10.357569,3,6,8,17,25,-1029
906,10.369221,3,6,8,13,25,-1030
907,10.380921,2,7,11,14,24,-1033
908,10.392558,3,5,9,15,27,-1036
909,10.404136,2,5,11,15,26,-1036
910,10.415787,2,5,11,17,28,-1033
911,10.427356,1,8,9,11,26,-1035
912,10.438945,4,5,9,13,30,-1032
913,10.450502,2,7,9,13,27,-1038
914,10.462048,2,7,9,15,26,-1038
915,10.47362,2,6,9,11,22,-1035
916,10.485216,2,6,7,13,27,-1033
917,10.496841,1,6,9,11,26,-1034
918,10.508518,2,8,7,11,26,-1033
919,10.52017,1,5,9,12,24,-1037
920,10.531819,2,5,8,13,24,-1039
921,10.543481,2,7,10,13,26,-1034
922,10.555147,4,7,11,13,26,-1036
923,10.566794,1,5,9,11,29,-1039
924,10.578451,3,6,11,11,24,-1040
925,10.590158,2,6,10,13,28,-1034
926,10.601826,2,6,9,15,23,-1037
927,10.613397,3,8,9,14,24,-1029
928,10.624979,3,6,9,14,28,-1038
929,10.636555,3,6,10,13,24,-1036
930,10.64812,1,8,8,13,26,-1038
931,10.659666,3,8,8,11,23,-1044
932,10.671227,3,8,9,14,22,-1033
933,10.682803,1,8,9,12,26,-1037
934,10.694381,3,6,10,11,23,-1033
935,10.706028,2,3,10,13,24,-1036
936,10.717681,1,7,9,17,25,-1033
937,10.729333,3,6,8,19,26,-1035
938,10.741001,3,8,8,9,29,-1034
939,10.75266,3,6,8,15,23,-1034
940,10.764312,1,7,9,15,28,-1036
941,10.775964,2,6,8,13,29,-1036
942,10.787631,0,7,8,11,28,-1033
943,10.799313,3,8,10,17,27,-1037
944,10.810973,4,5,9,14,25,-1032
945,10.822535,1,6,9,12,25,-1032
946,10.834127,1,5,10,13,25,-1040
947,10.845673,2,8,9,15,31,-1036
948,10.857229,1,6,11,16,26,-1035
949,10.86878,3,5,11,13,29,-1035
950,10.880327,2,6,9,17,26,-1041
951,10.891907,2,7,10,13,28,-1036
952,10.903499,4,4,10,14,26,-1034
953,10.915188,3,5,10,13,27,-1039
954,10.926948,2,6,9,10,23,-1035
955,10.938684,2,4,13,15,22,-1036
956,10.950345,4,6,10,19,23,-1032
957,10.962043,1,6,10,13,23,-1035
958,10.973733,2,6,10,12,27,-1033
959,10.985391,2,6,9,10,24,-1035
960,10.997066,1,8,10,15,26,-1035
961,11.008774,0,5,8,15,27,-1037
962,11.020443,2,6,8,7,24,-1037
963,11.032008,2,7,9,14,23,-1026
964,11.043553,1,6,11,18,27,-1038
965,11.055107,2,8,10,11,25,-1041
966,11.066682,0,5,8,14,28,-1040
967,11.078233,2,6,9,10,28,-1030
968,11.089793,2,7,11,11,28,-1031
969,11.101368,3,7,10,17,24,-1030
970,11.112926,3,8,9,16,26,-1036
971,11.124558,2,5,7,13,25,-1038
972,11.13621,3,6,9,10,26,-1032
973,11.147866,0,6,9,14,28,-1035
974,11.159534,4,7,12,14,25,-1033
975,11.17118,1,5,10,13,25,-1035
976,11.18284,5,6,11,13,25,-1039
977,11.194536,3,6,9,17,27,-1033
978,11.206195,2,7,9,15,29,-1041
979,11.217913,3,6,9,12,26,-1036
980,11.229577,2,7,9,15,22,-1037
981,11.241142,3,7,11,11,27,-1034
982,11.2527,1,8,10,17,23,-1038
983,11.264268,2,7,10,11,23,-1033
984,11.275815,2,5,6,10,24,-1037
985,11.287394,2,5,11,12,26,-1034
986,11.298944,1,4,8,14,25,-1032
987,11.310511,2,5,9,13,29,-1034
988,11.322122,5,4,11,16,30,-1035
989,11.333767,2,9,10,14,23,-1037
990,11.345485,3,5,8,13,24,-1033
991,11.357136,1,7,8,15,24,-1033
992,11.368809,4,7,9,13,28,-1035
993,11.38049,3,5,8,12,24,-1036
994,11.392155,2,6,10,15,26,-1029
995,11.403812,1,5,12,13,27,-1031
996,11.415469,2,7,8,11,23,-1038
997,11.427125,1,6,9,15,23,-1040
998,11.438858,0,5,9,13,25,-1034
999,11.450454,2,7,8,11,27,-1038
1000,11.462019,2,6,10,14,27,-1030
1001,11.473589,3,6,7,11,22,-1036
1002,11.485142,4,6,10,13,26,-1032
1003,11.496691,2,7,10,11,24,-1032
1004,11.508262,2,8,9,10,28,-1026
1005,11.519817,3,4,10,14,29,-1029
1006,11.531411,2,5,11,13,22,-1034
1007,11.543067,1,6,9,12,31,-1035
1008,11.554738,3,4,10,16,22,-1027
1009,11.566422,4,6,9,12,25,-1040
1010,11.578095,2,7,8,16,26,-1041
1011,11.589767,4,5,10,11,25,-1035
1012,11.601428,2,6,11,13,24,-1033
1013,11.613089,1,8,8,15,27,-1034
1014,11.624751,2,5,10,14,25,-1037
1015,11.63642,3,6,9,19,26,-1036
1016,11.648086,3,7,10,15,24,-1034
1017,11.659646,4,6,9,15,30,-1034
1018,11.671209,3,5,8,15,25,-1037
1019,11.682777,4,6,10,14,26,-1032
1020,11.694346,2,7,9,14,23,-1038
1021,11.705899,2,7,9,16,30,-1036
1022,11.717476,2,8,10,16,26,-1031
1023,11.72903,0,6,8,15,24,-1033
1024,11.740591,3,7,10,14,24,-1038
1025,11.752295,2,7,10,14,23,-1032
1026,11.763956,3,5,8,12,24,-1035
1027,11.775613,4,8,7,18,26,-1029
1028,11.787276,2,7,7,15,25,-1035
1029,11.798946,2,5,9,12,25,-1038
1030,11.810601,2,7,10,12,25,-1033
1031,11.82227,2,8,9,13,26,-1037
1032,11.833934,2,4,9,14,27,-1037
1033,11.845629,1,6,9,14,23,-1037
1034,11.857291,4,6,8,15,21,-1037
1035,11.868848,3,5,8,18,27,-1031
1036,11.880428,4,6,10,11,23,-1036
1037,11.891982,2,7,10,13,28,-1035
1038,11.903542,3,6,11,10,25,-1035
1039,11.915153,2,8,11,15,23,-1041
1040,11.926704,1,7,7,14,27,-1032
1041,11.93829,2,6,10,14,24,-1035
1042,11.949871,0,8,11,11,27,-1034
1043,11.9615,3,6,8,11,22,-1031
1044,11.97318,2,8,8,13,28,-1031
1045,11.98484,2,6,8,14,25,-1035
1046,11.996503,1,7,10,14,27,-1037
1047,12.008192,3,7,7,14,26,-1037
1048,12.01985,1,6,10,15,29,-1032
1049,12.031506,3,6,9,14,22,-1034
1050,12.043186,1,6,7,12,26,-1030
1051,12.05486,1,7,8,13,24,-1039
1052,12.066523,2,5,7,12,27,-1029
1053,12.078095,1,7,11,17,24,-1035
1054,12.089664,2,6,10,12,28,-1039
1055,12.101211,3,7,9,9,25,-1040
1056,12.1128,3,6,9,14,25,-1031
1057,12.124348,3,6,8,16,25,-1038
1058,12.135896,2,4,8,13,22,-1031
1059,12.147448,1,6,7,13,23,-1039
1060,12.15904,2,4,9,12,24,-1036
1061,12.170697,2,6,10,12,24,-1039
1062,12.182396,2,8,9,11,24,-1032
1063,12.194062,1,6,9,14,25,-1038
1064,12.205743,3,5,9,14,24,-1033
1065,12.217394,3,7,10,14,27,-1037
1066,12.229067,1,5,8,12,26,-1039
1067,12.24072,2,7,10,18,25,-1029
1068,12.252371,2,5,9,13,26,-1040
1069,12.264036,4,5,10,15,24,-1027
1070,12.275587,2,7,10,13,27,-1037
1071,12.28714,2,6,9,18,24,-1031
1072,12.298698,2,6,9,17,25,-1036
1073,12.310299,1,7,9,13,23,-1032
1074,12.321867,2,6,10,13,25,-1040
1075,12.333425,3,6,8,15,25,-1034
1076,12.344975,2,8,10,16,26,-1040
1077,12.356546,2,6,9,12,30,-1032
1078,12.368151,3,5,10,12,26,-1038
1079,12.379791,1,6,9,13,30,-1035
1080,12.391487,3,5,9,14,26,-1030
1081,12.403133,2,6,11,14,23,-1030
1082,12.414787,3,4,11,16,26,-1035
1083,12.426466,3,7,8,13,26,-1038
1084,12.438134,1,5,8,12,28,-1037
1085,12.449757,2,5,11,14,29,-1035
1086,12.461437,3,7,8,13,23,-1040
1087,12.473127,3,7,8,15,26,-1039
1088,12.484806,1,6,9,11,23,-1036
1089,12.496367,2,5,10,11,23,-1040
1090,12.507918,3,7,10,14,26,-1038
1091,12.519472,2,6,11,14,26,-1034
1092,12.531044,3,6,9,12,27,-1036
1093,12.542599,2,5,11,13,26,-1036
1094,12.554173,3,8,8,14,24,-1039
1095,12.565723,4,4,9,16,26,-1033
1096,12.577293,0,7,10,14,24,-1033
1097,12.588911,1,6,9,14,26,-1031
1098,12.600576,4,5,7,12,21,-1031
1099,12.61223,1,7,11,13,24,-1034
1100,12.623886,4,4,10,15,27,-1040
1101,12.635539,3,6,9,11,25,-1034
1102,12.64719,2,4,9,11,24,-1032
1103,12.658866,1,4,8,15,28,-1032
1104,12.670529,1,7,9,20,22,-1036
1105,12.682209,4,5,11,13,25,-1034
1106,12.693886,4,6,10,14,22,-1036
1107,12.705473,1,7,12,16,25,-1033
1108,12.717039,4,5,11,16,28,-1028
1109,12.728595,2,7,8,17,27,-1039
1110,12.740181,3,7,10,13,27,-1033
1111,12.751728,3,8,10,13,24,-1035
1112,12.763282,1,6,8,13,23,-1039
1113,12.77484,2,6,10,10,23,-1032
1114,12.786404,1,6,11,13,25,-1041
1115,12.798019,0,6,11,17,28,-1040
1116,12.809682,2,5,10,14,27,-1037
1117,12.821357,4,8,9,18,23,-1039
1118,12.833005,3,7,8,13,27,-1027
1119,12.844655,4,6,11,15,25,-1038
1120,12.856352,2,6,8,16,27,-1037
1121,12.868018,3,5,9,13,27,-1042
1122,12.879672,1,6,10,14,25,-1032
1123,12.891361,2,5,10,10,26,-1036
1124,12.90304,1,6,9,10,26,-1033
1125,12.914607,3,5,9,14,26,-1040
1126,12.926189,2,6,10,15,27,-1036
1127,12.937731,3,8,11,14,27,-1031
1128,12.949306,3,7,10,15,30,-1039
1129,12.960855,2,7,9,16,25,-1032
1130,12.972434,2,5,9,16,25,-1036
1131,12.983988,3,6,8,14,25,-1038
1132,12.995564,3,7,9,15,30,-1035
1133,13.007221,1,5,10,14,24,-1039
1134,13.018917,0,6,10,15,28,-1036
1135,13.030588,1,5,10,9,24,-1041
1136,13.042253,2,5,9,15,24,-1029
1137,13.053912,3,5,9,13,27,-1031
1138,13.065561,3,5,8,10,26,-1037
1139,13.077221,2,4,9,14,26,-1039
1140,13.088875,1,6,10,13,25,-1040
1141,13.100533,2,7,11,12,27,-1037
1142,13.112184,1,6,9,10,26,-1032
1143,13.123853,3,6,8,12,24,-1037
1144,13.1355,1,7,9,14,27,-1039
1145,13.147152,2,8,10,13,25,-1035
1146,13.158785,0,4,12,12,24,-1033
1147,13.17046,2,7,11,14,22,-1034
1148,13.182134,2,4,8,16,25,-1037
1149,13.193754,2,8,9,15,25,-1033
1150,13.205433,1,5,11,14,26,-1032
1151,13.217083,2,4,11,15,26,-1030
1152,13.228762,3,6,10,14,27,-1037
1153,13.240414,3,6,9,12,28,-1040
1154,13.252084,2,7,10,13,27,-1039
1155,13.263743,4,5,9,15,30,-1033
1156,13.275397,0,7,9,14,25,-1029
1157,13.287045,4,5,8,9,25,-1035
1158,13.298722,2,4,9,15,25,-1039
1159,13.310417,2,7,8,9,28,-1034
1160,13.322093,3,5,8,14,24,-1038
1161,13.333761,3,7,7,12,25,-1042
1162,13.345412,4,4,9,16,28,-1035
1163,13.357072,3,6,8,15,25,-1032
1164,13.368755,3,6,9,14,25,-1035
1165,13.380413,4,7,9,15,26,-1037
1166,13.392081,3,8,9,17,25,-1030
1167,13.403745,1,5,9,15,30,-1033
1168,13.415412,2,8,10,11,25,-1037
1169,13.427082,2,6,9,10,28,-1037
1170,13.438646,2,6,7,9,24,-1034
1171,13.450215,4,6,8,8,27,-1030
1172,13.461727,2,7,11,14,27,-1036
1173,13.473282,3,5,11,17,26,-1038
1174,13.484842,4,7,11,12,23,-1031
1175,13.496419,4,5,9,17,27,-1033
1176,13.507963,2,7,10,13,22,-1028
1177,13.519519,1,7,11,11,27,-1039
1178,13.531149,3,6,12,13,28,-1032
1179,13.542786,4,6,9,11,30,-1031
1180,13.554442,3,5,9,14,24,-1033
1181,13.566144,4,7,8,14,19,-1031
1182,13.577795,3,5,9,15,27,-1036
1183,13.589477,3,6,9,13,23,-1033
1184,13.601171,2,6,8,12,22,-1027
1185,13.612821,2,5,6,15,28,-1034
1186,13.624495,2,2,9,13,23,-1034
1187,13.636166,3,6,9,15,28,-1034
1188,13.647734,3,6,10,13,27,-1037
1189,13.659307,3,6,10,15,26,-1037
1190,13.670866,3,5,9,10,27,-1036
1191,13.682476,1,6,9,15,19,-1035
1192,13.694042,4,6,10,12,28,-1038
1193,13.705608,1,6,8,18,25,-1037
1194,13.717154,1,9,6,14,28,-1038
1195,13.728717,3,8,9,22,24,-1039
1196,13.740357,4,5,9,12,25,-1031
1197,13.752025,2,8,10,15,24,-1031
1198,13.763665,1,4,9,12,28,-1031
1199,13.775314,3,6,12,18,29,-1031
1200,13.787003,3,6,6,10,24,-1032
1201,13.798661,3,9,9,15,24,-1037
1202,13.810321,2,8,9,15,27,-1036
1203,13.822015,3,5,9,17,29,-1033
1204,13.833675,4,5,10,13,28,-1036
1205,13.84533,2,7,9,11,23,-1031
1206,13.856914,2,6,11,15,28,-1039
1207,13.868472,4,6,9,15,25,-1034
1208,13.880051,2,8,8,13,29,-1028
1209,13.891602,2,7,9,17,24,-1029
1210,13.903154,2,5,10,14,25,-1035
1211,13.914715,3,5,10,15,26,-1034
1212,13.926264,2,6,9,10,28,-1032
1213,13.937856,2,7,9,11,25,-1030
1214,13.949494,2,7,9,12,27,-1032
1215,13.961156,3,5,11,13,26,-1041
1216,13.972838,1,6,11,13,24,-1040
1217,13.984509,2,7,9,10,25,-1032
1218,13.996162,1,7,11,16,22,-1033
1219,14.007803,2,7,10,12,24,-1032
1220,14.019456,1,6,8,15,26,-1036
1221,14.031129,2,5,8,15,26,-1034
1222,14.042781,2,7,8,15,24,-1035
1223,14.05435,3,7,8,15,26,-1027
1224,14.065909,3,4,9,16,29,-1041
1225,14.077485,0,7,9,12,23,-1031
1226,14.089028,2,7,8,17,23,-1035
1227,14.100582,3,6,7,13,27,-1025
1228,14.112131,2,8,11,10,29,-1035
1229,14.123676,3,7,7,17,26,-1033
1230,14.135217,1,8,8,15,24,-1032
1231,14.146785,2,5,9,17,30,-1030
1232,14.158414,2,5,9,14,30,-1034
1233,14.170078,3,6,8,12,24,-1033
1234,14.181755,3,7,9,12,26,-1037
1235,14.193416,2,7,11,14,26,-1024
1236,14.205067,2,8,12,17,24,-1037
1237,14.216742,3,7,9,12,28,-1036
1238,14.228401,2,7,7,15,26,-1033
1239,14.240051,1,7,9,15,28,-1042
1240,14.251714,4,5,9,11,27,-1036
1241,14.263391,2,8,8,12,29,-1037
1242,14.275039,2,5,9,12,24,-1038
1243,14.286694,2,7,7,12,26,-1035
1244,14.298399,1,6,9,11,28,-1036
1245,14.310061,3,6,10,16,23,-1035
1246,14.321749,1,7,10,13,29,-1033
1247,14.333413,2,4,10,12,25,-1031
1248,14.345108,0,7,9,15,28,-1039
1249,14.356798,3,7,9,13,25,-1035
1250,14.368462,3,7,10,12,27,-1031
1251,14.380056,0,6,10,14,27,-1033
1252,14.391707,3,6,9,13,26,-1032
1253,14.403273,2,4,11,15,26,-1028
1254,14.414853,2,5,10,20,26,-1029
1255,14.426491,0,7,10,14,26,-1034
1256,14.438048,3,7,8,14,23,-1036
1257,14.44962,0,7,8,15,23,-1034
1258,14.461249,4,5,8,14,26,-1031
1259,14.472925,2,7,10,12,29,-1030
1260,14.484587,1,6,11,12,27,-1039
1261,14.496259,3,5,8,16,23,-1031
1262,14.507921,3,6,11,17,25,-1031
1263,14.519588,2,7,9,15,23,-1034
1264,14.531262,2,6,10,11,27,-1032
1265,14.542919,3,5,9,12,25,-1037
1266,14.554583,3,7,8,15,25,-1038
1267,14.566269,1,7,11,15,22,-1036
1268,14.577851,3,6,9,13,28,-1034
1269,14.589412,2,7,10,13,25,-1031
1270,14.60099,2,6,9,12,25,-1035
1271,14.612543,2,5,9,17,22,-1035
1272,14.624106,0,8,10,18,24,-1030
1273,14.635645,1,5,8,14,23,-1026
1274,14.647192,2,6,9,14,23,-1035
1275,14.658749,2,5,7,16,24,-1032
1276,14.670329,1,4,9,11,27,-1040
1277,14.682003,3,6,7,17,28,-1036
1278,14.693681,2,6,8,11,28,-1034
1279,14.705333,2,3,11,15,26,-1032
1280,14.717029,2,5,8,14,30,-1033
1281,14.728684,2,5,10,15,22,-1037
1282,14.740345,4,7,9,14,25,-1037
1283,14.751993,1,6,11,18,23,-1033
1284,14.76367,2,6,10,16,26,-1034
1285,14.77533,3,7,8,11,22,-1032
1286,14.78703,3,9,10,16,24,-1029
1287,14.798622,2,8,12,19,27,-1029
1288,14.810195,0,4,10,11,28,-1039
1289,14.821728,3,6,9,13,25,-1033
1290,14.83328,2,5,10,14,27,-1034
1291,14.844863,3,5,9,15,24,-1040
1292,14.856421,1,8,9,9,28,-1037
1293,14.867991,2,6,9,14,22,-1040
1294,14.879551,3,4,11,10,25,-1027
1295,14.891208,3,8,10,14,25,-1032
1296,14.902883,1,6,10,14,20,-1034
1297,14.91453,2,9,7,15,23,-1032
1298,14.926199,3,7,9,16,27,-1042
1299,14.937892,2,7,10,13,26,-1032
1300,14.949563,3,6,10,11,25,-1035
1301,14.961233,2,5,8,11,24,-1042
1302,14.972914,1,8,9,12,24,-1037
1303,14.984564,1,6,9,18,23,-1040
1304,14.996125,3,4,9,12,22,-1036
1305,15.007674,3,7,11,12,24,-1029
1306,15.019224,4,5,10,19,25,-1030
1307,15.030786,3,7,10,15,25,-1030
1308,15.042377,2,6,11,17,26,-1027
1309,15.053945,2,6,8,11,22,-1033
1310,15.065485,0,8,10,15,23,-1030
1311,15.07706,1,6,9,13,26,-1035
1312,15.088641,1,6,10,16,26,-1036
1313,15.100345,2,4,9,12,25,-1035
1314,15.112029,1,5,9,14,25,-1032
1315,15.123693,3,5,10,14,23,-1039
1316,15.135345,4,7,8,16,25,-1033
1317,15.147061,2,6,7,13,24,-1039
1318,15.15871,3,5,9,16,28,-1032
1319,15.170414,3,7,8,11,27,-1035
1320,15.182078,2,4,8,10,28,-1031
1321,15.193743,1,7,8,18,24,-1034
1322,15.205302,1,8,9,12,23,-1037
1323,15.21688,0,7,10,10,28,-1035
1324,15.228424,2,7,7,14,29,-1035
1325,15.239978,4,7,9,16,26,-1034
1326,15.251532,1,6,9,14,23,-1033
1327,15.263107,1,6,9,12,25,-1033
1328,15.274704,2,8,10,13,24,-1034
1329,15.286262,2,8,10,12,26,-1027
1330,15.29782,2,7,9,12,26,-1032
1331,15.309441,1,5,7,15,27,-1038
1332,15.321099,2,9,8,11,24,-1030
1333,15.332778,2,6,8,11,29,-1038
1334,15.344455,3,3,10,16,23,-1037
1335,15.356108,3,6,9,15,29,-1034
1336,15.367787,4,7,9,11,27,-1032
1337,15.379444,3,6,9,14,29,-1035
1338,15.391101,2,5,8,16,27,-1032
1339,15.402826,2,6,10,11,22,-1035
1340,15.41451,5,6,9,14,25,-1033
1341,15.426129,1,7,9,15,28,-1031
1342,15.437707,3,5,12,8,24,-1036
1343,15.449283,2,4,9,15,21,-1032
1344,15.460828,2,6,8,10,25,-1027
1345,15.472389,3,7,12,14,26,-1037
1346,15.483936,3,6,9,17,28,-1036
1347,15.495483,3,7,8,15,30,-1033
1348,15.507044,2,7,10,11,27,-1035
1349,15.518684,1,7,10,11,26,-1031
1350,15.530341,3,6,9,15,26,-1037
1351,15.542012,2,6,8,13,23,-1029
1352,15.553664,2,7,9,11,23,-1036
1353,15.565324,3,6,10,15,28,-1037
1354,15.576981,3,6,8,19,24,-1033
1355,15.588632,2,5,10,12,30,-1034
1356,15.600298,2,6,9,11,30,-1033
1357,15.61195,1,4,11,15,24,-1034
1358,15.623498,3,6,8,9,30,-1039
1359,15.63505,0,6,8,13,28,-1029
1360,15.646632,2,7,11,17,25,-1039
1361,15.658202,3,6,11,17,24,-1032
1362,15.669727,2,7,10,15,26,-1037
1363,15.681273,4,8,10,17,25,-1041
1364,15.692817,3,7,11,15,28,-1031
1365,15.704362,1,5,9,17,26,-1035
1366,15.715917,3,5,7,15,23,-1035
1367,15.727551,1,6,9,11,26,-1030
1368,15.739211,3,8,9,15,27,-1032
1369,15.75087,2,7,9,16,26,-1035
1370,15.762547,1,8,10,12,26,-1034
1371,15.774202,2,6,11,15,24,-1040
1372,15.78589,2,8,7,14,27,-1031
1373,15.797551,3,7,9,16,24,-1042
1374,15.809206,2,6,10,14,28,-1039
1375,15.820891,1,8,8,13,26,-1032
1376,15.832664,3,6,12,14,25,-1028
1377,15.844263,2,6,9,10,27,-1030
1378,15.855811,3,5,9,12,23,-1039
1379,15.867395,3,6,13,15,29,-1037
1380,15.878948,1,5,9,13,29,-1038
1381,15.890526,2,4,9,15,28,-1035
1382,15.902097,4,8,9,15,25,-1031
1383,15.913652,1,5,12,13,23,-1036
1384,15.925208,0,6,10,16,22,-1037
1385,15.936863,4,8,9,15,27,-1033
1386,15.948511,4,6,10,14,28,-1037
1387,15.960191,0,5,9,9,29,-1030
1388,15.971837,3,6,8,10,26,-1036
1389,15.98349,2,7,9,15,26,-1029
1390,15.995159,2,5,8,14,24,-1031
1391,16.006823,1,6,11,19,27,-1039
1392,16.018511,1,7,9,14,28,-1044
1393,16.030213,0,7,8,15,25,-1041
1394,16.041889,4,5,9,14,24,-1035
1395,16.053565,1,6,8,12,25,-1030
1396,16.06522,3,5,6,18,22,-1036
1397,16.076869,4,5,12,16,26,-1032
1398,16.088544,2,6,13,16,21,-1034
1399,16.100195,2,7,10,15,23,-1029
1400,16.111847,3,7,8,15,26,-1035
1401,16.123501,2,7,9,13,29,-1036
1402,16.135158,1,6,9,12,25,-1036
1403,16.146787,2,6,8,11,23,-1033
1404,16.158457,3,6,8,16,25,-1033
1405,16.170139,2,5,8,12,23,-1038
1406,16.181805,3,7,10,16,26,-1030
1407,16.193519,2,8,10,13,31,-1036
1408,16.205187,2,6,10,12,27,-1039
1409,16.216839,3,7,8,14,24,-1035
1410,16.228491,2,8,9,17,30,-1034
1411,16.240165,1,7,10,10,28,-1028
1412,16.251821,2,8,8,14,23,-1031
1413,16.263473,3,6,10,11,24,-1033
1414,16.275118,0,7,9,15,25,-1034
1415,16.286792,2,6,9,16,25,-1036
1416,16.298463,3,6,9,12,24,-1040
1417,16.310152,2,6,9,15,26,-1036
1418,16.32184,3,6,8,15,20,-1034
1419,16.333553,1,7,11,14,27,-1036
1420,16.345224,3,7,9,13,26,-1042
1421,16.356899,1,6,9,13,25,-1033
1422,16.368471,2,5,11,16,28,-1036
1423,16.380031,3,7,9,11,26,-1031
1424,16.391582,2,7,9,13,25,-1029
1425,16.403144,2,8,7,16,24,-1031
1426,16.414698,1,7,9,14,26,-1035
1427,16.426254,4,7,11,12,29,-1038
1428,16.437802,4,5,9,15,30,-1039
1429,16.449403,3,9,11,12,27,-1033
1430,16.461047,2,6,10,15,26,-1039
1431,16.472719,2,7,10,14,27,-1036
1432,16.484368,2,8,11,11,25,-1037
1433,16.496021,2,8,9,14,26,-1029
1434,16.507696,2,8,7,14,25,-1035
1435,16.519352,2,7,9,6,26,-1040
1436,16.531047,1,5,9,17,25,-1033
1437,16.542716,1,5,9,13,26,-1033
1438,16.554405,1,5,9,16,27,-1031
1439,16.566116,3,7,8,18,23,-1032
1440,16.577673,0,7,10,15,24,-1033
1441,16.589214,3,8,9,11,28,-1040
1442,16.600767,4,7,9,12,27,-1038
1443,16.612314,4,7,10,12,24,-1029
1444,16.623861,3,6,7,12,27,-1037
1445,16.635412,1,8,11,13,22,-1035
1446,16.646975,2,7,9,15,26,-1038
1447,16.658559,1,5,8,14,28,-1030
1448,16.670246,2,6,10,13,25,-1037
1449,16.681926,4,6,8,14,27,-1041
1450,16.693614,2,8,8,14,25,-1040
1451,16.705288,3,7,9,11,27,-1036
1452,16.716965,0,6,12,10,26,-1036
1453,16.728622,3,4,10,11,26,-1036
1454,16.740319,3,5,9,17,22,-1040
1455,16.751969,3,6,10,12,26,-1034
1456,16.763638,2,7,8,12,29,-1035
1457,16.775313,3,7,9,12,25,-1033
1458,16.786873,3,5,10,12,27,-1037
1459,16.798448,2,6,10,11,27,-1032
1460,16.809972,4,6,11,14,23,-1035
1461,16.821557,3,5,11,14,27,-1034
1462,16.833107,3,7,10,9,30,-1036
1463,16.844669,2,7,10,14,29,-1035
1464,16.856213,1,6,11,14,28,-1032
1465,16.867773,2,5,8,10,23,-1031
1466,16.879399,2,9,10,10,28,-1029
1467,16.891057,0,6,9,13,26,-1039
1468,16.902736,3,5,11,14,23,-1034
1469,16.914412,4,6,9,15,24,-1033
1470,16.92608,3,4,8,11,25,-1038
1471,16.937809,1,8,8,15,24,-1036
1472,16.949499,0,4,9,13,25,-1030
1473,16.961156,2,6,12,16,25,-1030
1474,16.972841,4,5,8,18,23,-1032
1475,16.9845,3,8,8,11,23,-1038
1476,16.996063,2,7,9,15,25,-1028
1477,17.007633,2,7,7,8,30,-1036
1478,17.019189,4,6,9,17,28,-1037
1479,17.030801,4,7,10,16,26,-1034
1480,17.042363,2,8,9,13,29,-1035
1481,17.053927,2,9,10,13,27,-1035
1482,17.065485,2,8,9,17,24,-1037
1483,17.077068,1,6,8,14,26,-1039
1484,17.088763,3,7,8,13,24,-1033
1485,17.100449,1,7,9,15,26,-1036
1486,17.11212,2,6,9,14,25,-1034
1487,17.123775,3,6,10,12,21,-1040
1488,17.135452,3,5,8,16,28,-1030
1489,17.147107,1,8,10,10,29,-1035
1490,17.158794,3,8,9,13,28,-1038
1491,17.170461,2,6,10,17,25,-1036
1492,17.182154,4,8,9,12,26,-1027
1493,17.193873,1,6,8,14,25,-1031
1494,17.205433,4,5,8,13,25,-1032
1495,17.216981,1,7,10,17,22,-1038
1496,17.228537,3,6,7,12,30,-1033
1497,17.240096,4,5,9,15,25,-1034
1498,17.251647,3,5,7,12,26,-1037
1499,17.263199,2,5,7,11,28,-1033
1500,17.274811,3,5,9,12,27,-1031
1501,17.286427,2,7,9,13,26,-1032
1502,17.298059,3,6,8,14,28,-1031
1503,17.309786,4,8,10,14,28,-1038
1504,17.321498,1,7,9,15,24,-1040
1505,17.333167,3,7,10,12,23,-1036
1506,17.344844,2,8,9,14,30,-1029
1507,17.356501,3,8,11,14,22,-1030
1508,17.368157,2,8,11,17,25,-1028
1509,17.379824,1,6,10,13,27,-1028
1510,17.391504,3,6,8,12,28,-1035
1511,17.403166,1,6,7,11,24,-1037
1512,17.414847,1,6,7,16,25,-1032
1513,17.426527,2,7,11,14,27,-1036
1514,17.438209,1,7,7,12,26,-1037
1515,17.449887,2,8,10,13,28,-1031
1516,17.461542,4,6,10,13,22,-1036
1517,17.473216,2,8,8,13,24,-1033
1518,17.484872,2,7,10,10,23,-1032
1519,17.49654,1,5,10,14,31,-1036
1520,17.508213,4,4,9,14,22,-1039
1521,17.519768,0,4,9,13,24,-1032
1522,17.53135,3,7,9,14,22,-1038
1523,17.542958,3,6,9,11,24,-1033
1524,17.554552,4,8,10,15,24,-1036
1525,17.566114,2,6,10,14,26,-1034
1526,17.577695,2,5,10,13,26,-1036
1527,17.589253,3,6,8,13,27,-1036
1528,17.600815,3,6,9,9,25,-1035
1529,17.612366,2,7,9,15,27,-1034
1530,17.623911,3,6,7,15,30,-1041
1531,17.635458,1,6,10,13,25,-1034
1532,17.647062,2,7,9,13,24,-1030
1533,17.658621,4,8,10,15,23,-1038
1534,17.670192,1,4,8,14,27,-1034
1535,17.681757,3,5,8,13,21,-1038
1536,17.693307,3,4,9,11,25,-1044
1537,17.704923,3,6,10,16,27,-1043
1538,17.716568,2,6,9,14,26,-1034
1539,17.728254,3,10,11,13,27,-1034
1540,17.739905,3,6,9,14,24,-1029
1541,17.751563,2,7,8,12,26,-1033
1542,17.763243,2,6,10,16,23,-1041
1543,17.774917,2,7,9,13,24,-1038
1544,17.786584,2,8,8,11,24,-1035
1545,17.798273,1,7,9,15,23,-1036
1546,17.809967,3,7,10,12,24,-1031
1547,17.821644,4,6,8,14,26,-1035
1548,17.833311,2,6,8,15,29,-1035
1549,17.844989,2,6,10,13,25,-1036
1550,17.85664,4,7,10,18,25,-1035
1551,17.868292,1,5,8,13,25,-1035
1552,17.879962,4,5,7,13,28,-1039
1553,17.891623,2,8,10,14,27,-1035
1554,17.903277,2,6,11,14,29,-1042
1555,17.914984,3,6,10,14,22,-1030
1556,17.926661,4,6,10,17,26,-1033
1557,17.938325,4,5,10,10,25,-1039
1558,17.950013,2,6,8,13,25,-1034
1559,17.961669,2,7,10,12,28,-1034
1560,17.973319,3,6,9,15,27,-1039
1561,17.984996,1,6,10,13,26,-1024
1562,17.996644,3,7,13,15,27,-1033
1563,18.008295,1,7,10,13,25,-1030
1564,18.020039,2,6,11,14,24,-1035
1565,18.031691,2,6,8,17,29,-1036
1566,18.043284,4,7,9,13,25,-1030
1567,18.05485,3,5,8,17,28,-1034
1568,18.066454,1,7,9,13,27,-1032
1569,18.07797,3,6,10,14,25,-1036
1570,18.089491,3,6,10,18,26,-1041
1571,18.101079,3,5,8,14,26,-1031
1572,18.11263,3,5,10,14,26,-1040
1573,18.124205,5,6,8,16,24,-1037
1574,18.135827,2,5,8,14,25,-1035
1575,18.1475,1,8,8,14,25,-1030
1576,18.159155,2,8,6,15,24,-1032
1577,18.170797,2,6,7,16,26,-1035
1578,18.182486,1,8,9,13,25,-1034
1579,18.19416,4,7,9,15,26,-1038
1580,18.20584,1,8,9,11,28,-1027
1581,18.217498,2,6,10,16,25,-1040
1582,18.229165,3,5,9,13,22,-1034
1583,18.240857,3,5,12,14,26,-1035
1584,18.252419,3,4,8,15,30,-1036
1585,18.263977,1,7,8,15,25,-1034
1586,18.275532,2,6,9,13,29,-1035
1587,18.287079,4,5,9,14,26,-1039
1588,18.298684,3,7,10,13,25,-1036
1589,18.310211,4,4,11,12,27,-1038
1590,18.321781,2,5,8,17,28,-1033
1591,18.333342,5,8,9,16,26,-1038
1592,18.344959,1,8,10,14,21,-1036
1593,18.356637,3,5,7,13,25,-1035
1594,18.368279,1,7,8,13,26,-1034
1595,18.379931,1,6,9,15,26,-1030
1596,18.391643,4,7,7,17,28,-1033
1597,18.40329,2,5,10,13,24,-1030
1598,18.415012,1,5,8,16,23,-1035
1599,18.426676,4,8,10,12,30,-1036
1600,18.43835,3,4,9,12,25,-1031
1601,18.450038,2,6,10,17,29,-1035
1602,18.461613,4,5,9,17,26,-1031
1603,18.473171,2,7,9,14,26,-1030
1604,18.484725,3,7,8,10,22,-1031
1605,18.49627,1,4,10,15,26,-1031
1606,18.507817,2,5,7,12,23,-1039
1607,18.519396,1,5,8,12,24,-1038
1608,18.530962,3,3,8,16,31,-1033
1609,18.542536,3,5,9,14,29,-1040
1610,18.554168,2,7,10,12,27,-1034
1611,18.565839,2,6,8,11,26,-1038
1612,18.577498,3,6,8,17,27,-1030
1613,18.591897,3,7,10,14,25,-1033
1614,18.603588,3,5,11,11,29,-1033
1615,18.615265,3,5,8,14,26,-1042
1616,18.626929,4,4,9,15,28,-1036
1617,18.638628,3,6,10,12,25,-1029
1618,18.650288,2,5,9,15,23,-1030
1619,18.661995,2,5,11,16,21,-1033
1620,18.673595,4,6,11,10,23,-1031
1621,18.685144,1,6,8,11,28,-1033
1622,18.696707,1,6,8,12,24,-1037
1623,18.708253,0,9,9,13,22,-1038
1624,18.7198,3,7,9,15,23,-1035
1625,18.731346,1,7,9,10,25,-1035
1626,18.742954,2,6,9,16,25,-1032
1627,18.754518,2,7,9,18,28,-1042
1628,18.766187,3,5,9,13,22,-1036
1629,18.777881,2,7,10,14,27,-1035
1630,18.789543,2,7,8,13,25,-1037
1631,18.801256,3,7,9,11,24,-1032
1632,18.812924,2,7,8,13,24,-1035
1633,18.824576,2,7,11,16,24,-1036
1634,18.836258,3,7,9,16,27,-1038
1635,18.847901,2,6,10,13,22,-1037
1636,18.859551,1,5,11,16,27,-1028
1637,18.871103,4,3,10,15,25,-1038
1638,18.882714,0,5,10,15,25,-1032
1639,18.894276,2,7,11,15,27,-1034
1640,18.90585,2,7,9,12,26,-1034
1641,18.917395,0,7,10,17,23,-1037
1642,18.928956,3,6,10,12,27,-1037
1643,18.940505,3,6,9,17,25,-1040
1644,18.952065,3,5,9,13,29,-1033
1645,18.96369,2,7,9,13,22,-1032
1646,18.975342,1,9,8,12,25,-1035
1647,18.987033,2,6,8,12,30,-1033
1648,18.99869,2,7,7,12,28,-1037
1649,19.010352,3,7,9,15,27,-1034
1650,19.022018,2,3,6,11,24,-1028
1651,19.033673,4,6,10,14,26,-1026
1652,19.045325,1,6,11,13,24,-1033
1653,19.057016,3,6,11,11,32,-1030
1654,19.068679,1,7,9,18,22,-1030
1655,19.080263,3,6,9,15,28,-1038
1656,19.091844,3,4,10,14,27,-1034
1657,19.103402,3,7,9,12,26,-1032
1658,19.114974,1,7,6,12,30,-1037
1659,19.126609,1,7,10,16,28,-1032
1660,19.138208,4,9,9,11,25,-1034
1661,19.149727,2,8,9,15,30,-1034
1662,19.161279,2,5,9,18,25,-1031
1663,19.172901,4,4,8,13,26,-1037
1664,19.184585,0,5,9,19,26,-1040
1665,19.196264,1,4,8,13,28,-1029
1666,19.207928,4,6,10,11,24,-1034
1667,19.219581,0,6,11,15,24,-1033
1668,19.231268,3,8,9,16,24,-1032
1669,19.24294,2,6,9,14,29,-1035
1670,19.254603,3,6,9,17,28,-1033
1671,19.266301,3,5,7,11,26,-1036
1672,19.277974,2,8,9,9,28,-1033
1673,19.289552,2,3,8,14,24,-1031
1674,19.301126,2,5,8,13,25,-1034
1675,19.312675,2,7,9,15,24,-1041
1676,19.324235,1,4,10,15,25,-1037
1677,19.335781,2,7,9,16,24,-1031
1678,19.347333,2,6,10,12,28,-1029
1679,19.358889,2,5,10,15,27,-1034
1680,19.370487,3,5,7,14,28,-1030
1681,19.382153,2,7,9,13,27,-1036
1682,19.393816,2,5,10,13,28,-1036
1683,19.405502,2,6,11,13,28,-1029
1684,19.417158,3,6,9,11,30,-1032
1685,19.42881,2,6,9,16,24,-1035
1686,19.440485,2,8,7,13,27,-1033
1687,19.452153,3,2,10,18,27,-1033
1688,19.46381,3,8,9,14,25,-1038
1689,19.47549,2,6,9,10,28,-1037
1690,19.487138,4,5,9,18,26,-1031
1691,19.498723,3,6,8,13,25,-1028
1692,19.510368,1,3,7,14,26,-1038
1693,19.521973,1,6,10,12,23,-1033
1694,19.533486,0,6,10,13,31,-1038
1695,19.545029,2,4,10,13,23,-1034
1696,19.556606,2,6,9,15,26,-1030
1697,19.568165,3,8,7,13,24,-1038
1698,19.579727,1,4,9,10,26,-1033
1699,19.591429,4,5,8,14,22,-1033
1700,19.603101,0,7,5,11,27,-1035
1701,19.614779,3,8,10,14,23,-1034
1702,19.626443,1,4,8,14,25,-1034
1703,19.638146,3,4,7,12,29,-1032
1704,19.649812,2,6,10,12,27,-1034
1705,19.661495,2,5,10,16,29,-1039
1706,19.67315,3,5,10,13,28,-1038
1707,19.684798,3,5,11,14,24,-1029
1708,19.696364,2,6,9,12,27,-1036
1709,19.707907,2,8,10,13,29,-1038
1710,19.71946,3,5,7,15,27,-1041
1711,19.731007,1,7,9,16,21,-1033
1712,19.742572,2,7,11,19,26,-1028
1713,19.754127,1,7,11,13,27,-1032
1714,19.76573,3,6,9,10,24,-1030
1715,19.777285,1,6,8,14,24,-1036
1716,19.788874,1,8,11,13,22,-1030
1717,19.800508,1,7,10,13,23,-1033
1718,19.812169,2,8,11,11,22,-1037
1719,19.823822,2,6,9,13,26,-1039
1720,19.835491,2,6,8,15,30,-1038
1721,19.847153,1,7,8,14,24,-1035
1722,19.858842,3,5,9,14,26,-1032
1723,19.870542,4,5,8,12,27,-1035
1724,19.882201,2,5,10,13,25,-1039
1725,19.893897,2,7,10,15,24,-1036
1726,19.905623,4,4,9,13,25,-1034
1727,19.917211,1,6,8,16,26,-1035
1728,19.928795,1,5,10,13,27,-1033
1729,19.940358,1,8,10,12,28,-1034
1730,19.951907,2,7,8,11,21,-1035
1731,19.963471,1,7,10,12,30,-1038
1732,19.975031,1,8,9,16,26,-1038
1733,19.986626,1,4,8,15,29,-1036
1734,19.998242,3,6,9,16,25,-1039
1735,20.009904,2,6,9,11,23,-1034
1736,20.021563,2,6,12,11,27,-1032
1737,20.033225,3,5,8,14,27,-1035
1738,20.044916,2,5,9,12,27,-1033
1739,20.056566,4,7,10,15,30,-1037
1740,20.068221,1,6,9,14,25,-1038
1741,20.0799,1,7,9,11,28,-1037
1742,20.091549,3,6,10,12,31,-1034
1743,20.103203,2,7,10,17,25,-1039
1744,20.11476,3,6,10,15,25,-1038
1745,20.126328,2,7,11,12,30,-1034
1746,20.137881,2,7,8,13,26,-1035
1747,20.149482,2,7,7,13,27,-1031
1748,20.161031,3,8,10,13,27,-1038
1749,20.172585,4,5,8,14,30,-1034
1750,20.184153,3,5,9,10,27,-1034
1751,20.195703,1,7,10,11,25,-1033
1752,20.207275,3,7,10,9,27,-1039
1753,20.218923,3,6,10,12,25,-1037
1754,20.230592,2,6,10,16,28,-1031
1755,20.24228,2,8,9,17,24,-1038
1756,20.25394,1,5,9,12,25,-1039
1757,20.265629,2,7,11,12,28,-1040
1758,20.277323,5,8,9,14,28,-1041
1759,20.288976,1,4,11,18,24,-1037
1760,20.300675,3,5,10,12,29,-1030
1761,20.312337,2,6,8,15,30,-1033
1762,20.323996,3,6,9,7,23,-1033
1763,20.335562,2,5,11,15,27,-1033
1764,20.347122,2,5,10,18,24,-1036
1765,20.358691,3,7,8,14,30,-1037
1766,20.370208,1,7,8,13,26,-1033
1767,20.381743,4,5,7,15,24,-1036
1768,20.39338,1,6,8,14,28,-1034
1769,20.40496,1,6,8,13,25,-1034
1770,20.416529,2,7,11,16,29,-1038
1771,20.428114,3,7,9,13,27,-1040
1772,20.439665,2,5,8,16,26,-1036
1773,20.451227,3,5,11,12,30,-1037
1774,20.462782,0,5,7,15,25,-1035
1775,20.474334,2,5,9,11,28,-1031
1776,20.485884,3,6,9,16,26,-1036
1777,20.497489,3,6,11,12,28,-1028
1778,20.509043,0,6,6,14,27,-1042
1779,20.520691,1,5,10,14,29,-1036
1780,20.53235,0,6,11,16,28,-1030
1781,20.544031,1,7,10,12,27,-1036
1782,20.555707,3,9,8,14,25,-1040
1783,20.567357,3,7,8,13,27,-1034
1784,20.579057,2,5,11,16,27,-1031
1785,20.59072,3,5,9,15,28,-1030
1786,20.602402,2,6,11,15,25,-1034
1787,20.614064,2,5,8,15,24,-1035
1788,20.62585,4,7,11,13,25,-1036
1789,20.637579,2,7,8,15,22,-1038
1790,20.649254,2,7,8,17,22,-1029
1791,20.66093,0,5,7,13,23,-1039
1792,20.672624,5,5,8,10,26,-1036
1793,20.684295,1,7,9,12,26,-1035
1794,20.695946,2,4,10,12,28,-1030
1795,20.707599,0,8,9,14,24,-1027
1796,20.719267,3,7,12,13,31,-1033
1797,20.730948,3,6,10,15,28,-1033
1798,20.742647,2,5,9,15,24,-1029
1799,20.754226,2,6,10,12,27,-1037
1800,20.76578,0,5,8,16,24,-1035
1801,20.77736,4,4,9,15,23,-1032
1802,20.788917,1,6,8,15,27,-1035
1803,20.800473,2,6,9,13,27,-1038
1804,20.812029,2,5,9,11,23,-1039
1805,20.823623,3,4,10,14,26,-1033
1806,20.83519,1,7,7,13,28,-1031
1807,20.846816,4,4,9,14,22,-1036
1808,20.858538,1,6,9,15,28,-1032
1809,20.870198,0,7,10,14,26,-1039
1810,20.88189,1,7,9,14,25,-1026
1811,20.893568,1,6,8,13,24,-1031
1812,20.905225,3,5,7,15,27,-1036
1813,20.91688,1,7,11,12,27,-1037
1814,20.92855,4,4,9,16,22,-1034
1815,20.940222,3,6,9,14,24,-1035
1816,20.951886,3,7,10,15,28,-1032
1817,20.963491,4,6,11,13,25,-1031
1818,20.975051,2,6,8,16,27,-1037
1819,20.986631,2,6,10,11,27,-1037
1820,20.9982,2,5,8,9,26,-1039
1821,21.009727,1,4,9,11,23,-1034
1822,21.021274,3,5,8,12,27,-1033
1823,21.032841,4,6,6,16,27,-1034
1824,21.044412,2,6,10,14,25,-1036
1825,21.056052,2,7,9,18,26,-1037
1826,21.067709,4,7,10,15,25,-1031
1827,21.079388,3,8,8,16,25,-1035
1828,21.091046,2,7,11,14,29,-1032
1829,21.102703,3,2,6,13,25,-1032
1830,21.114403,3,7,8,17,23,-1033
1831,21.126058,3,4,11,15,27,-1031
1832,21.137734,2,5,7,14,25,-1038
1833,21.149412,1,5,10,15,25,-1038
1834,21.161065,3,7,9,12,26,-1036
1835,21.172652,3,6,9,11,25,-1033
1836,21.184229,4,7,9,16,27,-1033
1837,21.195775,2,5,9,14,27,-1031
1838,21.207328,4,7,10,11,24,-1029
1839,21.218887,3,6,5,12,26,-1031
1840,21.230464,3,6,9,14,28,-1029
1841,21.242022,4,9,9,13,27,-1037
1842,21.253645,3,3,9,15,24,-1032
1843,21.265309,3,7,9,15,24,-1033
1844,21.277007,2,4,9,10,25,-1031
1845,21.288662,1,6,8,15,26,-1030
1846,21.300331,3,5,9,14,25,-1035
1847,21.311991,3,7,10,16,28,-1033
1848,21.323639,3,5,9,9,28,-1028
1849,21.335321,1,3,7,17,24,-1028
1850,21.346985,2,7,8,14,29,-1030
1851,21.358687,3,5,10,14,26,-1045
1852,21.370367,1,6,10,13,25,-1037
1853,21.381956,2,6,9,18,26,-1030
1854,21.393487,0,6,8,12,26,-1032
1855,21.40505,0,7,9,14,23,-1034
1856,21.416597,2,8,10,13,25,-1040
1857,21.428148,2,5,8,12,25,-1034
1858,21.439697,4,5,9,14,21,-1040
1859,21.451265,2,4,10,15,27,-1036
1860,21.462833,4,5,9,17,24,-1040
1861,21.474461,3,6,9,16,27,-1036
1862,21.486137,0,7,8,17,26,-1037
1863,21.497826,3,5,9,11,24,-1036
1864,21.509499,3,8,9,11,25,-1035
1865,21.521154,0,7,8,14,27,-1030
1866,21.532817,2,6,8,10,26,-1032
1867,21.544474,3,6,9,18,25,-1036
1868,21.556121,2,4,11,18,23,-1037
1869,21.567787,4,8,11,11,26,-1032
1870,21.579457,3,7,9,15,29,-1038
1871,21.591023,0,5,8,13,23,-1039
1872,21.602579,1,5,10,14,22,-1038
1873,21.61414,1,7,9,12,31,-1037
1874,21.625708,3,7,10,16,23,-1034
1875,21.637256,3,8,8,9,21,-1027
1876,21.648803,2,6,8,12,23,-1034
1877,21.660348,3,6,10,11,23,-1028
1878,21.671901,3,8,10,14,26,-1038
1879,21.683594,2,9,8,15,28,-1032
1880,21.695263,3,5,11,15,27,-1039
1881,21.706929,4,5,8,12,26,-1035
1882,21.718591,3,8,8,14,24,-1036
1883,21.730274,3,5,8,11,23,-1039
1884,21.741943,1,5,10,12,26,-1033
1885,21.753621,3,6,9,13,24,-1031
1886,21.765321,4,6,9,14,25,-1036
1887,21.777008,2,8,8,14,26,-1041
1888,21.7887,2,6,10,11,26,-1035
1889,21.800273,0,5,10,16,26,-1036
1890,21.81182,0,7,10,14,26,-1027
1891,21.823395,1,6,7,20,24,-1031
1892,21.834946,2,5,9,13,22,-1031
1893,21.846523,3,6,10,13,25,-1037
1894,21.858096,3,5,9,13,26,-1028
1895,21.869655,3,8,10,15,24,-1030
1896,21.881224,2,8,8,12,26,-1038
1897,21.892841,2,9,10,16,29,-1041
1898,21.904505,2,5,10,13,25,-1030
1899,21.916154,3,7,9,14,26,-1034
1900,21.927829,2,6,9,14,26,-1035
1901,21.93948,2,6,9,13,26,-1036
1902,21.951156,1,7,9,14,26,-1036
1903,21.962813,3,6,7,16,24,-1035
1904,21.974472,2,7,8,15,27,-1037
1905,21.986177,4,4,9,10,23,-1035
1906,21.997889,2,7,7,12,27,-1030
1907,22.009467,2,5,8,11,29,-1033
1908,22.021033,3,5,10,14,26,-1041
1909,22.03259,2,5,8,13,26,-1031
1910,22.044151,2,7,8,15,26,-1037
1911,22.0557,2,5,10,13,28,-1037
1912,22.067255,3,4,9,11,23,-1038
1913,22.078819,4,5,10,13,23,-1034
1914,22.090391,3,7,10,12,26,-1036
1915,22.102031,2,8,9,13,28,-1035
1916,22.113699,1,6,9,14,24,-1034
1917,22.125357,2,6,9,15,25,-1035
1918,22.137003,1,7,10,13,26,-1034
1919,22.148683,1,5,8,15,24,-1032
1920,22.160349,2,8,8,13,25,-1035
1921,22.171993,3,5,8,15,28,-1028
1922,22.183647,2,4,10,17,29,-1040
1923,22.195332,4,7,9,12,28,-1038
1924,22.207,2,5,10,13,29,-1032
1925,22.218575,2,7,8,11,25,-1036
1926,22.23015,2,7,9,12,26,-1035
1927,22.241722,0,7,9,11,29,-1044
1928,22.253294,1,6,10,13,26,-1036
1929,22.264843,3,5,8,13,25,-1035
1930,22.276387,2,5,8,13,25,-1035
1931,22.287932,3,6,9,12,25,-1036
1932,22.29952,2,6,9,15,26,-1038
1933,22.311153,4,5,9,13,30,-1039
1934,22.322812,2,5,7,13,25,-1039
1935,22.334464,2,6,10,16,27,-1033
1936,22.346138,2,6,9,14,26,-1028
1937,22.357811,3,5,9,13,26,-1037
1938,22.369497,1,5,7,15,25,-1037
1939,22.381148,2,6,10,16,26,-1029
1940,22.392823,1,5,5,15,26,-1040
1941,22.404499,3,7,8,13,27,-1041
1942,22.416177,2,7,11,12,23,-1040
1943,22.42777,1,6,8,16,29,-1037
1944,22.439324,1,8,8,16,27,-1037
1945,22.450914,5,8,9,15,25,-1035
1946,22.462458,1,6,9,12,28,-1030
1947,22.474034,2,7,10,12,25,-1037
1948,22.485607,4,8,10,12,28,-1032
1949,22.49717,2,4,8,11,27,-1036
1950,22.508737,0,6,7,13,27,-1033
1951,22.520389,0,7,11,10,29,-1038
1952,22.532047,2,6,10,11,23,-1029
1953,22.543737,1,5,8,15,28,-1035
1954,22.555387,2,6,9,13,31,-1045
1955,22.567068,4,6,8,18,26,-1039
1956,22.578733,3,6,8,13,27,-1034
1957,22.590414,5,6,10,13,23,-1038
1958,22.60208,1,6,9,13,21,-1040
1959,22.613771,3,5,9,17,22,-1036
1960,22.625425,4,6,10,15,29,-1036
1961,22.637,2,7,8,17,24,-1034
1962,22.648553,2,6,8,12,23,-1038
1963,22.660138,2,6,8,12,25,-1036
1964,22.67169,2,6,10,15,29,-1025
1965,22.683273,4,5,9,12,25,-1037
1966,22.694821,2,6,12,12,22,-1036
1967,22.70638,5,7,9,15,24,-1032
1968,22.717975,2,7,9,12,24,-1035
1969,22.72962,1,8,10,12,27,-1034
1970,22.74129,1,8,11,12,26,-1033
1971,22.752977,2,5,10,11,26,-1036
1972,22.764625,4,8,11,15,25,-1038
1973,22.776292,2,8,10,18,24,-1043
1974,22.78795,2,8,8,15,23,-1028
1975,22.799604,2,9,10,18,27,-1039
1976,22.811248,0,6,7,16,25,-1035
1977,22.822947,2,6,10,14,26,-1031
1978,22.834635,2,6,9,13,27,-1036
1979,22.84628,4,6,10,9,28,-1033
1980,22.857944,3,7,10,16,24,-1028
1981,22.869624,4,7,10,18,22,-1030
1982,22.881287,2,8,9,16,22,-1040
1983,22.892966,2,5,8,12,26,-1040
1984,22.904617,2,6,9,16,21,-1039
1985,22.916283,2,6,8,11,27,-1037
1986,22.927977,1,7,7,16,27,-1039
1987,22.939631,2,5,12,17,24,-1032
1988,22.951298,1,6,9,15,22,-1040
1989,22.962964,4,8,8,14,24,-1032
1990,22.974647,2,5,10,16,28,-1030
1991,22.986263,1,8,9,12,25,-1036
1992,22.997915,1,7,8,13,22,-1036
1993,23.009609,2,8,8,12,24,-1037
1994,23.021252,2,8,7,14,30,-1034
1995,23.032967,4,5,10,15,21,-1030
1996,23.044605,3,5,11,12,26,-1035
1997,23.056152,3,7,9,8,25,-1029
1998,23.067697,2,8,9,12,26,-1031
1999,23.079285,2,4,10,13,25,-1040
