sample,t_s,gyro_x,gyro_y,gyro_z,accel_x,accel_y,accel_z
0,1.8e-05,19,-12,51,1010,0,-1539
1,0.011729,1,-28,43,1023,-9,-1532
2,0.023398,-15,-26,7,1031,5,-1531
3,0.035084,5,2,-14,1017,-1,-1533
4,0.046772,-4,4,-26,1017,-5,-1526
5,0.058457,5,1,27,1021,7,-1529
6,0.070116,-3,3,-30,1021,3,-1553
7,0.081768,17,9,-1,1017,0,-1534
8,0.093446,14,-22,25,1016,7,-1532
9,0.105107,8,-27,-3,1025,0,-1534
10,0.11676,13,8,-7,1018,2,-1533
11,0.128431,10,2,33,1021,-1,-1540
12,0.140088,-14,8,16,1016,-2,-1534
13,0.151755,-15,14,26,1013,6,-1525
14,0.163453,-9,8,-2,1019,-1,-1539
15,0.175027,4,10,-54,1022,2,-1534
16,0.186575,-33,-2,-36,1027,0,-1541
17,0.198146,6,-9,-11,1018,-5,-1516
18,0.209692,14,-12,22,1018,-3,-1530
19,0.221246,5,-2,32,1021,-3,-1544
20,0.232791,-2,-2,6,1021,4,-1527
21,0.244369,14,-12,12,1021,1,-1540
22,0.255966,14,-17,18,1027,-8,-1541
23,0.267587,-21,18,0,1017,-2,-1531
24,0.279252,-12,32,6,1022,0,-1551
25,0.290936,10,18,-7,1018,-6,-1540
26,0.302588,4,7,-14,1009,-3,-1545
27,0.314248,7,-12,-3,1015,3,-1542
28,0.325908,1,-15,10,1021,8,-1528
29,0.337568,9,27,24,1015,-8,-1519
30,0.34922,16,27,45,1016,-5,-1541
31,0.360875,24,20,43,1015,-1,-1537
32,0.37254,-9,16,-3,1023,5,-1529
33,0.384139,-16,20,18,1024,0,-1533
34,0.395695,-16,15,-1,1026,-4,-1535
35,0.407275,-4,39,-9,1024,1,-1540
36,0.418833,1,-27,28,1024,3,-1543
37,0.430399,11,-26,15,1025,-2,-1530
38,0.441952,13,-9,4,1020,4,-1544
39,0.4535,-13,-6,-4,1015,1,-1524
40,0.46506,1,-5,21,1026,5,-1539
41,0.476691,16,12,-15,1023,-2,-1528
42,0.48835,5,9,-16,1025,-6,-1521
43,0.500018,19,31,-7,1025,-6,-1536
44,0.511692,24,23,-18,1017,-6,-1530
45,0.523351,40,18,0,1021,7,-1536
46,0.53503,30,2,35,1014,-4,-1531
47,0.546692,-20,1,-39,1020,2,-1520
48,0.558355,-22,-20,-30,1017,3,-1534
49,0.570062,-12,-38,-15,1021,-11,-1534
50,0.58172,17,30,18,1026,-8,-1539
51,0.593273,9,25,-43,1027,-2,-1529
52,0.604892,2,8,51,1014,0,-1522
53,0.616444,4,1,-20,1018,-5,-1526
54,0.627992,12,7,-4,1007,-2,-1524
55,0.639539,0,-2,-26,1020,10,-1541
56,0.651124,11,-5,-25,1020,1,-1531
57,0.66268,2,-16,25,1019,-3,-1543
58,0.674242,-12,-24,24,1025,0,-1533
59,0.685866,-16,-40,15,1024,-8,-1531
60,0.697521,-27,0,24,1020,-8,-1536
61,0.709194,23,26,-8,1025,5,-1527
62,0.720839,30,15,37,1014,2,-1529
63,0.732484,23,30,24,1018,5,-1535
64,0.744146,20,7,17,1017,-1,-1514
65,0.75581,1,9,15,1024,5,-1530
66,0.767467,3,6,-2,1021,5,-1527
67,0.779154,1,-10,-42,1022,-9,-1529
68,0.790826,1,-3,-31,1023,-2,-1517
69,0.802403,-4,-28,-18,1024,1,-1537
70,0.813977,13,-9,-8,1018,-1,-1529
71,0.825524,13,-9,-26,1027,0,-1534
72,0.837067,-17,-14,16,1010,1,-1543
73,0.848622,-12,-32,19,1016,-6,-1522
74,0.860169,14,-17,-39,1023,-3,-1537
75,0.87172,-17,5,24,1022,1,-1529
76,0.883286,-14,-20,22,1016,-2,-1544
77,0.895,-34,-17,-29,1018,-3,-1544
78,0.906689,-25,-14,-22,1014,-8,-1527
79,0.918349,2,-9,10,1021,-8,-1529
80,0.930032,6,19,-10,1021,-8,-1550
81,0.941696,1,1,15,1026,-9,-1539
82,0.953346,11,-4,25,1025,1,-1517
83,0.965007,12,4,-30,1017,0,-1544
84,0.976671,6,6,4,1029,-8,-1527
85,0.988347,-15,1,10,1018,-3,-1535
86,1.000009,17,13,0,1027,0,-1526
87,1.011564,21,1,-2,1016,-2,-1527
88,1.023127,5,-11,8,1014,-8,-1532
89,1.03473,21,1,-36,1017,5,-1536
90,1.046419,18,-4,-16,1026,-5,-1534
91,1.058032,-5,16,-38,1020,0,-1532
92,1.069593,1,0,-6,1027,-5,-1535
93,1.081156,-5,-9,-1,1018,2,-1535
94,1.092749,11,2,7,1025,-6,-1534
95,1.104466,0,-2,25,1019,1,-1534
96,1.116147,-2,23,10,1028,-5,-1536
97,1.12781,-5,-1,2,1020,-4,-1539
98,1.139468,19,7,-9,1026,-1,-1529
99,1.151152,-13,13,-13,1023,-3,-1541
100,1.162823,2,-4,2,1021,3,-1541
101,1.174476,14,2,-5,1013,0,-1531
102,1.186168,-15,11,5,1019,1,-1532
103,1.197856,28,7,16,1025,0,-1526
104,1.209516,36,13,55,1024,0,-1524
105,1.221074,1,16,-18,1021,-6,-1539
106,1.232637,-2,3,-19,1027,1,-1530
107,1.244184,-5,1,-23,1020,3,-1531
108,1.255735,13,-1,0,1015,-2,-1543
109,1.267291,-9,-4,1,1023,-2,-1516
110,1.278885,17,5,0,1020,2,-1546
111,1.290447,-18,0,16,1026,-9,-1532
112,1.30204,16,-6,-4,1021,2,-1533
113,1.31368,1,-14,1,1018,2,-1524
114,1.325335,0,1,-14,1021,-3,-1537
115,1.336984,-2,3,-27,1022,-1,-1532
116,1.348656,6,-14,43,1011,5,-1548
117,1.360315,20,10,9,1020,-3,-1530
118,1.371964,-1,-5,11,1021,-4,-1528
119,1.383614,5,5,3,1023,0,-1538
120,1.395291,-5,5,-15,1025,2,-1534
121,1.406967,7,-2,-2,1014,-2,-1530
122,1.418614,-5,13,19,1017,-5,-1529
123,1.430157,2,10,-4,1020,-5,-1532
124,1.441762,-11,-5,23,1019,2,-1537
125,1.453318,14,29,-12,1019,-7,-1537
126,1.464889,-13,-25,-6,1018,-11,-1531
127,1.476436,1,8,37,1015,3,-1540
128,1.487983,20,0,35,1023,6,-1531
129,1.499533,29,7,21,1023,4,-1539
130,1.511136,-15,-8,-22,1026,-3,-1531
131,1.522835,-21,12,-13,1025,0,-1529
132,1.534525,2,-2,2,1016,-3,-1535
133,1.546182,1,3,7,1021,-7,-1525
134,1.557833,3,2,-3,1021,-2,-1549
135,1.569487,-3,4,12,1026,6,-1540
136,1.581131,15,12,-9,1017,-1,-1529
137,1.592792,-9,-19,15,1025,0,-1529
138,1.604449,19,24,-9,1023,-8,-1533
139,1.616108,-25,-9,0,1020,-4,-1545
140,1.62776,-5,19,47,1021,-13,-1530
141,1.63945,27,3,25,1019,8,-1534
142,1.651101,-22,6,-39,1005,2,-1539
143,1.662753,-3,9,-12,1019,-4,-1530
144,1.674418,21,5,6,1035,-4,-1531
145,1.686076,7,5,25,1021,-5,-1527
146,1.697729,-2,2,-14,1027,-1,-1530
147,1.709375,13,8,2,1018,-6,-1532
148,1.721098,-9,2,11,1021,0,-1545
149,1.732768,19,10,-8,1023,2,-1522
150,1.744322,-12,0,5,1021,1,-1540
151,1.755874,-16,-8,7,1018,4,-1536
152,1.76743,31,18,17,1015,-3,-1527
153,1.779016,20,-17,17,1023,6,-1539
154,1.790576,3,19,-25,1026,-11,-1526
155,1.802146,-32,-10,-44,1019,0,-1543
156,1.813698,-15,7,-8,1027,-1,-1544
157,1.825264,-7,16,-22,1028,-2,-1522
158,1.836907,2,4,-12,1014,-2,-1531
159,1.848566,10,-4,11,1019,-8,-1528
160,1.860219,-3,0,25,1024,2,-1545
161,1.871884,8,-2,1,1022,0,-1547
162,1.88354,13,3,-6,1020,1,-1546
163,1.895212,-1,-13,16,1027,-4,-1535
164,1.906879,22,25,-3,1023,-4,-1538
165,1.91856,-18,-23,-23,1023,1,-1531
166,1.930195,-10,20,-6,1021,-5,-1533
167,1.941849,-26,-18,-5,1025,4,-1516
168,1.95345,19,14,17,1028,2,-1537
169,1.96501,19,25,0,1018,-5,-1538
170,1.976575,20,-11,16,1021,0,-1539
171,1.988136,-9,-9,1,1019,1,-1532
172,1.99969,3,2,12,1030,5,-1518
173,2.011264,-5,3,16,1021,2,-1522
174,2.022808,-4,-9,-3,1015,-5,-1526
175,2.034411,2,5,-16,1021,-9,-1543
176,2.046048,18,-19,6,1030,-1,-1532
177,2.057702,18,32,11,1015,-3,-1540
178,2.069348,13,-18,-9,1021,-6,-1533
179,2.08102,-27,-3,-31,1012,-7,-1533
180,2.092672,17,4,12,1018,-1,-1530
181,2.104319,27,7,27,1025,-2,-1532
182,2.11597,-20,-13,-17,1021,2,-1534
183,2.127617,0,27,-1,1022,-4,-1537
184,2.139291,6,-23,16,1014,0,-1537
185,2.15095,10,1,14,1016,-1,-1546
186,2.162522,1,13,4,1013,-2,-1527
187,2.174073,-7,1,15,1016,-7,-1544
188,2.185631,-17,-7,26,1019,-1,-1547
189,2.197175,3,12,6,1019,-6,-1537
190,2.20873,12,-21,-15,1023,-5,-1560
191,2.22028,-24,-7,-41,1018,4,-1535
192,2.231847,-11,-8,-26,1026,-1,-1529
193,2.243414,-15,12,-26,1025,1,-1529
194,2.255109,2,6,-14,1029,-2,-1550
195,2.26681,25,10,12,1021,-7,-1532
196,2.278438,2,-17,8,1023,-3,-1527
197,2.290096,-11,19,2,1024,-2,-1525
198,2.301772,8,-8,-16,1014,-7,-1539
199,2.313465,10,1,-2,1024,0,-1534
200,2.325116,-11,3,-10,1017,3,-1535
201,2.336798,8,7,-1,1021,1,-1534
202,2.348453,9,-3,-6,1020,-4,-1527
203,2.360137,-8,24,24,1015,3,-1524
204,2.37173,24,10,32,1018,-1,-1529
205,2.383279,21,-5,25,1010,-3,-1530
206,2.394861,-6,-2,-7,1017,5,-1529
207,2.406399,-6,6,4,1017,-8,-1527
208,2.417971,-20,-2,-5,1021,4,-1522
209,2.429517,5,24,-12,1016,2,-1526
210,2.441062,-2,26,6,1027,1,-1535
211,2.452634,1,-4,-12,1017,-4,-1541
212,2.46425,0,8,7,1018,-4,-1530
213,2.475905,-5,1,-16,1021,-1,-1532
214,2.487561,11,3,-24,1018,5,-1537
215,2.49921,-14,2,6,1025,7,-1532
216,2.510859,-3,2,-39,1011,-4,-1535
217,2.522514,-14,23,0,1022,-4,-1553
218,2.534179,17,-9,17,1019,-3,-1518
219,2.545823,0,3,-13,1019,-2,-1529
220,2.557489,-4,11,-32,1026,6,-1551
221,2.569151,-9,15,-9,1017,-4,-1526
222,2.580749,6,25,-7,1019,-8,-1539
223,2.592296,9,-18,-17,1025,1,-1534
224,2.603842,2,15,-7,1023,3,-1536
225,2.615391,-1,4,-4,1018,-6,-1535
226,2.626945,-8,-9,31,1019,1,-1531
227,2.638518,-15,-2,17,1018,-8,-1530
228,2.650107,-2,4,-10,1029,-5,-1517
229,2.661668,-11,12,26,1018,2,-1525
230,2.6733,22,-12,14,1023,-5,-1530
231,2.684981,-16,6,-32,1022,4,-1532
232,2.696656,-8,5,-18,1020,-5,-1533
233,2.708307,6,-7,30,1019,-3,-1534
234,2.719959,7,-25,4,1022,2,-1540
235,2.731622,-5,23,0,1021,-5,-1537
236,2.743287,11,-12,-7,1016,3,-1539
237,2.754952,2,6,-13,1020,3,-1536
238,2.766634,-4,6,21,1014,-1,-1543
239,2.778233,-11,-6,-1,1020,-10,-1534
240,2.789785,11,0,7,1013,-9,-1529
241,2.80137,16,1,-6,1020,-8,-1532
242,2.812911,4,-2,0,1021,-1,-1535
243,2.824451,-7,3,21,1019,4,-1539
244,2.836,-14,-1,-24,1026,0,-1526
245,2.847544,8,8,3,1021,2,-1534
246,2.859124,-6,-2,-28,1014,-14,-1535
247,2.870699,-4,4,-21,1017,-7,-1541
248,2.882329,0,-20,7,1016,-11,-1529
249,2.894002,-2,10,17,1030,0,-1531
250,2.905674,3,-7,-2,1018,-2,-1540
251,2.917328,3,11,6,1020,-11,-1536
252,2.928999,-5,5,-16,1025,2,-1543
253,2.940666,11,-5,-7,1025,-1,-1530
254,2.952321,-12,11,10,1018,-1,-1535
255,2.96396,11,-9,-32,1024,3,-1537
256,2.975621,-20,5,3,1021,0,-1528
257,2.987299,11,-14,14,1017,1,-1540
258,2.998886,1,7,11,1021,-4,-1527
259,3.010438,9,21,24,1017,-2,-1518
260,3.021991,7,-14,46,1021,-6,-1539
261,3.033551,11,28,3,1021,-2,-1536
262,3.04512,1,12,16,1028,4,-1524
263,3.056698,3,6,-3,1021,2,-1535
264,3.068252,-9,-3,15,1016,-2,-1526
265,3.079807,-6,-16,24,1017,-12,-1530
266,3.09144,1,1,4,1010,-4,-1515
267,3.103123,14,-8,-5,1025,-7,-1551
268,3.114806,-8,6,3,1027,-1,-1534
269,3.126437,9,0,41,1024,1,-1534
270,3.138085,2,13,-11,1013,-9,-1542
271,3.149732,8,-14,30,1026,-1,-1535
272,3.161406,1,7,15,1023,0,-1534
273,3.173053,5,4,22,1025,3,-1540
274,3.184718,0,3,0,1017,9,-1533
275,3.19639,0,18,-2,1018,-2,-1537
276,3.20794,-8,6,22,1023,-2,-1526
277,3.219488,-7,-12,-2,1018,-3,-1524
278,3.231047,17,7,-14,1021,-8,-1530
279,3.242632,8,0,-9,1019,0,-1531
280,3.254152,8,-2,-44,1017,-10,-1514
281,3.265734,5,0,-33,1018,-5,-1539
282,3.277275,-3,14,-39,1021,2,-1535
283,3.288827,-33,2,-33,1023,0,-1544
284,3.30045,7,-4,28,1029,-6,-1531
285,3.3121,4,1,33,1025,3,-1529
286,3.323747,1,-2,21,1018,0,-1529
287,3.335419,-5,10,6,1022,-1,-1535
288,3.347089,0,15,-5,1021,-1,-1536
289,3.358749,-3,14,31,1027,3,-1535
290,3.37044,1,-10,8,1019,-5,-1518
291,3.382088,18,14,-9,1034,-4,-1532
292,3.393752,5,10,1,1022,6,-1533
293,3.405411,-6,6,-1,1015,4,-1522
294,3.416995,-15,6,30,1015,-4,-1532
295,3.428557,-9,-12,22,1019,6,-1541
296,3.44011,34,10,30,1024,-6,-1538
297,3.451655,-18,2,-38,1019,1,-1535
298,3.463243,-1,8,10,1025,-14,-1543
299,3.474813,-7,3,1,1019,3,-1537
300,3.486388,-6,5,-6,1016,1,-1536
301,3.498022,10,1,-5,1017,1,-1541
302,3.509644,-7,-4,-6,1019,3,-1528
303,3.521305,8,16,0,1015,3,-1544
304,3.532959,-16,-16,-3,1024,-1,-1522
305,3.544605,0,18,14,1029,3,-1535
306,3.556249,12,-2,-39,1018,-6,-1534
307,3.567915,-17,11,-2,1017,-8,-1536
308,3.579561,18,-3,55,1018,-1,-1537
309,3.591209,12,1,2,1020,0,-1520
310,3.6029,-27,-4,5,1017,-7,-1529
311,3.614574,3,0,5,1031,3,-1529
312,3.626223,7,7,27,1023,-6,-1517
313,3.637912,-1,4,-4,1018,-1,-1546
314,3.649559,12,0,-5,1027,11,-1520
315,3.661208,10,1,-19,1025,-3,-1517
316,3.672873,15,-4,-2,1021,-5,-1525
317,3.684535,-12,-12,4,1023,-7,-1532
318,3.696188,-12,5,12,1021,4,-1541
319,3.707912,19,0,-26,1020,0,-1529
320,3.719563,-14,9,-49,1021,-2,-1535
321,3.731208,-28,-1,-29,1022,7,-1541
322,3.74286,-18,2,-15,1023,-6,-1537
323,3.754524,28,3,16,1013,-6,-1521
324,3.766179,11,3,34,1022,0,-1538
325,3.777821,1,7,13,1018,-1,-1529
326,3.789469,4,5,-16,1020,-2,-1522
327,3.80116,7,5,-7,1012,3,-1529
328,3.812839,-7,-5,6,1023,0,-1526
329,3.824499,17,-7,-1,1019,6,-1541
330,3.836165,10,15,-9,1031,-6,-1530
331,3.847811,2,-21,-8,1026,4,-1540
332,3.859461,-20,3,3,1023,-1,-1535
333,3.871139,-26,10,-27,1027,2,-1537
334,3.882817,-21,-11,-5,1021,-4,-1540
335,3.894437,32,11,23,1018,-7,-1530
336,3.906092,-22,0,-23,1019,-4,-1530
337,3.917767,2,1,-13,1027,0,-1541
338,3.92943,5,-5,2,1020,-3,-1548
339,3.940991,-9,-2,16,1025,-9,-1514
340,3.952556,-4,9,11,1021,5,-1527
341,3.964117,15,-3,-12,1022,0,-1544
342,3.975662,-6,16,-10,1018,2,-1526
343,3.987257,-3,3,18,1017,1,-1527
344,3.998836,22,14,1,1019,1,-1526
345,4.010397,2,-19,-40,1025,1,-1524
346,4.02199,-25,-9,-5,1027,-3,-1539
347,4.033606,26,-3,32,1025,7,-1527
348,4.045285,23,-6,34,1021,-4,-1520
349,4.056945,-22,1,-9,1018,-2,-1518
350,4.068614,0,-5,-4,1021,-3,-1529
351,4.080283,7,-3,-11,1021,3,-1537
352,4.091933,5,2,28,1024,0,-1534
353,4.103585,4,-7,-6,1018,-1,-1524
354,4.11521,0,-8,0,1028,4,-1529
355,4.126882,-9,0,-7,1017,0,-1543
356,4.138578,-17,-16,14,1020,-3,-1529
357,4.150151,17,18,40,1013,-9,-1545
358,4.161705,-6,-22,-6,1033,0,-1530
359,4.173287,-16,4,-31,1022,2,-1530
360,4.184862,-27,-4,-24,1019,0,-1532
361,4.196433,6,21,3,1019,-7,-1525
362,4.207991,8,-26,15,1024,-4,-1529
363,4.219547,-9,0,11,1021,1,-1531
364,4.231129,-6,-1,14,1017,9,-1530
365,4.242832,-9,3,7,1023,-4,-1530
366,4.254522,4,-2,11,1020,-2,-1536
367,4.26618,7,7,13,1015,-4,-1535
368,4.277853,12,1,11,1029,0,-1545
369,4.289547,-3,-24,-22,1021,1,-1537
370,4.301196,-24,12,-10,1019,0,-1530
371,4.312853,23,-2,43,1024,1,-1529
372,4.324531,31,2,45,1013,6,-1539
373,4.336189,-14,-7,-5,1023,-5,-1549
374,4.34787,-35,-5,-21,1014,-1,-1533
375,4.35942,18,23,15,1017,-2,-1525
376,4.370995,11,-21,-13,1016,-6,-1556
377,4.38258,7,3,23,1017,5,-1540
378,4.394148,-10,-1,16,1019,-10,-1535
379,4.405728,-6,1,-13,1021,10,-1525
380,4.417271,15,11,-24,1016,-5,-1537
381,4.428814,-13,-16,2,1021,-8,-1534
382,4.440378,3,30,33,1020,-4,-1532
383,4.451993,22,8,18,1030,-12,-1535
384,4.463662,8,-17,3,1021,-4,-1541
385,4.475335,-14,4,-40,1021,7,-1547
386,4.486995,-16,-4,-11,1017,-5,-1530
387,4.498686,-24,3,-10,1027,0,-1518
388,4.510332,7,14,-4,1020,-1,-1522
389,4.521984,1,-9,16,1019,-4,-1541
390,4.533653,-1,3,8,1014,0,-1541
391,4.545338,-5,12,21,1020,-4,-1530
392,4.556996,-11,-1,16,1023,-7,-1524
393,4.568611,-9,-7,24,1017,5,-1535
394,4.58017,9,-25,11,1019,-3,-1525
395,4.591735,-29,-6,7,1022,-4,-1536
396,4.603286,-15,17,-9,1028,-2,-1530
397,4.614871,-20,16,-35,1019,-6,-1529
398,4.626395,-8,15,-4,1024,0,-1527
399,4.637909,-18,-10,-17,1017,-5,-1528
400,4.64948,-20,-16,0,1010,-2,-1545
401,4.661158,-17,1,-10,1025,0,-1541
402,4.672814,-12,24,-6,1018,-7,-1540
403,4.684465,11,7,-13,1029,3,-1534
404,4.696141,-10,-3,8,1016,0,-1533
405,4.707786,4,-3,-6,1023,-6,-1531
406,4.719465,8,13,-13,1027,2,-1528
407,4.731142,1,1,-12,1022,-13,-1530
408,4.742815,25,32,0,1018,0,-1532
409,4.754456,-8,-14,-22,1022,0,-1540
410,4.766109,-11,-4,-22,1022,2,-1537
411,4.777706,-15,5,-21,1020,6,-1531
412,4.789252,9,8,26,1026,5,-1536
413,4.800796,4,-21,14,1019,2,-1549
414,4.81234,-17,-10,0,1018,-6,-1532
415,4.823915,-1,-8,11,1017,-8,-1545
416,4.835466,-13,17,14,1012,6,-1543
417,4.847018,0,6,4,1020,-1,-1524
418,4.85862,-13,0,10,1024,-3,-1531
419,4.870312,-7,1,17,1023,2,-1526
420,4.881972,17,8,-2,1015,-6,-1544
421,4.893659,10,-24,-20,1020,-1,-1521
422,4.905322,-22,11,-8,1027,0,-1529
423,4.917002,16,-3,29,1026,5,-1536
424,4.928665,6,-5,-1,1018,-2,-1520
425,4.940319,1,-7,5,1018,2,-1545
426,4.951956,-14,15,-13,1017,-2,-1546
427,4.963645,19,-8,14,1023,-1,-1522
428,4.975335,-6,-3,5,1016,1,-1526
429,4.986992,0,16,18,1017,-7,-1537
430,4.998684,9,3,-3,1018,-4,-1532
431,5.010362,1,1,23,1019,0,-1537
432,5.022049,0,4,-10,1022,2,-1531
433,5.033701,9,-8,3,1021,0,-1520
434,5.045414,20,-11,-13,1027,6,-1541
435,5.057078,-12,23,-2,1019,-2,-1536
436,5.068733,27,-1,45,1025,-4,-1543
437,5.0803,9,-3,23,1018,0,-1537
438,5.091857,9,7,19,1022,-5,-1543
439,5.103397,18,19,-4,1020,0,-1532
440,5.11495,23,6,7,1013,-5,-1536
441,5.126543,-1,-11,-4,1016,-1,-1531
442,5.138091,-4,8,1,1024,-2,-1521
443,5.149646,-1,5,2,1017,-2,-1533
444,5.161235,-18,-9,12,1050,-68,-1349
445,5.172795,-3,5,16,989,-10,-1510
446,5.184462,17,11,2,1008,-1,-1508
447,5.196128,8,0,6,1022,-15,-1535
448,5.207787,27,-6,27,1023,-6,-1506
449,5.219495,6,-5,1,1007,-13,-1505
450,5.231173,-11,10,-36,1014,0,-1542
451,5.242845,-2,0,-23,1014,3,-1559
452,5.254548,22,-11,13,1030,1,-1545
453,5.266195,-16,-3,-5,1027,1,-1545
454,5.277924,-5,24,20,1029,6,-1534
455,5.28948,-6,13,7,1021,-7,-1508
456,5.301041,3,-11,3,1020,-5,-1528
457,5.312606,-11,3,12,1021,-3,-1542
458,5.324157,-11,-1,23,1024,2,-1534
459,5.335723,5,4,-4,1020,0,-1530
460,5.34727,12,-7,-33,1028,-3,-1510
461,5.358814,12,11,-13,1018,-10,-1526
462,5.370398,1,4,-2,1022,-7,-1524
463,5.382062,13,-4,37,1015,1,-1531
464,5.393719,1,13,17,1024,-8,-1518
465,5.405394,-1,6,-9,1024,-7,-1535
466,5.417068,16,-11,2,1019,-1,-1544
467,5.428716,-5,1,-11,1024,0,-1518
468,5.440392,-1,9,21,1017,-5,-1540
469,5.452037,10,-5,-30,1018,5,-1525
470,5.46369,4,-2,21,1019,-1,-1531
471,5.475393,-8,1,8,1021,2,-1544
472,5.487052,12,-2,-7,1021,2,-1530
473,5.498633,11,-1,-22,1023,1,-1527
474,5.510214,-15,-15,23,1023,-1,-1533
475,5.521767,-4,5,-17,1011,-4,-1525
476,5.533334,-13,11,-39,1019,-1,-1540
477,5.544894,0,6,-20,1012,-5,-1534
478,5.556491,-6,2,-34,1014,-3,-1525
479,5.568058,-2,-18,16,1021,-1,-1533
480,5.579616,-6,15,-2,1022,-5,-1539
481,5.591244,-7,15,11,1023,-12,-1530
482,5.602931,3,-6,-7,1021,-2,-1534
483,5.614583,13,4,-16,1022,-1,-1540
484,5.626252,-3,-8,-6,1010,1,-1531
485,5.637925,-13,7,0,1021,4,-1519
486,5.649597,13,-8,-23,1027,-5,-1531
487,5.661283,-14,6,-15,1017,-1,-1521
488,5.672924,-2,-8,-12,1024,2,-1534
489,5.684588,-1,9,-22,1025,-5,-1530
490,5.69627,2,-3,13,1025,4,-1534
491,5.707853,9,1,45,1012,0,-1539
492,5.719405,17,-15,-10,1009,6,-1553
493,5.730973,2,-5,-9,1021,-10,-1528
494,5.742525,5,9,-5,1030,2,-1536
495,5.754077,-10,6,24,1031,-12,-1510
496,5.765625,-13,4,2,1021,3,-1527
497,5.777208,-18,6,12,1019,-1,-1540
498,5.788766,-8,4,2,1021,-8,-1517
499,5.800404,10,1,-10,1016,1,-1528
500,5.812055,23,7,-10,1020,-4,-1534
501,5.823707,-3,17,-15,1028,-3,-1536
502,5.835385,-2,1,-2,1027,4,-1531
503,5.84708,1,-6,-9,1025,-3,-1537
504,5.858745,6,3,26,1018,0,-1536
505,5.870424,7,-8,0,1004,-12,-1529
506,5.88207,1,-9,13,1023,1,-1515
507,5.893787,8,-6,-18,1023,2,-1532
508,5.905444,18,8,-13,1019,1,-1531
509,5.917002,11,7,-19,1023,2,-1540
510,5.92855,9,16,8,1032,3,-1531
511,5.940099,9,-2,-21,1012,-9,-1535
512,5.951659,14,-3,10,1029,-1,-1543
513,5.963237,22,6,-1,1020,-3,-1527
514,5.974815,21,11,0,1027,-8,-1532
515,5.986385,-5,12,-23,1022,-6,-1532
516,5.997966,-4,1,-13,1021,3,-1534
517,6.009588,-2,2,-19,1021,-7,-1540
518,6.021267,-8,5,-10,1017,0,-1528
519,6.032911,0,20,10,1023,-4,-1537
520,6.044559,-4,-3,-1,1031,0,-1517
521,6.056228,14,5,-18,1018,-4,-1560
522,6.067883,-14,10,10,1027,-2,-1533
523,6.079538,-11,-23,1,1023,-6,-1529
524,6.091229,8,9,22,1034,-6,-1536
525,6.102911,10,-3,-9,1016,-1,-1537
526,6.114583,30,6,19,1016,1,-1542
527,6.126154,10,-1,27,1015,0,-1540
528,6.137718,7,2,42,1024,3,-1544
529,6.149261,9,6,19,1027,3,-1543
530,6.1608,-6,-7,9,1020,4,-1535
531,6.172351,1,0,-2,1021,2,-1532
532,6.183892,9,1,5,1017,0,-1534
533,6.19544,-4,-4,5,1020,-4,-1526
534,6.207013,15,-12,-15,1021,-5,-1541
535,6.21872,-7,15,-5,1021,-5,-1540
536,6.230419,-11,-22,7,1025,-5,-1534
537,6.242078,-9,3,25,1019,3,-1536
538,6.253729,22,3,1,1020,-6,-1530
539,6.2654,11,9,-17,1021,1,-1534
540,6.277048,-16,1,-34,1024,0,-1535
541,6.288775,-28,4,-47,1013,-5,-1539
542,6.300533,-4,2,-17,1024,-6,-1524
543,6.312207,-6,9,-22,1013,4,-1526
544,6.323906,2,3,-12,1025,-4,-1520
545,6.335464,6,-2,-8,1020,-2,-1526
546,6.347023,8,-5,-5,1020,-5,-1529
547,6.358598,-1,22,13,1018,0,-1534
548,6.370152,-15,-3,0,1024,-8,-1544
549,6.38172,-7,-20,27,1018,-2,-1531
550,6.393311,28,-2,-25,1015,-3,-1539
551,6.404852,5,7,-29,1019,-3,-1528
552,6.416411,19,22,-16,1024,-1,-1535
553,6.428053,-26,-2,-34,1016,-1,-1541
554,6.439728,-12,12,-17,1018,4,-1546
555,6.451398,4,5,17,1023,-2,-1532
556,6.463085,4,7,26,1018,-9,-1534
557,6.474757,-4,9,0,1021,1,-1548
558,6.486431,3,-2,-12,1029,-6,-1534
559,6.498109,-9,2,14,1021,-2,-1530
560,6.509767,1,-11,14,1021,-2,-1539
561,6.521434,13,-1,7,1029,6,-1529
562,6.533108,10,22,-13,1025,4,-1533
563,6.544765,25,3,4,1022,6,-1531
564,6.55642,17,-11,25,1019,3,-1505
565,6.568065,24,7,4,1020,-2,-1531
566,6.579718,-6,12,-23,1027,3,-1530
567,6.591508,-29,-4,-15,1015,-5,-1531
568,6.60319,-3,-3,-36,1028,-5,-1534
569,6.614865,-5,-3,-15,1018,-3,-1535
570,6.626561,10,6,6,1018,3,-1520
571,6.638278,6,8,9,1020,0,-1531
572,6.64984,-9,8,14,1022,1,-1529
573,6.661382,-7,-7,17,1030,-1,-1522
574,6.67293,0,-7,18,1024,-2,-1519
575,6.684478,17,28,-4,1017,-7,-1540
576,6.696018,22,6,-4,1020,-1,-1537
577,6.707572,23,-6,21,1025,-1,-1534
578,6.719124,29,-4,46,1021,3,-1529
579,6.730742,32,6,40,1013,6,-1527
580,6.742451,20,16,16,1027,-1,-1530
581,6.754162,6,1,25,1018,-12,-1535
582,6.765839,11,5,19,1025,2,-1534
583,6.7775,-8,6,3,1026,-3,-1525
584,6.789156,1,-1,-25,1019,1,-1534
585,6.800806,10,-1,27,1016,3,-1538
586,6.812462,5,-8,-1,1018,2,-1536
587,6.82412,8,27,-11,1016,-7,-1541
588,6.835809,-22,-27,11,1028,-3,-1537
589,6.847459,8,17,31,1034,-1,-1525
590,6.859141,22,3,-6,1037,4,-1530
591,6.870818,24,15,11,1025,-3,-1534
592,6.882434,-35,-5,-28,1020,-7,-1493
593,6.894117,-3,11,-18,1011,-10,-1534
594,6.905792,9,1,24,1015,-2,-1541
595,6.917433,7,1,11,1021,0,-1501
596,6.929082,-1,14,-1,1015,1,-1507
597,6.940771,6,0,-15,1027,2,-1549
598,6.952417,14,6,-9,1010,0,-1544
599,6.963967,-17,7,0,1019,-1,-1537
600,6.975516,-11,-13,-3,1025,-1,-1539
601,6.987099,-18,-20,10,1022,2,-1535
602,6.998634,-14,19,7,1024,3,-1548
603,7.010152,-1,-7,43,1019,-8,-1512
604,7.021694,-4,-11,14,1020,-1,-1532
605,7.033232,10,6,12,1018,-5,-1502
606,7.045152,-13,-24,-21,1018,-3,-1531
607,7.057009,9,1,17,1027,-6,-1544
608,7.068675,6,-7,8,1027,2,-1529
609,7.080352,3,-12,11,1025,6,-1526
610,7.09202,-4,-1,19,1026,-8,-1526
611,7.103677,1,0,-18,1025,-1,-1536
612,7.115354,-6,5,13,1018,-1,-1526
613,7.127024,-5,7,-13,1015,-5,-1539
614,7.138751,-19,-25,10,1015,0,-1534
615,7.150454,-26,-18,-23,1030,-9,-1541
616,7.162159,-8,13,-38,1018,-3,-1529
617,7.173738,23,21,1,1015,-4,-1536
618,7.185283,1,5,0,1025,-1,-1537
619,7.196839,-14,-13,3,1015,-1,-1538
620,7.208382,-22,1,18,1021,-3,-1512
621,7.219928,-1,7,21,1024,2,-1533
622,7.231471,-6,10,0,1023,0,-1531
623,7.243056,-11,-3,16,1030,0,-1538
624,7.254649,-7,-3,7,1023,5,-1539
625,7.266303,14,-12,1,1026,1,-1532
626,7.277986,5,14,-12,1016,1,-1536
627,7.289649,10,-5,-11,1022,0,-1531
628,7.301301,-19,4,9,1020,-4,-1518
629,7.312949,14,-6,46,1029,5,-1536
630,7.324618,31,10,35,1021,1,-1538
631,7.336268,8,16,3,1021,-3,-1525
632,7.347918,-17,-17,-8,1019,-3,-1537
633,7.359591,25,-5,27,1024,-10,-1526
634,7.371278,5,-1,10,1026,0,-1532
635,7.382868,1,8,12,1021,-1,-1540
636,7.394394,5,13,10,1015,-6,-1541
637,7.40591,-9,6,16,1020,-3,-1529
638,7.417461,-9,-18,10,1015,-1,-1536
639,7.429011,15,31,-14,1013,0,-1534
640,7.440583,21,25,-4,1017,5,-1537
641,7.452137,7,-23,-21,1014,2,-1535
642,7.463724,-3,-23,-14,1019,1,-1538
643,7.475407,8,14,-14,1024,3,-1530
644,7.487086,-20,4,-25,1016,-4,-1532
645,7.498755,-25,-4,-24,1017,-3,-1541
646,7.510458,11,14,-3,1016,-2,-1524
647,7.52211,5,0,-19,1023,-3,-1533
648,7.533767,6,-4,0,1019,2,-1531
649,7.54542,10,4,2,1019,-3,-1544
650,7.557064,-12,-2,0,1027,-6,-1511
651,7.568753,-11,-15,-14,1015,3,-1523
652,7.58042,2,12,-15,1018,0,-1544
653,7.591976,-21,-23,22,1021,0,-1532
654,7.603555,6,35,27,1021,-4,-1546
655,7.615119,23,-3,33,1023,-8,-1537
656,7.626708,32,14,19,1023,-6,-1535
657,7.638274,-12,-10,-15,1027,0,-1525
658,7.649823,-22,-10,-8,1016,5,-1534
659,7.661365,2,23,-13,1024,1,-1532
660,7.672923,9,7,1,1028,4,-1541
661,7.684545,9,1,0,1017,4,-1536
662,7.696201,1,7,24,1016,0,-1539
663,7.707873,-7,0,7,1021,5,-1532
664,7.719524,2,7,-21,1018,-8,-1527
665,7.731196,-12,-20,10,1025,-4,-1532
666,7.742876,-1,21,15,1016,1,-1520
667,7.754578,22,-10,-2,1025,2,-1529
668,7.766241,22,-14,28,1027,-6,-1530
669,7.77793,-19,1,-38,1018,-8,-1528
670,7.789585,-24,-15,-36,1022,-9,-1528
671,7.80114,-25,9,-7,1020,-6,-1544
672,7.812696,-3,29,-5,1016,0,-1536
673,7.82425,19,-4,2,1027,-2,-1537
674,7.835816,7,-2,20,1021,-4,-1538
675,7.847363,-7,1,11,1025,-7,-1532
676,7.858976,-1,-1,-4,1024,0,-1547
677,7.870581,7,4,17,1021,-5,-1541
678,7.882229,-14,6,-16,1021,-5,-1529
679,7.893858,-21,-21,-15,1010,7,-1529
680,7.90552,31,6,40,1023,1,-1521
681,7.917174,-17,-5,-38,1019,-2,-1541
682,7.928846,15,2,26,1021,4,-1544
683,7.940503,15,1,17,1030,5,-1529
684,7.952152,-19,3,-13,1016,-7,-1534
685,7.96383,8,14,-6,1015,-2,-1530
686,7.975498,15,6,-4,1009,-12,-1539
687,7.987191,6,-5,20,1018,-4,-1528
688,7.998871,0,5,-1,1018,-5,-1531
689,8.010544,-4,7,-7,1039,-3,-1534
690,8.022179,10,4,-20,1028,4,-1520
691,8.033845,-4,24,3,1025,3,-1541
692,8.045525,26,5,3,1016,-2,-1535
693,8.057172,-24,2,-38,1014,13,-1536
694,8.068847,23,-1,39,1007,4,-1553
695,8.080499,-1,-10,-4,1031,-5,-1540
696,8.092174,-28,-17,-8,1025,5,-1535
697,8.103853,-10,15,-12,1016,2,-1534
698,8.1154,24,-1,9,1026,-9,-1535
699,8.126954,3,-20,-2,1012,-1,-1541
700,8.13852,-3,17,17,1015,-1,-1535
701,8.150085,10,4,-2,1021,-2,-1528
702,8.161642,0,-1,14,1025,-1,-1532
703,8.173197,-18,6,28,1021,3,-1535
704,8.184741,-16,-4,0,1025,-2,-1534
705,8.196294,29,12,14,1024,-3,-1532
706,8.207939,-8,-13,-29,1018,4,-1536
707,8.219614,-9,18,-6,1010,-3,-1527
708,8.231278,9,4,28,1019,-1,-1526
709,8.242989,5,5,21,1024,-2,-1540
710,8.254673,-22,-6,-10,1015,1,-1545
711,8.266351,10,13,-11,1016,4,-1523
712,8.278046,8,-8,-7,1027,3,-1530
713,8.289691,-3,19,19,1020,-1,-1532
714,8.301384,-1,3,0,1011,-1,-1517
715,8.313043,5,3,-26,1017,-10,-1542
716,8.324608,18,3,-12,1018,1,-1527
717,8.33619,16,9,0,1028,4,-1528
718,8.347775,6,-18,-19,1021,-6,-1517
719,8.359354,8,-11,5,1026,-15,-1530
720,8.370875,-17,8,-31,1026,-1,-1539
721,8.382394,0,9,-6,1021,-4,-1528
722,8.393909,-3,13,-17,1009,-8,-1539
723,8.40546,-19,-7,-1,1020,0,-1548
724,8.417158,-10,24,-6,1023,4,-1536
725,8.428836,10,-9,-10,1015,2,-1542
726,8.440495,9,-6,-10,1015,-7,-1544
727,8.452147,2,3,3,1024,9,-1534
728,8.463821,-4,0,28,1020,-7,-1541
729,8.475485,-15,-9,13,1026,-3,-1545
730,8.487146,-3,3,6,1016,-5,-1535
731,8.498835,18,-20,-33,1018,-5,-1539
732,8.510514,-7,17,12,1013,2,-1520
733,8.522181,20,-3,23,1022,-1,-1549
734,8.533851,2,1,15,1019,-5,-1539
735,8.545499,2,14,6,1019,1,-1520
736,8.557148,18,7,3,1023,-7,-1525
737,8.568795,-10,6,9,1015,1,-1540
738,8.580467,12,-1,-18,1018,4,-1524
739,8.592132,6,-6,0,1020,1,-1542
740,8.603779,-9,-1,-10,1019,-4,-1534
741,8.615537,6,5,-13,1013,0,-1526
742,8.627229,7,3,-10,1020,-5,-1548
743,8.638882,-16,1,9,1021,-3,-1534
744,8.650565,9,-16,-5,1018,-4,-1540
745,8.662243,-24,6,-25,1025,-7,-1531
746,8.673913,20,-10,42,1023,1,-1533
747,8.685582,0,3,-10,1019,-7,-1543
748,8.697241,1,2,0,1025,3,-1527
749,8.708887,19,-19,-5,1026,-1,-1538
750,8.720563,-8,23,17,1010,-3,-1547
751,8.732228,6,-7,-10,1024,-6,-1540
752,8.743888,-10,-2,3,1027,0,-1520
753,8.755533,13,9,12,1024,3,-1540
754,8.767226,-8,-11,9,1024,-4,-1536
755,8.778879,-7,1,11,1021,-5,-1535
756,8.790567,10,5,2,1027,-2,-1537
757,8.802243,-27,2,-19,1019,-4,-1534
758,8.813917,-2,6,-4,1019,3,-1535
759,8.825606,15,-11,35,1007,-4,-1536
760,8.837268,9,-4,39,1022,5,-1535
761,8.848836,10,3,6,1021,-3,-1515
762,8.860403,-14,-6,6,1027,-2,-1530
763,8.871951,-10,20,6,1011,2,-1539
764,8.883496,-3,2,20,1015,0,-1517
765,8.895061,10,-6,-16,1014,-6,-1523
766,8.906648,17,-1,19,1027,-5,-1530
767,8.9182,-9,-5,-7,1013,-8,-1534
768,8.929776,-10,13,0,1022,-1,-1530
769,8.941397,4,-4,-7,1018,-2,-1539
770,8.953063,9,8,-46,1021,-3,-1527
771,8.964726,15,-9,27,1013,4,-1528
772,8.976376,-11,9,-35,1022,-1,-1540
773,8.988046,-6,3,-25,1017,0,-1542
774,8.999711,1,1,15,1024,4,-1535
775,9.011375,17,-6,6,1035,-7,-1532
776,9.023025,0,-1,-16,1020,1,-1548
777,9.03471,-4,13,12,1017,-1,-1518
778,9.04642,6,0,-22,1018,-3,-1537
779,9.058102,-8,-6,18,1017,3,-1526
780,9.069749,-2,7,12,1023,-3,-1537
781,9.0814,17,-3,-4,1024,-3,-1542
782,9.093062,-11,8,28,1021,5,-1521
783,9.104725,10,-2,-5,1018,3,-1534
784,9.116383,-12,22,-23,1018,-2,-1545
785,9.128028,-3,0,-14,1015,-4,-1528
786,9.139672,1,0,-11,1021,-12,-1532
787,9.151232,3,-8,-8,1020,-10,-1529
788,9.16278,-1,-17,18,1029,-1,-1545
789,9.17433,-6,15,5,1025,3,-1531
790,9.185902,-6,4,3,1017,5,-1543
791,9.197478,-6,-4,12,1020,0,-1534
792,9.209049,6,-2,7,1020,4,-1550
793,9.220606,8,19,4,1024,-2,-1525
794,9.232194,14,-5,-10,1016,0,-1542
795,9.243878,10,-3,-17,1024,-3,-1515
796,9.255535,-22,12,-12,1026,-7,-1534
797,9.267228,7,-3,6,1015,0,-1524
798,9.27889,-3,8,-26,1023,-5,-1523
799,9.29058,-6,-3,-34,1023,1,-1525
800,9.302247,-4,0,-15,1028,-2,-1539
801,9.313913,7,-12,0,1021,2,-1549
802,9.325584,-3,23,23,1008,6,-1521
803,9.337249,1,-13,-8,1021,-2,-1529
804,9.348901,14,0,-12,1022,5,-1540
805,9.360574,-14,0,5,1018,-6,-1541
806,9.372229,-17,3,2,1016,-4,-1518
807,9.383883,13,-3,-9,1014,3,-1530
808,9.395532,0,-1,-23,1021,3,-1528
809,9.407203,-14,15,-39,1017,1,-1532
810,9.418875,8,-9,24,1026,0,-1529
811,9.43055,5,-9,34,1015,3,-1539
812,9.442249,12,7,34,1019,-1,-1521
813,9.453916,4,-16,27,1025,9,-1534
814,9.465485,6,-3,1,1015,-3,-1540
815,9.477055,-2,-3,4,1023,-4,-1531
816,9.488608,2,-10,5,1018,-1,-1528
817,9.500195,11,-1,-22,1021,-3,-1549
818,9.511749,16,14,3,1017,-7,-1530
819,9.523318,19,-4,-2,1025,-7,-1535
820,9.534869,-2,-2,15,1021,-7,-1524
821,9.546394,-13,14,13,1028,4,-1530
822,9.558069,-24,-1,7,1025,-3,-1529
823,9.569725,3,-6,4,1015,-3,-1537
824,9.58138,-3,18,-21,1021,0,-1545
825,9.593034,-6,-4,-22,1018,3,-1536
826,9.604686,-2,9,-36,1027,1,-1529
827,9.616356,0,-5,-4,1011,3,-1539
828,9.628012,-1,4,6,1018,-2,-1529
829,9.639683,0,-6,-5,1013,1,-1531
830,9.651377,16,1,-20,1024,-9,-1536
831,9.663036,-1,14,-20,1021,-6,-1537
832,9.674617,-6,0,12,1024,-3,-1532
833,9.686152,-15,8,26,1015,-4,-1533
834,9.697698,-21,6,13,1009,1,-1529
835,9.709271,17,-3,47,1019,-3,-1534
836,9.720823,31,9,40,1010,1,-1535
837,9.73239,2,8,-24,1015,7,-1537
838,9.743939,-6,1,-7,1033,-1,-1539
839,9.755492,-5,5,-14,1029,0,-1530
840,9.767124,8,-7,-17,1018,-8,-1536
841,9.778803,7,0,15,1023,-3,-1543
842,9.79048,8,-6,-16,1014,4,-1524
843,9.80216,14,6,-16,1021,5,-1518
844,9.813809,18,22,-21,1027,1,-1535
845,9.825456,-14,-25,1,1025,-10,-1536
846,9.83712,-1,9,8,1022,-6,-1530
847,9.848762,20,0,-16,1021,1,-1534
848,9.860418,-30,-3,-23,1030,-10,-1549
849,9.872064,12,0,14,1017,-5,-1548
850,9.883668,1,-3,20,999,-8,-1519
851,9.895245,7,4,-8,1003,-2,-1529
852,9.906818,7,0,9,1016,6,-1527
853,9.918382,4,4,13,1021,-6,-1545
854,9.929911,1,12,24,1027,-3,-1530
855,9.941461,11,0,-23,1017,0,-1537
856,9.95303,11,21,-7,1021,8,-1539
857,9.964581,-15,-14,1,1019,3,-1530
858,9.976278,19,30,-4,1021,-8,-1527
859,9.987954,4,-20,-16,1018,-2,-1529
860,9.99962,-7,-7,34,1017,1,-1530
861,10.011288,32,4,47,1029,-3,-1546
862,10.02297,31,15,43,1023,2,-1526
863,10.034628,0,-5,6,1028,-3,-1547
864,10.046315,-3,-8,-26,1021,-6,-1524
865,10.057982,9,-4,11,1010,0,-1529
866,10.069636,-5,4,0,1021,0,-1536
867,10.081328,9,1,-21,1027,8,-1530
868,10.092989,-11,-10,2,1024,6,-1530
869,10.104656,19,3,-20,1024,-7,-1529
870,10.116326,7,11,-4,1008,-3,-1537
871,10.127974,-4,25,18,1016,3,-1532
872,10.139628,24,-11,-6,1018,-2,-1529
873,10.151276,-20,3,-31,1024,-3,-1527
874,10.162956,4,-1,24,1018,1,-1530
875,10.174635,27,2,24,1025,0,-1534
876,10.186314,-26,-9,2,1016,-3,-1533
877,10.197911,2,7,26,1023,4,-1534
878,10.209454,1,-1,-19,1021,1,-1537
879,10.220996,14,4,6,1020,-4,-1531
880,10.232556,5,11,7,1021,1,-1544
881,10.244101,-5,5,-16,1027,-9,-1527
882,10.255651,-15,-15,1,1025,-3,-1546
883,10.267197,4,15,2,1026,0,-1532
884,10.278794,28,15,11,1022,2,-1546
885,10.290424,-20,-15,-35,1009,-2,-1532
886,10.302107,1,-14,34,1020,2,-1527
887,10.313757,30,3,29,1028,-3,-1542
888,10.325405,-20,-4,-6,1019,7,-1546
889,10.337075,15,31,7,1021,-3,-1541
890,10.348734,4,-5,10,1024,-4,-1527
891,10.360382,-1,10,9,1025,1,-1531
892,10.372031,0,-3,-19,1019,-5,-1529
893,10.3837,6,18,1,1019,-2,-1527
894,10.395264,-9,-10,10,1024,-1,-1526
895,10.406818,14,18,-14,1021,-2,-1524
896,10.418389,-17,-23,2,1019,5,-1536
897,10.429909,-18,-23,-22,1015,2,-1529
898,10.441454,23,23,30,1015,2,-1557
899,10.453038,17,-10,42,1019,-2,-1533
900,10.464586,22,12,29,1020,2,-1540
901,10.476189,-30,-3,-20,1019,3,-1537
902,10.48781,-8,28,-3,1025,-6,-1537
903,10.499479,9,-18,8,1010,-8,-1525
904,10.511138,-2,1,1,1013,0,-1520
905,10.52283,10,1,-8,1017,-1,-1539
906,10.534489,-2,1,6,1026,5,-1519
907,10.546165,-5,5,0,1028,8,-1530
908,10.557831,-21,-19,17,1023,-1,-1529
909,10.569482,11,29,26,1023,0,-1543
910,10.581152,9,-16,-19,1013,-3,-1536
911,10.592823,-24,4,-15,1014,-5,-1538
912,10.60444,1,22,-26,1017,3,-1531
913,10.615998,23,8,22,1022,-11,-1537
914,10.627558,33,5,28,1024,-10,-1531
915,10.639148,17,-8,22,1016,0,-1540
916,10.65071,-6,-18,11,1023,0,-1535
917,10.66229,-10,-4,19,1024,0,-1532
918,10.673851,-5,9,14,1017,4,-1530
919,10.685408,-6,2,-2,1020,0,-1525
920,10.697028,1,1,-12,1017,3,-1537
921,10.708684,7,1,-17,1016,1,-1537
922,10.72035,8,20,28,1020,-4,-1518
923,10.732008,3,-19,-27,1019,-10,-1539
924,10.743658,-8,19,2,1021,-8,-1533
925,10.755358,15,-9,28,1024,0,-1538
926,10.767029,1,0,8,1015,-2,-1549
927,10.778699,-16,16,-15,1026,0,-1527
928,10.790385,26,-12,7,1021,-3,-1523
929,10.802049,1,-23,9,1029,-1,-1524
930,10.813602,-2,1,6,1017,7,-1534
931,10.825153,-5,1,11,1013,-5,-1540
932,10.836712,12,17,-11,1026,-2,-1529
933,10.848312,5,5,6,1020,-1,-1535
934,10.859861,-23,1,8,1020,0,-1540
935,10.871407,9,-5,-19,1024,-2,-1536
936,10.882958,-28,8,-25,1020,-9,-1528
937,10.894565,25,4,27,1019,6,-1525
938,10.906183,6,-8,13,1017,1,-1551
939,10.917844,2,5,-5,1021,-1,-1529
940,10.929493,5,-22,14,1024,4,-1543
941,10.941149,9,9,-5,1018,-12,-1534
942,10.952806,1,-3,-2,1025,-7,-1536
943,10.964453,1,-2,11,1015,0,-1545
944,10.976121,15,6,3,1018,-4,-1531
945,10.987769,-11,-8,16,1017,2,-1550
946,10.999475,9,4,-19,1033,3,-1540
947,11.011187,1,-3,-3,1014,-3,-1529
948,11.022774,-12,-1,5,1015,3,-1543
949,11.034323,-10,-4,-18,1027,0,-1541
950,11.045887,-11,-3,-28,1021,3,-1531
951,11.057437,-9,14,-32,1030,5,-1537
952,11.068985,0,-8,0,1024,0,-1530
953,11.08055,24,0,14,1015,2,-1534
954,11.092107,-11,-4,13,1007,2,-1528
955,11.103687,-5,19,-1,1017,4,-1540
956,11.115376,2,-4,6,1021,-1,-1531
957,11.127085,9,2,1,1022,-1,-1529
958,11.138749,-5,3,15,1027,0,-1536
959,11.150425,0,-4,-8,1026,-2,-1535
960,11.162088,-14,1,1,1010,-13,-1534
961,11.173751,19,-18,-13,1024,-4,-1541
962,11.185394,14,17,22,1014,-5,-1532
963,11.197041,-1,5,-15,1021,1,-1541
964,11.208798,-8,6,-35,1023,-5,-1538
965,11.220453,1,12,10,1016,1,-1544
966,11.232038,5,29,-11,1018,3,-1528
967,11.243582,1,36,-6,1025,-1,-1533
968,11.255123,10,-10,-2,1017,-2,-1537
969,11.266687,5,-11,-13,1017,-6,-1532
970,11.278276,17,8,6,1019,0,-1527
971,11.28983,-7,1,12,1026,0,-1534
972,11.301425,-12,8,6,1019,10,-1534
973,11.312997,13,0,-13,1023,2,-1543
974,11.324615,10,-6,-29,1015,4,-1530
975,11.336277,-15,5,24,1021,-7,-1543
976,11.347925,12,-9,38,1024,-3,-1525
977,11.359597,9,0,38,1027,-3,-1528
978,11.371256,5,1,29,1019,-6,-1526
979,11.382936,8,5,-8,1022,0,-1526
980,11.394598,10,-13,-8,1019,-4,-1533
981,11.406255,-2,15,5,1019,0,-1525
982,11.417946,-5,-4,9,1031,-2,-1538
983,11.429611,-17,-9,23,1029,-1,-1525
984,11.441178,5,7,8,1017,-8,-1532
985,11.452727,-15,-3,0,1017,5,-1530
986,11.4643,-1,2,13,1018,-5,-1543
987,11.475856,8,-15,-50,1016,-1,-1541
988,11.487421,1,10,-24,1018,-9,-1525
989,11.499004,-8,12,-14,1023,-4,-1532
990,11.510566,-9,1,-27,1020,7,-1536
991,11.522152,-3,-1,-41,1017,-6,-1527
992,11.533848,-7,2,-21,1008,1,-1522
993,11.545507,-9,15,6,1019,-1,-1527
994,11.557201,1,8,8,1020,-5,-1527
995,11.56886,7,1,-11,1021,3,-1550
996,11.580527,11,13,0,1014,-1,-1520
997,11.592195,-20,3,-3,1026,-3,-1526
998,11.60386,1,5,-1,1021,0,-1532
999,11.615506,3,-5,-11,1016,-3,-1526
1000,11.627223,21,3,-25,1017,-12,-1527
1001,11.638882,-1,15,-9,1024,1,-1539
1002,11.650575,-16,20,-42,1023,2,-1542
1003,11.66223,-3,16,-24,1024,4,-1524
1004,11.673912,-8,1,-38,1016,1,-1525
1005,11.685559,-3,19,-20,1015,3,-1534
1006,11.697219,6,-13,-8,1021,1,-1534
1007,11.708873,-2,13,-2,1016,-2,-1521
1008,11.720521,-5,12,11,1016,0,-1531
1009,11.732207,-10,8,15,1011,-5,-1547
1010,11.743868,-5,-3,20,1013,3,-1530
1011,11.755514,9,2,4,1012,-2,-1524
1012,11.767208,16,-3,-15,1020,1,-1525
1013,11.77887,7,4,-43,1026,2,-1535
1014,11.790552,-19,7,12,1025,-10,-1533
1015,11.80218,7,-4,26,1018,-1,-1530
1016,11.813845,8,5,20,1028,-2,-1524
1017,11.825495,11,1,36,1009,2,-1532
1018,11.837216,6,-6,24,1011,1,-1534
1019,11.848877,8,14,6,1024,0,-1532
1020,11.860435,-10,12,34,1010,0,-1532
1021,11.872009,-2,8,19,1017,7,-1540
1022,11.883563,-13,-11,7,1021,-4,-1532
1023,11.895117,-16,-17,11,1017,-8,-1524
1024,11.90668,-14,3,12,1019,4,-1536
1025,11.918234,-12,8,28,1024,0,-1531
1026,11.929786,-10,1,44,1012,0,-1530
1027,11.941345,3,-13,44,1027,6,-1523
1028,11.952988,-8,8,-20,1011,-2,-1533
1029,11.964642,-7,6,-27,1017,9,-1530
1030,11.976313,-6,1,-26,1022,-2,-1533
1031,11.987966,-5,0,-24,1015,-10,-1531
1032,11.999618,1,-5,2,1018,0,-1536
1033,12.011284,-4,17,7,1020,-1,-1530
1034,12.022955,-12,2,12,1019,1,-1530
1035,12.03462,3,-9,12,1020,1,-1536
1036,12.046332,15,11,-5,1011,1,-1537
1037,12.057979,22,-2,0,1017,-7,-1528
1038,12.069542,15,-18,-42,1024,-2,-1543
1039,12.081114,13,-8,46,1016,4,-1546
1040,12.092672,8,-14,54,1011,-7,-1532
1041,12.104246,-33,-7,25,1021,8,-1534
1042,12.115822,0,-4,-17,1019,-1,-1529
1043,12.127418,-11,-4,-41,1021,-5,-1531
1044,12.139011,-1,9,-21,1024,0,-1529
1045,12.150629,4,1,-7,1021,0,-1524
1046,12.16231,-4,18,11,1013,0,-1532
1047,12.173976,-7,1,14,1021,0,-1528
1048,12.185633,6,-14,-10,1026,-10,-1537
1049,12.197281,9,14,-11,1020,7,-1531
1050,12.20893,-19,4,1,1025,-7,-1531
1051,12.220595,1,4,4,1022,0,-1533
1052,12.232246,14,-3,-42,1019,-1,-1539
1053,12.244125,3,21,-23,1016,0,-1541
1054,12.255813,-28,1,7,1030,5,-1533
1055,12.267472,-14,0,-51,1021,-4,-1536
1056,12.279146,-5,2,-26,1026,-8,-1540
1057,12.290835,-4,-3,-30,1022,7,-1538
1058,12.302498,9,-3,10,1018,3,-1537
1059,12.314183,-9,9,7,1018,-4,-1521
1060,12.325904,-5,-10,9,1019,-1,-1524
1061,12.337588,15,-10,-15,1021,2,-1520
1062,12.349245,5,26,-14,1021,-3,-1536
1063,12.36096,-13,1,-1,1021,1,-1540
1064,12.372634,-14,9,33,1025,-5,-1541
1065,12.384188,-6,2,46,1021,6,-1529
1066,12.395753,-2,-15,33,1015,3,-1522
1067,12.407308,29,-4,36,1014,-1,-1544
1068,12.41892,10,-8,32,1019,-2,-1535
1069,12.430468,7,-4,30,1013,-3,-1525
1070,12.442053,10,3,18,1021,-2,-1533
1071,12.453655,-3,-8,14,1029,-8,-1522
1072,12.465217,10,-3,-22,1025,1,-1544
1073,12.476838,2,-9,-5,1014,4,-1531
1074,12.488502,6,9,-9,1028,-10,-1541
1075,12.500154,-14,-16,8,1017,0,-1526
1076,12.511823,-2,3,4,1022,-2,-1534
1077,12.523487,14,0,-15,1021,7,-1539
1078,12.535134,16,6,-19,1027,4,-1529
1079,12.546842,-22,3,-48,1025,2,-1525
1080,12.558509,-5,-4,33,1016,0,-1527
1081,12.570186,6,8,-2,1024,2,-1523
1082,12.58186,7,4,35,1017,6,-1536
1083,12.593417,-7,3,15,1010,2,-1533
1084,12.604993,-1,10,-8,1019,4,-1542
1085,12.61655,1,6,-1,1028,-4,-1537
1086,12.628117,7,15,8,1021,-7,-1534
1087,12.639666,8,18,-15,1016,-3,-1540
1088,12.651228,-10,-5,-15,1030,-1,-1518
1089,12.66279,-13,-30,13,1022,-2,-1529
1090,12.674355,-24,1,-2,1018,2,-1534
1091,12.685971,-14,-3,-7,1021,-2,-1530
1092,12.697656,-13,-12,22,1015,-1,-1531
1093,12.709312,19,7,30,1022,8,-1530
1094,12.720965,1,3,-11,1024,-2,-1543
1095,12.732617,-6,5,-31,1024,0,-1535
1096,12.744277,1,1,-20,1019,14,-1526
1097,12.755926,1,5,8,1018,-2,-1526
1098,12.767592,-5,15,1,1027,-4,-1529
1099,12.77924,11,5,-21,1022,2,-1545
1100,12.790796,21,8,0,1014,1,-1532
1101,12.802378,3,15,-15,1021,-4,-1537
1102,12.813909,-11,-25,0,1019,4,-1525
1103,12.825451,-16,0,-1,1018,-8,-1522
1104,12.836999,-24,1,-4,1026,-10,-1524
1105,12.848548,-21,-12,-20,1026,3,-1529
1106,12.860128,5,1,12,1022,-6,-1541
1107,12.871674,10,24,-3,1020,-7,-1531
1108,12.88329,-10,8,-12,1026,3,-1519
1109,12.894984,-3,8,8,1013,1,-1535
1110,12.906671,5,1,-13,1034,4,-1535
1111,12.918348,8,6,-12,1020,6,-1534
1112,12.930035,-12,2,15,1010,-5,-1537
1113,12.941722,4,-8,9,1019,6,-1545
1114,12.953361,14,10,8,1023,0,-1529
1115,12.965009,8,-4,-12,1020,-5,-1520
1116,12.976701,-22,-20,15,1024,-5,-1553
1117,12.988357,-26,-3,-8,1026,5,-1533
1118,13.000008,-31,-7,-29,1016,8,-1541
1119,13.011574,-4,-3,0,1019,-7,-1522
1120,13.023164,5,16,-13,1021,0,-1534
1121,13.034742,12,8,33,1021,3,-1530
1122,13.046436,7,-11,-15,1016,-3,-1532
1123,13.057992,11,-2,10,1024,-5,-1537
1124,13.069581,8,3,6,1021,-7,-1534
1125,13.081142,9,-6,26,1019,-2,-1512
1126,13.092712,20,14,-11,1020,-1,-1546
1127,13.104283,11,31,-10,1013,-4,-1540
1128,13.115841,16,6,-14,1017,-6,-1545
1129,13.127413,-12,-27,-33,1026,4,-1527
1130,13.139032,-21,9,-31,1024,-7,-1547
1131,13.150578,-31,-6,-36,1025,7,-1535
1132,13.162146,-31,-6,-28,1021,-2,-1525
1133,13.173698,6,15,-14,1031,-4,-1526
1134,13.185263,22,1,14,1020,-6,-1535
1135,13.196881,6,7,-18,1020,0,-1532
1136,13.208527,7,1,-4,1013,5,-1535
1137,13.220201,6,2,15,1016,-5,-1540
1138,13.231862,-6,2,6,1023,-5,-1537
1139,13.243509,13,10,-13,1028,0,-1534
1140,13.255208,-7,1,-2,1008,-2,-1544
1141,13.267025,-18,-28,6,1024,-6,-1530
1142,13.278705,-19,8,-7,1026,4,-1534
1143,13.2904,1,18,-53,1018,-1,-1549
1144,13.302068,-27,-3,-24,1015,0,-1537
1145,13.313733,-1,1,-1,1010,7,-1552
1146,13.325391,30,7,19,1020,-5,-1529
1147,13.337037,-10,-16,24,1016,7,-1531
1148,13.348697,-6,5,5,1017,1,-1543
1149,13.360352,5,7,-19,1024,-7,-1537
1150,13.371996,3,9,8,1025,-4,-1541
1151,13.383645,-10,2,7,1018,6,-1527
1152,13.395343,9,17,-11,1019,2,-1527
1153,13.407031,-14,-21,5,1018,2,-1522
1154,13.418703,-10,12,16,1033,0,-1529
1155,13.430361,20,8,33,1018,1,-1523
1156,13.442052,-1,13,-45,1019,0,-1517
1157,13.453707,-23,-10,-14,1024,-4,-1536
1158,13.465359,27,9,15,1023,6,-1542
1159,13.47701,10,-13,21,1013,3,-1531
1160,13.488687,-19,20,-16,1016,1,-1535
1161,13.50035,1,1,-4,1023,-3,-1521
1162,13.512186,6,-2,-32,1024,-4,-1522
1163,13.52388,-6,3,0,1019,-2,-1536
1164,13.535441,7,5,19,1024,-3,-1532
1165,13.547022,10,13,1,1013,-6,-1542
1166,13.558581,12,-5,-18,1024,4,-1527
1167,13.570163,9,-11,13,1020,10,-1524
1168,13.581717,1,1,-3,1018,-2,-1532
1169,13.593305,22,12,-24,1018,4,-1546
1170,13.604846,27,9,5,1016,0,-1521
1171,13.616414,-3,-24,32,1011,-1,-1538
1172,13.628081,27,18,3,1017,1,-1534
1173,13.639744,26,29,23,1018,2,-1530
1174,13.6514,4,7,3,1025,0,-1535
1175,13.663084,5,-3,29,1021,0,-1527
1176,13.674737,0,0,-24,1019,2,-1540
1177,13.686425,-5,8,-30,1022,5,-1526
1178,13.698091,-2,-9,17,1020,6,-1526
1179,13.709737,3,0,3,1028,-4,-1530
1180,13.721408,-5,14,24,1019,-8,-1536
1181,13.733075,-4,-11,4,1026,-6,-1532
1182,13.744672,0,15,4,1020,1,-1544
1183,13.75624,-12,17,42,1019,7,-1544
1184,13.767781,7,-2,-50,1019,-3,-1550
1185,13.779357,16,-21,56,1025,4,-1534
1186,13.790878,-26,-8,-24,1010,6,-1533
1187,13.8024,-16,19,19,1019,8,-1534
1188,13.813975,-16,15,-31,1020,-6,-1535
1189,13.825537,-8,9,-32,1026,-8,-1545
1190,13.837236,4,-1,31,1027,-4,-1533
1191,13.848917,1,2,-6,1028,2,-1538
1192,13.860573,14,7,0,1013,-1,-1540
1193,13.872222,20,-19,14,1019,2,-1539
1194,13.883873,8,-23,-2,1017,-1,-1529
1195,13.895545,7,-11,-7,1015,0,-1537
1196,13.90721,7,21,0,1019,-2,-1537
1197,13.918873,-5,18,12,1019,-3,-1530
1198,13.93057,16,-8,-23,1019,-2,-1524
1199,13.94223,14,-6,-62,1016,2,-1528
1200,13.953907,20,12,7,1015,1,-1536
1201,13.965575,-30,2,-40,1025,-8,-1525
1202,13.977226,-19,22,-19,1018,4,-1540
1203,13.988877,-17,14,-36,1017,-1,-1529
1204,14.000554,-3,6,-20,1021,-8,-1541
1205,14.012209,16,15,25,1018,1,-1540
1206,14.02386,11,-13,24,1024,0,-1535
1207,14.03553,19,-10,27,1032,-4,-1535
1208,14.047211,21,-23,-12,1023,7,-1529
1209,14.058866,-6,-14,9,1027,-1,-1520
1210,14.07056,-7,-4,27,1021,-2,-1537
1211,14.082182,-7,-7,3,1020,-2,-1525
1212,14.093842,11,-11,4,1021,3,-1527
1213,14.105493,12,-32,12,1016,-4,-1545
1214,14.11716,-21,-20,0,1017,-1,-1526
1215,14.128811,1,-30,-38,1019,-3,-1543
1216,14.140469,30,-9,29,1019,-4,-1529
1217,14.152125,-15,4,-33,1018,-3,-1535
1218,14.163686,-17,3,-12,1025,-4,-1539
1219,14.175293,10,-36,-11,1018,3,-1524
1220,14.18691,1,39,8,1021,-5,-1538
1221,14.198476,-9,10,-15,1018,7,-1531
1222,14.210039,3,-8,-40,1014,0,-1530
1223,14.221642,-2,8,21,1022,-2,-1534
1224,14.233195,7,5,20,1015,4,-1530
1225,14.244783,11,12,-16,1023,-7,-1536
1226,14.256404,-5,8,21,1014,9,-1529
1227,14.268066,17,-6,1,1024,-8,-1530
1228,14.279723,6,-4,8,1023,-2,-1533
1229,14.291508,8,3,-18,1028,1,-1539
1230,14.303207,12,-21,-37,1013,8,-1534
1231,14.314865,-4,-19,33,1019,10,-1532
1232,14.326549,-20,-18,-5,1015,0,-1529
1233,14.338184,-21,-14,-24,1023,5,-1543
1234,14.349856,-20,-16,-6,1021,2,-1526
1235,14.361515,3,1,24,1016,-4,-1539
1236,14.373066,1,-8,3,1014,3,-1529
1237,14.38463,-4,11,-17,1021,-3,-1548
1238,14.396192,5,5,7,1017,-4,-1536
1239,14.407743,4,0,2,1028,-5,-1530
1240,14.419294,14,-16,6,1020,-9,-1539
1241,14.430904,-15,-5,8,1013,0,-1530
1242,14.442464,3,18,-6,1026,1,-1529
1243,14.45406,14,17,1,1023,-2,-1541
1244,14.465691,-20,-30,-38,1019,0,-1521
1245,14.477358,-15,1,23,1015,-6,-1505
1246,14.489022,-29,3,-33,1013,6,-1547
1247,14.500676,13,21,-2,1019,-5,-1526
1248,14.512342,27,22,41,1017,-2,-1542
1249,14.524,-3,13,-25,1018,-4,-1529
1250,14.535644,4,9,28,1025,-6,-1531
1251,14.547354,5,1,2,1015,4,-1543
1252,14.559027,-7,18,-22,1019,2,-1529
1253,14.570653,-6,24,-21,1022,4,-1544
1254,14.58221,-2,-8,12,1024,-1,-1541
1255,14.593765,7,-15,-13,1016,4,-1537
1256,14.605304,5,-17,-3,1025,-9,-1548
1257,14.616843,-4,20,16,1024,-9,-1523
1258,14.628395,-7,1,35,1021,9,-1532
1259,14.639936,10,-13,-29,1025,3,-1538
1260,14.651493,-11,11,34,1024,-1,-1533
1261,14.663064,17,18,-16,1014,-9,-1530
1262,14.674754,-7,-29,-46,1019,0,-1530
1263,14.686446,23,-13,20,1020,1,-1546
1264,14.698105,11,-13,25,1016,8,-1535
1265,14.709761,11,-6,19,1025,-5,-1535
1266,14.721452,-3,-1,-17,1017,-4,-1524
1267,14.733145,-4,-25,0,1018,-7,-1550
1268,14.744808,-12,-5,22,1019,2,-1528
1269,14.756461,-2,-19,16,1024,-6,-1534
1270,14.768126,13,-10,2,1016,-4,-1537
1271,14.77982,10,7,-45,1019,-5,-1525
1272,14.791379,8,9,12,1020,-3,-1532
1273,14.802938,-15,4,10,1022,-5,-1537
1274,14.814521,5,-16,-36,1015,0,-1536
1275,14.826074,18,-4,11,1025,-5,-1530
1276,14.837641,20,-10,-5,1021,0,-1527
1277,14.849183,32,3,47,1014,3,-1541
1278,14.860726,-5,15,5,1025,2,-1525
1279,14.87231,-7,1,-18,1021,5,-1536
1280,14.883946,10,-11,-20,1027,-2,-1529
1281,14.895606,-18,10,-25,1020,-2,-1540
1282,14.907282,-4,18,-18,1026,0,-1532
1283,14.918978,-12,29,-12,1016,2,-1530
1284,14.930674,-9,25,3,1017,4,-1526
1285,14.942331,9,3,-5,1017,-6,-1548
1286,14.953984,14,18,-30,1020,-5,-1539
1287,14.965659,5,14,5,1026,-6,-1525
1288,14.977337,2,12,1,1016,0,-1534
1289,14.989,20,32,4,1015,1,-1525
1290,15.000561,-23,0,19,1017,1,-1529
1291,15.012133,-6,-24,-34,1021,3,-1531
1292,15.023695,29,0,51,1014,3,-1537
1293,15.03526,-11,15,31,1017,-8,-1544
1294,15.046809,-7,26,-1,1021,1,-1528
1295,15.058384,16,6,8,1019,0,-1530
1296,15.069909,-5,23,-10,1031,1,-1532
1297,15.081472,-13,-24,-1,1013,5,-1543
1298,15.09314,-3,12,-9,1019,3,-1537
1299,15.104822,-5,-1,16,1008,0,-1534
1300,15.116481,3,10,2,1020,-2,-1539
1301,15.12813,13,17,0,1015,3,-1535
1302,15.139786,11,7,6,1021,-10,-1534
1303,15.151473,5,22,-12,1022,-3,-1529
1304,15.163133,11,30,-15,1014,1,-1531
1305,15.174819,15,33,-5,1019,-6,-1532
1306,15.186501,27,24,9,1023,-5,-1538
1307,15.198159,5,-19,51,1020,2,-1543
1308,15.209721,27,8,21,1016,-1,-1536
1309,15.221277,-12,4,-19,1022,3,-1530
1310,15.232824,-10,-31,-4,1017,-4,-1522
1311,15.244394,5,-29,-26,1022,3,-1544
1312,15.255935,2,1,1,1018,-2,-1520
1313,15.267485,-9,7,-35,1018,1,-1547
1314,15.279037,0,17,34,1026,7,-1530
1315,15.290623,5,4,3,1016,-6,-1531
1316,15.302259,-12,19,18,1018,0,-1537
1317,15.313916,4,-14,0,1020,1,-1524
1318,15.325614,-7,-26,6,1019,-9,-1527
1319,15.33728,0,-22,33,1020,-1,-1536
1320,15.348932,-10,-21,-33,1023,-1,-1544
1321,15.36058,8,-12,66,1021,3,-1540
1322,15.372236,-2,-19,49,1020,-3,-1546
1323,15.383876,-32,-17,-25,1018,0,-1528
1324,15.395564,-25,-21,-26,1016,3,-1518
1325,15.407226,-6,-4,-9,1023,-1,-1551
1326,15.418794,11,6,28,1019,-8,-1540
1327,15.430372,-9,-2,-52,1023,5,-1531
1328,15.44191,4,3,49,1023,-1,-1524
1329,15.453494,13,-28,17,1019,-2,-1530
1330,15.465045,13,-25,-2,1011,-1,-1529
1331,15.476629,12,-16,3,1017,-3,-1538
1332,15.488178,-7,-14,-4,1020,-8,-1529
1333,15.499767,-10,9,14,1018,5,-1529
1334,15.511439,-11,1,17,1014,-2,-1531
1335,15.523108,-14,5,33,1012,-7,-1530
1336,15.534769,-16,10,-9,1017,-10,-1530
1337,15.546439,-22,18,-33,1021,-2,-1539
1338,15.558098,-26,10,-19,1017,7,-1534
1339,15.569742,11,-2,35,1024,-6,-1531
1340,15.581455,7,10,29,1015,-5,-1525
1341,15.593112,8,-5,24,1021,3,-1539
1342,15.604773,0,5,-2,1026,1,-1544
1343,15.616431,12,-21,-11,1024,-4,-1538
1344,15.627992,4,-17,-10,1014,0,-1541
1345,15.639551,9,11,-8,1020,-5,-1541
1346,15.651142,-9,12,15,1030,-2,-1535
1347,15.662715,-3,-5,-12,1025,0,-1524
1348,15.674282,-17,7,10,1025,0,-1524
1349,15.685829,-4,8,22,1020,-2,-1534
1350,15.697377,2,-1,45,1021,-3,-1539
1351,15.708935,12,-15,54,1025,-13,-1537
1352,15.720562,-1,10,-9,1021,-5,-1529
1353,15.732217,-4,11,-17,1014,1,-1521
1354,15.743886,-1,4,-37,1014,-8,-1537
1355,15.755557,-1,0,28,1015,-3,-1529
1356,15.76722,7,-16,-14,1016,3,-1520
1357,15.778881,1,10,6,1014,0,-1544
1358,15.790562,-12,-4,2,1029,-9,-1525
1359,15.802219,22,5,-10,1017,-5,-1550
1360,15.813874,-10,-2,-11,1021,-5,-1525
1361,15.825557,-15,6,13,1009,4,-1526
1362,15.837132,-2,8,20,1022,1,-1534
1363,15.848674,18,-3,21,1011,-2,-1542
1364,15.860213,34,1,42,1016,3,-1522
1365,15.871762,-8,9,-37,1018,1,-1535
1366,15.883349,1,3,-11,1023,0,-1529
1367,15.894881,-8,-3,-29,1020,1,-1537
1368,15.906438,1,6,-20,1026,6,-1532
1369,15.918037,8,-2,-4,1024,3,-1538
1370,15.929685,-2,20,9,1018,-14,-1541
1371,15.941343,-10,7,13,1020,-4,-1522
1372,15.95299,8,-6,-7,1021,0,-1548
1373,15.964634,4,-21,26,1027,-9,-1539
1374,15.976307,12,-3,-10,1021,-8,-1545
1375,15.98795,1,3,2,1015,-1,-1531
1376,15.999601,-14,-7,32,1020,-15,-1531
1377,16.011253,27,-2,42,1020,2,-1534
1378,16.022954,6,12,-26,1016,-5,-1534
1379,16.034643,-6,6,-20,1020,0,-1534
1380,16.046226,-1,5,-4,1020,-3,-1526
1381,16.057768,-10,7,-16,1017,2,-1539
1382,16.069311,0,3,-4,1022,4,-1532
1383,16.080858,-3,19,10,1019,-3,-1526
1384,16.092404,-12,-7,20,1017,-4,-1545
1385,16.103945,-8,-13,24,1016,5,-1533
1386,16.115496,14,10,0,1019,10,-1543
1387,16.127066,7,-5,-8,1015,-8,-1537
1388,16.138701,-13,5,20,1016,-2,-1536
1389,16.150371,-3,-2,40,1022,0,-1525
1390,16.162063,28,-2,51,1026,0,-1535
1391,16.173732,30,10,37,1019,2,-1533
1392,16.185407,1,6,-24,1023,6,-1537
1393,16.197053,-10,8,-24,1028,3,-1536
1394,16.20871,7,-6,-9,1018,-5,-1543
1395,16.220386,5,-7,8,1018,-12,-1528
1396,16.232064,-5,-8,-8,1026,-6,-1528
1397,16.243717,16,-5,-23,1020,4,-1541
1398,16.25528,15,14,-13,1021,1,-1544
1399,16.266862,0,7,-10,1018,-3,-1529
1400,16.278396,-14,-30,-4,1025,-10,-1525
1401,16.289978,-13,5,7,1023,-1,-1529
1402,16.301526,-26,10,-18,1011,-1,-1534
1403,16.313112,-24,0,-22,1015,0,-1525
1404,16.324659,-12,-9,-23,1020,1,-1543
1405,16.33622,-12,8,-38,1025,-7,-1533
1406,16.347856,-2,2,5,1013,-3,-1534
1407,16.359535,-6,7,0,1023,-1,-1532
1408,16.371208,-2,3,-15,1016,-5,-1546
1409,16.382872,4,-9,-9,1023,4,-1533
1410,16.394563,-13,12,14,1026,0,-1540
1411,16.406205,16,-4,1,1017,1,-1529
1412,16.417856,14,21,-14,1016,-3,-1539
1413,16.429529,14,-1,-15,1023,-6,-1534
1414,16.441199,-4,7,-35,1023,-7,-1524
1415,16.452902,-7,16,-40,1023,-6,-1537
1416,16.46449,-33,-4,-41,1024,2,-1535
1417,16.476034,-24,-3,-37,1020,5,-1535
1418,16.487587,-3,23,-21,1021,-4,-1543
1419,16.499123,-3,10,-36,1024,-1,-1518
1420,16.510679,5,1,-8,1020,-2,-1529
1421,16.522277,6,-1,-4,1021,-8,-1535
1422,16.533919,11,2,-7,1019,0,-1527
1423,16.54555,7,1,-7,1018,0,-1527
1424,16.557256,-6,19,-13,1018,-2,-1535
1425,16.568931,-9,-18,-5,1023,-17,-1539
1426,16.580588,-11,4,19,1020,2,-1529
1427,16.592263,33,13,21,1024,0,-1526
1428,16.603924,23,7,-3,1026,-4,-1520
1429,16.615572,-20,11,-45,1020,-1,-1540
1430,16.627212,-28,-13,-25,1009,-6,-1533
1431,16.638897,-20,6,-22,1023,0,-1518
1432,16.650588,-7,5,-11,1026,0,-1522
1433,16.662309,1,7,-11,1024,0,-1538
1434,16.673894,4,-3,-7,1026,-4,-1534
1435,16.685443,5,1,-18,1021,0,-1537
1436,16.696992,15,8,30,1020,-2,-1533
1437,16.708542,-17,-19,17,1019,-6,-1531
1438,16.720127,-11,-24,21,1013,-8,-1520
1439,16.731683,-15,9,19,1017,0,-1525
1440,16.743258,-10,18,8,1021,1,-1532
1441,16.75483,-27,-3,-18,1018,-8,-1534
1442,16.766447,-21,-11,-13,1017,-1,-1539
1443,16.778128,-7,-5,-2,1017,0,-1537
1444,16.7898,-22,8,-16,1021,-3,-1531
1445,16.801449,17,6,-23,1023,3,-1539
1446,16.813097,5,-2,0,1028,-1,-1538
1447,16.824772,5,4,15,1020,-3,-1542
1448,16.836426,-6,8,17,1014,3,-1539
1449,16.848077,-5,2,-12,1031,5,-1529
1450,16.859743,-12,8,0,1021,3,-1539
1451,16.871422,-14,-18,9,1020,3,-1536
1452,16.883013,-11,18,19,1019,6,-1534
1453,16.894568,9,22,32,1021,3,-1535
1454,16.906146,-5,-9,13,1013,-10,-1530
1455,16.917735,-11,0,6,1021,4,-1523
1456,16.929286,-16,4,-19,1024,-1,-1532
1457,16.940867,4,24,-11,1016,-3,-1530
1458,16.952413,19,13,-2,1013,-9,-1527
1459,16.963965,3,8,0,1024,2,-1528
1460,16.975576,2,-6,-29,1015,-2,-1532
1461,16.987235,-10,2,14,1023,-6,-1548
1462,16.998886,14,1,5,1019,-5,-1539
1463,17.01056,8,-23,6,1019,2,-1527
1464,17.022182,19,24,5,1016,0,-1524
1465,17.03384,12,-9,-26,1022,-1,-1531
1466,17.045514,-11,-11,-30,1031,-2,-1532
1467,17.057181,-22,8,-43,1014,-6,-1521
1468,17.068852,-23,-10,-25,1014,-2,-1528
1469,17.08054,-17,0,-36,1027,-2,-1521
1470,17.092122,3,27,-7,1024,-4,-1543
1471,17.103673,26,23,4,1028,2,-1529
1472,17.115249,-1,4,-3,1018,0,-1546
1473,17.126796,13,-1,-5,1022,7,-1532
1474,17.138401,10,-5,-12,1021,4,-1532
1475,17.14995,15,4,-1,1029,-9,-1527
1476,17.161498,15,4,-25,1017,1,-1534
1477,17.173076,-7,-2,15,1011,1,-1521
1478,17.184705,-19,7,8,1027,-1,-1533
1479,17.196409,15,17,37,1017,0,-1524
1480,17.20806,15,-7,18,1013,4,-1522
1481,17.219714,-18,7,-30,1015,2,-1521
1482,17.231399,-14,1,-7,1027,-3,-1544
1483,17.243082,27,21,5,1018,-4,-1544
1484,17.254752,-2,-30,12,1027,2,-1540
1485,17.266438,-9,-4,10,1022,2,-1528
1486,17.278125,-9,3,3,1018,4,-1540
1487,17.2898,1,-3,-3,1018,4,-1528
1488,17.301357,9,2,-1,1016,4,-1536
1489,17.312908,-8,-4,29,1018,8,-1524
1490,17.324487,17,37,5,1017,1,-1531
1491,17.336037,13,-14,-17,1011,8,-1536
1492,17.347612,-24,2,-29,1023,-13,-1525
1493,17.359158,-23,13,-39,1023,1,-1522
1494,17.370746,-4,20,-38,1021,-4,-1533
1495,17.382337,-32,-14,-26,1021,-10,-1520
1496,17.39391,2,-23,7,1019,6,-1542
1497,17.405492,-17,-7,9,1015,-7,-1546
1498,17.417033,-6,24,4,1016,2,-1529
1499,17.428577,9,7,5,1014,-1,-1533
1500,17.440131,3,4,0,1014,-3,-1548
1501,17.451697,17,10,0,1020,3,-1529
1502,17.463256,3,-4,-6,1023,-6,-1534
1503,17.474855,-17,-4,1,1013,4,-1522
1504,17.486457,10,37,25,1014,-3,-1535
1505,17.498089,6,-14,-9,1023,-2,-1537
1506,17.509788,-15,-1,-18,1020,7,-1524
1507,17.521451,-10,12,-10,1015,-1,-1526
1508,17.533104,-6,10,-7,1015,-2,-1526
1509,17.544786,25,5,9,1022,6,-1543
1510,17.556436,10,-23,15,1022,1,-1524
1511,17.568125,-8,8,18,1025,-3,-1543
1512,17.579782,0,-2,-2,1018,-10,-1535
1513,17.591476,15,3,8,1026,5,-1536
1514,17.603176,5,4,13,1016,0,-1537
1515,17.614827,-6,-5,26,1024,9,-1536
1516,17.626505,11,10,4,1017,1,-1527
1517,17.638183,-9,24,23,1017,6,-1544
1518,17.649824,26,0,37,1017,0,-1526
1519,17.661474,11,-14,5,1021,-1,-1532
1520,17.673151,-10,11,-22,1017,6,-1515
1521,17.684794,3,10,-3,1023,-4,-1533
1522,17.696469,17,-14,22,1021,11,-1540
1523,17.708145,-15,25,-8,1026,5,-1538
1524,17.71981,8,5,1,1007,3,-1533
1525,17.731461,2,3,-3,1028,-4,-1532
1526,17.743153,-5,1,0,1029,3,-1531
1527,17.754822,-7,-1,6,1015,-2,-1530
1528,17.766501,1,8,3,1023,-7,-1541
1529,17.77818,11,4,0,1027,0,-1544
1530,17.789818,28,11,22,1020,-7,-1539
1531,17.801468,3,21,10,1025,3,-1534
1532,17.813027,18,-5,32,1021,-2,-1545
1533,17.824625,4,-8,17,1023,-3,-1532
1534,17.836173,14,-19,7,1023,-2,-1527
1535,17.847733,-16,-16,0,1019,-4,-1527
1536,17.85928,-8,27,3,1019,-2,-1531
1537,17.870873,-3,11,-1,1011,-7,-1542
1538,17.882406,7,-7,-9,1011,-9,-1536
1539,17.893956,12,1,-4,1017,-4,-1534
1540,17.905513,7,1,0,1012,3,-1536
1541,17.917222,-10,6,8,1018,5,-1536
1542,17.928922,-15,15,1,1019,-4,-1536
1543,17.94057,16,-6,-21,1034,2,-1539
1544,17.952221,27,-4,27,1030,-7,-1530
1545,17.963897,-15,6,-26,1020,5,-1527
1546,17.975555,-1,5,-18,1014,-4,-1534
1547,17.987214,-2,2,0,1022,-7,-1526
1548,17.99892,10,-31,13,1018,0,-1533
1549,18.010589,-8,-13,7,1017,-2,-1528
1550,18.022285,-1,22,16,1016,0,-1523
1551,18.033865,-6,21,5,1020,4,-1538
1552,18.045416,-7,-2,7,1030,4,-1529
1553,18.056984,-11,0,18,1026,-2,-1531
1554,18.068532,1,3,22,1020,5,-1536
1555,18.080104,6,7,-12,1018,0,-1529
1556,18.091646,11,-6,-27,1020,-8,-1536
1557,18.103201,-14,11,-28,1014,-5,-1544
1558,18.114775,-5,10,3,1028,-4,-1535
1559,18.126421,8,-3,22,1025,-5,-1539
1560,18.138083,2,-2,4,1022,-2,-1546
1561,18.149753,10,-20,6,1028,-6,-1535
1562,18.161411,-5,20,-1,1025,-5,-1543
1563,18.173089,5,-3,5,1026,4,-1534
1564,18.184757,14,-4,-17,1012,-1,-1518
1565,18.196415,2,4,14,1033,-1,-1527
1566,18.208064,6,3,-21,1019,0,-1540
1567,18.219728,-17,-5,-2,1023,1,-1537
1568,18.231403,-12,5,14,1020,-1,-1524
1569,18.242996,2,0,26,1021,-5,-1545
1570,18.254597,-20,7,-29,1015,-3,-1531
1571,18.266168,-1,22,-9,1021,-2,-1549
1572,18.277721,5,-10,37,1025,-12,-1526
1573,18.28928,5,2,4,1019,-4,-1531
1574,18.30087,9,-5,15,1025,-2,-1539
1575,18.31242,-10,18,4,1019,10,-1521
1576,18.323979,4,-11,5,1019,0,-1532
1577,18.338242,-9,-2,4,1018,-5,-1535
1578,18.349925,15,12,-6,1016,1,-1535
1579,18.361584,-11,-7,13,1017,3,-1533
1580,18.373257,-4,10,5,1023,-1,-1539
1581,18.38492,-1,-19,-19,1021,5,-1529
1582,18.396588,-21,13,-25,1021,-1,-1540
1583,18.408253,9,1,27,1018,-3,-1548
1584,18.419916,9,3,25,1025,5,-1529
1585,18.431594,11,1,31,1025,-6,-1550
1586,18.443285,0,-23,8,1024,3,-1519
1587,18.454874,5,-17,20,1027,-2,-1529
1588,18.466397,-11,20,13,1017,1,-1523
1589,18.477983,3,-4,7,1024,5,-1554
1590,18.48953,7,-5,0,1016,0,-1528
1591,18.50108,11,1,4,1020,-3,-1550
1592,18.512624,1,4,-6,1030,-1,-1546
1593,18.5242,-19,5,-3,1013,-3,-1535
1594,18.535764,2,8,16,1019,1,-1541
1595,18.547409,-26,0,-45,1011,0,-1530
1596,18.559081,15,7,40,1016,-5,-1537
1597,18.57076,7,-6,15,1023,3,-1539
1598,18.582428,0,6,1,1019,-3,-1532
1599,18.594086,17,12,0,1022,-1,-1527
1600,18.605755,-3,-9,-2,1018,3,-1535
1601,18.61741,-11,22,5,1020,5,-1526
1602,18.629084,-3,-3,2,1011,-2,-1541
1603,18.640772,7,2,-3,1025,2,-1542
1604,18.652426,5,5,-9,1017,-1,-1543
1605,18.663982,-14,0,7,1026,-4,-1541
1606,18.675544,-4,8,3,1027,-6,-1535
1607,18.687119,12,0,-12,1019,0,-1541
1608,18.698676,-14,18,-17,1023,-7,-1545
1609,18.710235,14,-2,27,1020,-3,-1543
1610,18.72178,7,-6,35,1026,-5,-1521
1611,18.733326,9,6,17,1025,-5,-1528
1612,18.744884,6,4,30,1028,-3,-1535
1613,18.756519,10,2,-8,1021,2,-1536
1614,18.768179,-3,7,-3,1022,0,-1526
1615,18.779834,-2,9,11,1026,5,-1530
1616,18.79151,11,-12,-29,1017,7,-1526
1617,18.803229,4,-3,5,1019,-2,-1532
1618,18.81493,0,7,-4,1022,1,-1541
1619,18.826606,2,23,8,1018,4,-1534
1620,18.838293,17,-2,2,1025,1,-1538
1621,18.849935,-31,-6,-36,1021,-3,-1540
1622,18.861611,-4,-15,-23,1015,4,-1537
1623,18.873194,20,-9,28,1023,3,-1521
1624,18.884747,5,8,31,1023,-1,-1539
1625,18.896318,-6,-6,-31,1017,4,-1553
1626,18.907875,0,35,-12,1024,-2,-1539
1627,18.919446,-6,35,-19,1018,0,-1530
1628,18.931004,10,-22,19,1025,-5,-1525
1629,18.942598,-10,30,-2,1021,5,-1532
1630,18.954166,-18,4,-6,1011,-1,-1532
1631,18.965788,4,6,-15,1024,-12,-1548
1632,18.97745,-12,8,24,1015,3,-1533
1633,18.989097,-15,-5,14,1017,-3,-1518
1634,19.000794,-12,11,28,1021,0,-1529
1635,19.012446,5,31,15,1019,-7,-1535
1636,19.024093,7,31,24,1025,-5,-1536
1637,19.035787,-24,-1,-35,1014,-5,-1536
1638,19.047647,-18,9,-57,1023,2,-1534
1639,19.059443,-21,-17,-23,1018,-6,-1516
1640,19.071017,20,14,24,1025,5,-1536
1641,19.082635,-8,-31,-8,1024,1,-1540
1642,19.094154,1,-42,17,1018,-5,-1551
1643,19.105707,17,-4,-16,1021,-1,-1527
1644,19.117263,-8,1,-6,1016,-10,-1526
1645,19.128812,-3,10,5,1019,-3,-1544
1646,19.140363,2,7,32,1020,-2,-1541
1647,19.151943,9,9,5,1019,-12,-1529
1648,19.163508,-5,20,20,1015,1,-1536
1649,19.175154,16,29,-21,1025,0,-1534
1650,19.186829,27,39,-4,1022,-5,-1534
1651,19.198495,24,33,-7,1023,-4,-1540
1652,19.210168,15,21,-49,1017,-11,-1550
1653,19.221824,-31,8,-60,1019,0,-1546
1654,19.233467,-29,-7,-46,1006,-4,-1536
1655,19.245112,-26,-21,-20,1019,7,-1528
1656,19.256781,-21,3,-19,1022,-8,-1539
1657,19.268426,-1,9,-19,1015,-3,-1544
1658,19.280028,-6,15,28,1010,-1,-1537
1659,19.291596,9,2,12,1017,-9,-1526
1660,19.303119,8,8,-13,1010,-3,-1535
1661,19.314636,9,1,10,1019,2,-1543
1662,19.326156,0,19,19,1011,-7,-1526
1663,19.337725,-12,15,16,1017,-1,-1537
1664,19.349278,21,24,-7,1020,4,-1538
1665,19.36086,14,32,-7,1015,-6,-1522
1666,19.372431,-16,12,-18,1029,5,-1535
1667,19.384055,1,-20,58,1020,-1,-1526
1668,19.395706,-26,-14,-7,1020,0,-1522
1669,19.407362,-12,-9,-24,1021,0,-1529
1670,19.41906,-23,-27,44,1028,2,-1529
1671,19.430702,8,-3,26,1014,-4,-1536
1672,19.442425,-2,-5,0,1023,-4,-1545
1673,19.454084,-8,5,-18,1010,-1,-1528
1674,19.465739,1,20,34,1017,5,-1532
1675,19.477433,13,10,-6,1017,-6,-1538
1676,19.48911,9,1,-4,1016,0,-1532
1677,19.500672,-2,22,0,1017,1,-1538
1678,19.512235,14,4,-3,1023,-5,-1538
1679,19.523779,16,2,22,1018,-2,-1517
1680,19.535355,16,0,0,1030,3,-1540
1681,19.546927,-4,-1,51,1016,1,-1530
1682,19.5585,-21,2,14,1019,2,-1528
1683,19.570087,-24,16,-40,1022,-4,-1534
1684,19.581647,18,-15,30,1018,2,-1544
1685,19.593274,18,-12,48,1019,-5,-1532
1686,19.604928,1,-1,20,1013,9,-1536
1687,19.616587,-4,-6,-8,1020,0,-1526
1688,19.628241,-3,27,-23,1018,-5,-1540
1689,19.6399,-7,30,-27,1017,0,-1540
1690,19.651586,-14,20,4,1013,-4,-1540
1691,19.663206,-8,17,17,1017,3,-1541
1692,19.674862,-6,7,11,1027,1,-1514
1693,19.686572,15,8,-10,1017,1,-1532
1694,19.698238,12,8,-18,1013,-8,-1521
1695,19.709842,1,11,27,1025,2,-1536
1696,19.721399,-7,8,55,1014,7,-1540
1697,19.732977,35,12,46,1017,6,-1546
1698,19.744647,12,17,23,1020,-6,-1549
1699,19.756202,9,19,15,1021,-3,-1530
1700,19.767757,-11,6,-36,1017,-2,-1536
1701,19.779356,-8,11,-30,1027,-3,-1540
1702,19.790934,14,20,21,1018,-1,-1529
1703,19.802569,16,26,12,1031,5,-1537
1704,19.814243,23,-10,20,1029,-2,-1533
1705,19.825921,3,-29,10,1011,4,-1528
1706,19.837572,9,-4,-27,1017,4,-1532
1707,19.849225,6,2,-25,1025,-6,-1540
1708,19.8609,13,19,-17,1019,-3,-1532
1709,19.87255,7,22,-4,1020,0,-1535
1710,19.884204,14,-18,20,1011,0,-1527
1711,19.895901,-27,-9,33,1024,-11,-1516
1712,19.907555,-31,5,-2,1015,0,-1544
1713,19.919122,-19,3,-41,1022,-4,-1540
1714,19.930635,-2,-5,-7,1021,-14,-1540
1715,19.942176,-7,-27,-15,1019,3,-1552
1716,19.953728,23,35,31,1026,-2,-1537
1717,19.965276,-7,23,-38,1019,-8,-1521
1718,19.976828,0,-28,25,1021,-3,-1530
1719,19.988377,3,-28,12,1014,-1,-1522
1720,19.999966,-4,-2,12,1013,-3,-1541
1721,20.011585,-5,-7,26,1015,-3,-1542
1722,20.02323,2,1,19,1017,3,-1540
1723,20.034925,-10,-8,29,1027,-4,-1527
1724,20.046586,21,24,-16,1018,0,-1532
1725,20.058262,27,36,-11,1015,-1,-1535
1726,20.069931,25,26,-19,1013,-4,-1527
1727,20.081582,31,23,44,1021,5,-1526
1728,20.093254,29,-24,-14,1021,-9,-1530
1729,20.10492,-13,-6,6,1019,-9,-1536
1730,20.116603,13,-11,15,1034,1,-1539
1731,20.128163,17,24,18,1018,-2,-1540
1732,20.139716,19,28,27,1020,-5,-1531
1733,20.151279,-13,1,-36,1022,-1,-1531
1734,20.162887,1,9,-15,1026,-5,-1529
1735,20.174521,0,-7,1,1025,6,-1531
1736,20.186089,-4,8,19,1015,-3,-1529
1737,20.197645,13,8,5,1025,5,-1527
1738,20.209207,18,11,-13,1024,-7,-1542
1739,20.220887,23,2,-8,1015,-4,-1535
1740,20.23258,-6,-24,15,1023,1,-1527
1741,20.24426,-14,-8,25,1019,-1,-1531
1742,20.255903,20,4,-25,1021,-13,-1546
1743,20.267562,-5,-23,31,1010,0,-1546
1744,20.279238,-18,-19,-15,1021,0,-1526
1745,20.290937,-27,-15,-14,1026,3,-1527
1746,20.302602,9,-10,33,1018,-4,-1532
1747,20.314297,-12,9,-17,1017,7,-1543
1748,20.325848,13,-3,43,1033,2,-1525
1749,20.337407,-5,-7,-43,1016,1,-1535
1750,20.34897,-4,3,-10,1019,2,-1529
1751,20.360512,-7,19,1,1019,-1,-1541
1752,20.372055,-2,6,-2,1023,-2,-1535
1753,20.383598,9,-15,-17,1018,-7,-1529
1754,20.395115,-16,-19,21,1024,-6,-1530
1755,20.406706,12,19,18,1020,-4,-1526
1756,20.418295,8,-11,-63,1028,-5,-1522
1757,20.429968,12,-4,51,1012,-2,-1531
1758,20.441642,-4,-25,49,1022,-4,-1529
1759,20.453299,-3,-28,39,1023,2,-1538
1760,20.464965,-11,2,-47,1019,-5,-1532
1761,20.476624,-3,-3,-25,1024,1,-1541
1762,20.488311,10,1,35,1022,-3,-1524
1763,20.499983,-5,4,-2,1023,1,-1537
1764,20.511668,12,-22,42,1017,-9,-1531
1765,20.523338,-5,27,-10,1017,-3,-1534
1766,20.534885,-11,25,12,1025,4,-1537
1767,20.546469,2,4,-10,1018,4,-1535
1768,20.558037,0,-19,-16,1016,0,-1538
1769,20.569593,20,9,-11,1021,-4,-1545
1770,20.581136,-11,13,17,1020,0,-1530
1771,20.592678,-10,16,20,1021,2,-1528
1772,20.604233,-5,18,-42,1019,0,-1534
1773,20.615821,8,22,7,1023,4,-1529
1774,20.627437,-24,-6,-43,1019,0,-1534
1775,20.639116,-7,-8,-23,1021,-3,-1529
1776,20.650769,14,-7,12,1023,-12,-1530
1777,20.662435,6,3,-6,1019,-2,-1534
1778,20.674105,-5,19,-25,1024,3,-1537
1779,20.685766,-12,28,-11,1021,3,-1528
1780,20.697411,9,30,-28,1020,1,-1540
1781,20.709063,-3,32,-11,1020,-6,-1540
1782,20.720721,4,2,17,1014,-2,-1542
1783,20.732379,14,11,-27,1020,0,-1534
1784,20.744034,12,-2,-12,1019,2,-1535
1785,20.755683,19,-8,-34,1022,3,-1541
1786,20.767343,13,-21,12,1016,2,-1542
1787,20.779021,-27,5,14,1015,2,-1534
1788,20.790692,-31,-10,-29,1018,1,-1532
1789,20.802357,-27,8,-44,1022,-7,-1558
1790,20.814049,-13,23,14,1022,0,-1537
1791,20.825755,15,-5,9,1012,1,-1537
1792,20.83742,12,44,18,1018,5,-1532
1793,20.848975,-16,-16,-11,1011,-5,-1544
1794,20.860537,5,-31,8,1020,-5,-1535
1795,20.872092,1,-4,-25,1016,0,-1536
1796,20.883633,7,-3,-18,1019,3,-1527
1797,20.895188,19,-1,11,1023,-3,-1511
1798,20.906759,-15,-4,19,1027,-7,-1522
1799,20.918359,0,3,14,1016,0,-1530
1800,20.929926,-27,-23,-2,1017,-3,-1530
1801,20.941533,3,23,27,1022,-5,-1527
1802,20.953193,10,-14,5,1020,-5,-1537
1803,20.964843,-7,14,-10,1026,6,-1515
1804,20.976512,13,1,7,1026,-9,-1534
1805,20.988168,-4,20,-12,1021,1,-1527
1806,20.999813,10,-15,18,1014,-4,-1534
1807,21.011462,-5,18,1,1024,1,-1546
1808,21.023146,8,-13,4,1017,6,-1535
1809,21.034811,-6,14,9,1019,2,-1524
1810,21.046398,-11,1,-7,1019,-6,-1527
1811,21.057968,14,11,-17,1020,-6,-1536
1812,21.069546,5,0,-15,1020,-6,-1535
1813,21.081101,-21,-5,4,1020,-6,-1527
1814,21.092651,18,15,26,1014,-3,-1525
1815,21.104213,11,-6,13,1017,8,-1536
1816,21.115764,-11,5,-23,1025,-2,-1537
1817,21.127349,-8,3,-26,1021,-1,-1529
1818,21.13889,16,-14,12,1028,-9,-1534
1819,21.150515,-16,14,-2,1020,-8,-1529
1820,21.162185,12,-15,-3,1016,-3,-1536
1821,21.173865,-4,5,11,1021,2,-1522
1822,21.185526,11,-5,8,1018,3,-1531
1823,21.19718,-10,0,13,1024,1,-1537
1824,21.208856,-4,1,17,1027,-8,-1527
1825,21.22051,10,-1,11,1019,1,-1529
1826,21.232188,-5,6,-22,1030,5,-1535
1827,21.243887,-8,11,-4,1019,-1,-1535
1828,21.255553,17,-14,32,1019,-7,-1525
1829,21.267133,5,-6,23,1023,-9,-1543
1830,21.278716,18,0,39,1016,-2,-1524
1831,21.290279,-13,-20,4,1025,-6,-1535
1832,21.301839,-7,22,-6,1020,-5,-1530
1833,21.313384,0,9,15,1024,4,-1543
1834,21.324945,10,-7,-8,1028,1,-1554
1835,21.336492,6,8,2,1016,0,-1532
1836,21.348071,-9,-4,28,1027,-2,-1526
1837,21.359716,1,2,4,1023,2,-1521
1838,21.37138,13,-6,6,1018,5,-1537
1839,21.383065,-9,16,19,1019,1,-1526
1840,21.394707,13,-12,12,1026,-1,-1531
1841,21.406374,-13,18,-39,1016,5,-1532
1842,21.418048,8,-9,28,1016,-5,-1534
1843,21.429718,4,1,23,1019,0,-1530
1844,21.441382,2,26,-7,1013,-3,-1543
1845,21.453035,15,-33,14,1016,1,-1546
1846,21.464599,4,1,-15,1019,2,-1530
1847,21.476179,-10,1,18,1025,-2,-1527
1848,21.487725,-6,15,16,1026,1,-1537
1849,21.499317,-6,-3,12,1027,-5,-1535
1850,21.510874,19,0,-5,1017,3,-1537
1851,21.522396,0,12,16,1016,-2,-1522
1852,21.533948,-14,1,32,1022,10,-1523
1853,21.545495,20,-5,48,1026,-5,-1534
1854,21.557049,-14,10,-30,1018,1,-1527
1855,21.568668,13,-3,16,1024,-4,-1518
1856,21.58032,-1,1,17,1015,0,-1530
1857,21.592019,-1,4,0,1021,3,-1534
1858,21.603669,-1,3,2,1012,-6,-1525
1859,21.615339,0,3,3,1025,-5,-1516
1860,21.627017,15,20,-10,1015,-2,-1538
1861,21.638702,-19,5,14,1024,-2,-1518
1862,21.650373,20,2,0,1017,-10,-1524
1863,21.662075,-14,-7,8,1017,3,-1526
1864,21.673751,-6,3,3,1024,-1,-1531
1865,21.685342,21,6,7,1016,4,-1540
1866,21.696899,13,-12,37,1023,2,-1548
1867,21.708468,-3,10,-22,1018,-2,-1531
1868,21.720016,-6,9,-21,1016,0,-1540
1869,21.731569,-6,2,-31,1019,4,-1533
1870,21.743123,-8,0,-29,1029,1,-1541
1871,21.754697,9,0,15,1027,0,-1522
1872,21.766288,3,-15,-3,1021,-3,-1544
1873,21.777924,8,7,-4,1021,-3,-1539
1874,21.789602,-15,1,17,1029,0,-1531
1875,21.80126,9,16,-11,1021,0,-1527
1876,21.81291,-10,11,14,1027,0,-1544
1877,21.824571,8,-6,-24,1017,-4,-1524
1878,21.83624,-17,15,-11,1013,-3,-1548
1879,21.847894,25,1,38,1024,3,-1540
1880,21.859548,5,6,-2,1021,-6,-1545
1881,21.871236,1,7,23,1018,-12,-1535
1882,21.882905,5,7,8,1015,-1,-1534
1883,21.894583,-1,5,9,1024,3,-1531
1884,21.906252,-5,2,-16,1023,6,-1536
1885,21.917922,-6,4,24,1018,0,-1545
1886,21.929569,17,3,-18,1014,0,-1539
1887,21.941253,-19,1,6,1022,-10,-1524
1888,21.952912,17,11,6,1023,-9,-1529
1889,21.964607,10,-6,-10,1027,-5,-1539
1890,21.976335,-2,7,45,1019,-2,-1534
1891,21.988002,17,-9,37,1023,-9,-1535
1892,21.999566,30,20,26,1018,0,-1530
1893,22.011125,-5,1,-26,1034,-3,-1527
1894,22.022705,-6,-1,-15,1018,-4,-1518
1895,22.034277,1,4,-27,1010,-2,-1526
1896,22.045832,5,4,-6,1010,4,-1524
1897,22.057375,-2,0,12,1021,0,-1534
1898,22.068935,9,-2,-18,1023,-6,-1534
1899,22.080495,-15,20,27,1017,6,-1528
1900,22.092112,14,-9,3,1029,11,-1541
1901,22.103775,-1,12,28,1018,3,-1531
1902,22.115483,13,-4,-2,1021,10,-1532
1903,22.127138,-10,-10,46,1020,2,-1527
1904,22.138813,27,2,14,1023,1,-1538
1905,22.150494,-28,2,-35,1021,-4,-1539
1906,22.162166,13,13,37,1016,-1,-1531
1907,22.173827,8,2,25,1021,1,-1544
1908,22.185492,-3,14,12,1014,0,-1525
1909,22.197142,-2,-4,-11,1025,0,-1535
1910,22.208711,8,-1,-7,1012,-2,-1528
1911,22.220301,-7,7,22,1020,-2,-1517
1912,22.231858,13,-8,6,1014,-4,-1535
1913,22.243449,14,31,-12,1015,-5,-1531
1914,22.25501,19,4,-1,1018,3,-1518
1915,22.266595,-25,1,33,1020,-4,-1545
1916,22.278154,9,-2,56,1020,4,-1543
1917,22.289715,16,7,-2,1017,3,-1535
1918,22.301379,-15,-11,-21,1019,-1,-1529
1919,22.313035,-21,-24,-26,1025,-7,-1530
1920,22.324696,-3,1,-23,1020,0,-1546
1921,22.336364,8,-2,-10,1021,4,-1550
1922,22.348014,1,1,1,1021,-1,-1537
1923,22.359666,-6,0,13,1015,-4,-1534
1924,22.371342,6,13,14,1019,-4,-1532
1925,22.383008,-7,-13,26,1020,-3,-1535
1926,22.394698,16,22,-9,1016,-5,-1541
1927,22.406358,-7,-23,-15,1023,2,-1539
1928,22.41791,22,22,46,1028,-5,-1525
1929,22.429463,16,4,-25,1028,-6,-1528
1930,22.441009,11,15,-13,1024,-4,-1531
1931,22.452557,-31,-5,-42,1028,1,-1531
1932,22.464107,-8,18,-9,1021,-1,-1541
1933,22.475683,30,-1,-12,1027,-7,-1513
1934,22.487253,0,5,-1,1027,-4,-1534
1935,22.498838,11,-2,-7,1020,0,-1529
1936,22.510491,6,-10,-23,1017,0,-1535
1937,22.522352,-4,-1,1,1019,-1,-1525
1938,22.534049,17,5,-18,1014,-6,-1537
1939,22.545767,8,24,-13,1025,-12,-1529
1940,22.557432,-21,-11,20,1029,-5,-1524
1941,22.569087,17,19,33,1020,11,-1537
1942,22.580752,-5,14,-42,1017,0,-1526
1943,22.592411,-28,-11,-31,1021,-5,-1549
1944,22.604086,8,10,9,1013,1,-1543
1945,22.615815,25,14,2,1014,0,-1533
1946,22.627367,16,3,0,1019,1,-1531
1947,22.638927,4,-1,1,1032,-2,-1545
1948,22.650477,1,2,17,1017,-7,-1529
1949,22.662037,-4,-3,13,1018,-3,-1523
1950,22.673581,3,1,-10,1026,-4,-1525
1951,22.685124,-6,19,-13,1024,-10,-1526
1952,22.696683,-12,-16,15,1019,0,-1529
1953,22.708272,21,29,6,1016,-1,-1534
1954,22.719937,27,6,21,1016,2,-1532
1955,22.731612,-17,-7,-36,1021,-3,-1533
1956,22.743282,-28,-5,-45,1017,-14,-1544
1957,22.754969,0,-1,4,1016,-3,-1544
1958,22.766633,-9,-7,-2,1018,0,-1532
1959,22.778311,-11,20,-13,1017,-13,-1529
1960,22.78999,11,1,4,1019,-5,-1525
1961,22.801638,-1,6,14,1026,-7,-1548
1962,22.813309,1,-12,4,1019,-1,-1526
1963,22.824972,17,12,-3,1022,-13,-1542
1964,22.836573,-10,-22,15,1026,-6,-1534
1965,22.848121,5,15,3,1030,-5,-1526
1966,22.85967,23,18,4,1030,-2,-1529
1967,22.871236,4,-13,-13,1010,-9,-1541
1968,22.882791,-19,1,-26,1018,-4,-1532
1969,22.894352,-29,-3,-46,1019,1,-1533
1970,22.905913,-22,-7,-17,1018,0,-1537
1971,22.917479,1,-41,18,1027,0,-1511
1972,22.929096,21,-15,4,1027,1,-1527
1973,22.940764,-16,1,7,1018,-7,-1526
1974,22.952427,-2,1,-14,1010,-10,-1534
1975,22.964073,3,-5,2,1015,-4,-1528
1976,22.97575,7,5,11,1018,0,-1525
1977,22.987407,-7,0,24,1019,-2,-1521
1978,22.99909,-7,-21,-5,1023,1,-1534
1979,23.010757,-22,1,8,1013,-2,-1543
1980,23.022453,24,2,38,1020,-6,-1524
1981,23.034121,10,-12,9,1021,1,-1544
1982,23.045682,27,14,30,1020,-9,-1542
1983,23.057244,-5,-3,0,1028,-2,-1535
1984,23.06883,-12,-18,13,1020,3,-1534
1985,23.080405,-22,2,-14,1021,-5,-1528
1986,23.091953,3,29,-4,1020,-2,-1534
1987,23.103501,-5,-1,-6,1015,-6,-1524
1988,23.115075,5,-2,0,1021,-9,-1523
1989,23.126651,-4,5,-8,1018,3,-1541
1990,23.138323,14,14,-26,1018,-7,-1531
1991,23.149986,20,-19,-7,1023,-5,-1539
1992,23.161644,3,31,28,1021,1,-1527
1993,23.173285,9,-9,-1,1018,-1,-1521
1994,23.184955,-7,9,4,1016,-1,-1535
1995,23.196615,9,-2,14,1023,3,-1524
1996,23.208269,-13,11,-13,1018,0,-1533
1997,23.219925,24,-1,16,1022,-1,-1546
1998,23.231584,-11,-14,15,1015,-1,-1528
1999,23.243256,-12,14,2,1020,-8,-1535
