sample,t_s,gyro_x,gyro_y,gyro_z,accel_x,accel_y,accel_z
0,1.2e-05,1,4,0,2,56,-1021
1,0.011474,-1,20,-23,-6,61,-1023
2,0.022692,21,27,-29,-1,55,-1019
3,0.033883,11,1,-27,-2,57,-1028
4,0.045079,27,8,11,-1,67,-1009
5,0.056231,23,8,24,-3,64,-1021
6,0.067422,-22,-24,-15,-1,61,-1028
7,0.078607,-24,-12,-18,2,69,-1018
8,0.089792,24,-1,45,3,58,-1012
9,0.100988,12,32,11,-1,56,-1014
10,0.11218,-23,17,-34,-2,59,-1018
11,0.123368,-16,-16,-13,-10,62,-1028
12,0.134555,3,2,-84,-6,64,-1017
13,0.145743,-8,-2,22,0,64,-1013
14,0.156953,7,-11,-58,-4,57,-1006
15,0.168155,20,-2,21,-1,54,-999
16,0.179339,-7,-4,18,-3,68,-1018
17,0.190523,10,9,-25,5,60,-1025
18,0.201707,-14,7,5,3,61,-1016
19,0.212889,17,23,19,5,66,-1022
20,0.224043,16,-7,-16,2,68,-1020
21,0.235228,-10,16,3,-3,60,-1022
22,0.246412,10,25,-41,-7,58,-1009
23,0.257596,18,39,3,-5,62,-1023
24,0.268779,7,31,19,2,59,-1033
25,0.279971,10,37,2,-1,67,-1017
26,0.291155,23,27,43,-2,70,-1010
27,0.302338,12,11,15,3,71,-1037
28,0.313525,15,23,19,2,69,-1023
29,0.324707,-22,-1,-19,-5,67,-1024
30,0.335859,-6,-41,12,-3,61,-1006
31,0.34704,-9,35,-4,-4,61,-1020
32,0.358223,-18,14,-15,-2,55,-1023
33,0.369422,-19,20,-5,-4,60,-1023
34,0.380604,-4,8,14,-3,50,-1020
35,0.391792,-5,-7,-49,4,56,-1005
36,0.40299,-6,2,-32,0,65,-1003
37,0.414175,19,11,22,-8,59,-1034
38,0.425365,0,0,-37,-8,68,-1014
39,0.436557,-6,6,40,2,67,-1035
40,0.447751,-12,0,-15,2,58,-1025
41,0.458943,-6,-8,24,-3,63,-1019
42,0.470135,18,0,-5,-9,60,-1020
43,0.481321,-18,-16,4,-4,67,-1024
44,0.492519,-14,10,44,-4,56,-1016
45,0.503674,15,21,12,0,54,-1022
46,0.514857,15,29,27,-4,53,-1022
47,0.526042,-27,-7,-14,3,56,-1017
48,0.537224,25,19,41,-3,63,-1024
49,0.548411,30,11,20,-4,61,-1006
50,0.5596,-28,15,-24,5,67,-1020
51,0.570785,17,17,-9,-1,66,-1033
52,0.581967,14,-10,-8,4,66,-1014
53,0.593152,-6,-20,-5,5,64,-1021
54,0.604338,15,-17,31,-1,67,-1019
55,0.615539,-17,-6,-15,-2,61,-1015
56,0.626724,2,-7,30,6,65,-1027
57,0.637906,-14,-10,-28,-1,61,-1013
58,0.649097,20,14,-11,9,65,-1017
59,0.660283,4,-10,52,5,54,-1023
60,0.671481,4,16,-1,3,59,-1023
61,0.682663,18,-1,-17,10,59,-1023
62,0.693847,7,8,-24,0,60,-1021
63,0.705029,4,22,-6,-3,59,-1025
64,0.716224,11,-8,35,-3,66,-1017
65,0.727408,-6,-11,-47,8,68,-1028
66,0.738588,34,31,8,-2,73,-1012
67,0.749769,-8,34,14,-11,60,-1036
68,0.760963,-19,-12,-50,4,68,-1020
69,0.772152,-23,-16,-48,-1,58,-1012
70,0.783335,15,-29,26,-2,63,-1023
71,0.794518,34,0,26,-4,61,-1015
72,0.805702,13,-32,27,0,55,-1022
73,0.816884,19,-25,25,3,65,-1015
74,0.828041,-7,9,-13,13,60,-1013
75,0.839226,-10,0,-10,-4,72,-1021
76,0.850406,28,5,46,6,70,-1013
77,0.861595,0,4,-20,-7,68,-1017
78,0.872776,15,3,9,4,58,-1029
79,0.883967,3,-10,46,-2,74,-1017
80,0.895148,-10,-10,48,-1,57,-1017
81,0.906328,11,20,-11,-5,59,-1025
82,0.917509,-20,-11,8,12,66,-1014
83,0.92869,-1,9,0,1,53,-1041
84,0.939857,-20,-26,29,0,55,-1025
85,0.951044,4,6,-53,-1,56,-1017
86,0.96223,-16,-15,42,2,65,-1023
87,0.973413,-20,12,21,-2,62,-1027
88,0.984601,-23,-9,3,1,74,-1025
89,0.995787,1,-14,-19,7,51,-1020
90,1.006972,-3,34,-25,6,55,-1019
91,1.018156,-10,32,-9,0,61,-1025
92,1.029352,-24,27,-22,10,70,-1022
93,1.040545,-17,28,1,-5,62,-1016
94,1.051735,4,-29,25,3,59,-1029
95,1.062932,-12,33,-1,0,65,-1016
96,1.074117,-9,6,1,-8,55,-1018
97,1.085306,4,-9,-47,-2,62,-1031
98,1.096499,-3,-1,9,3,75,-1017
99,1.107673,3,-8,29,-3,65,-1019
100,1.11887,-3,-17,62,0,59,-1025
101,1.130056,-2,11,26,9,66,-1023
102,1.141244,11,-9,-9,9,65,-1027
103,1.152409,1,-1,-11,0,65,-1018
104,1.1636,14,9,7,6,61,-1019
105,1.174784,7,26,-36,5,53,-1046
106,1.185965,23,34,6,2,70,-1010
107,1.197146,7,22,16,-2,63,-1027
108,1.208339,-29,-5,-17,-6,55,-1005
109,1.21949,35,-18,31,-1,57,-1021
110,1.230687,3,-5,-6,-4,68,-1014
111,1.24187,42,-9,15,1,69,-1018
112,1.253061,-24,19,-24,-4,62,-1026
113,1.264231,21,-30,27,0,68,-1017
114,1.275452,-1,-10,-9,2,67,-1029
115,1.286759,-14,30,-28,-6,53,-1017
116,1.297952,-16,29,-2,-2,62,-1016
117,1.309137,13,-22,5,2,68,-1018
118,1.320347,-8,3,12,15,68,-1009
119,1.33149,-16,-15,-23,-3,62,-1026
120,1.342682,-5,-7,-40,6,58,-1016
121,1.353874,9,0,30,-1,61,-1029
122,1.365065,-15,6,-37,-2,73,-1021
123,1.376232,20,0,-18,2,70,-1019
124,1.387425,-18,-3,24,-2,58,-1020
125,1.398609,11,16,31,-4,59,-1015
126,1.409796,7,13,-18,1,70,-1011
127,1.420984,24,0,5,8,62,-1028
128,1.432173,-5,-5,-18,-1,54,-1023
129,1.443362,-11,-3,41,-5,59,-1024
130,1.454548,14,35,12,-3,72,-1024
131,1.465734,-19,-38,-68,-5,53,-1028
132,1.476967,4,8,12,11,58,-1023
133,1.48817,1,27,-5,2,64,-1008
134,1.499364,-11,-30,10,5,63,-1019
135,1.510547,31,2,21,-2,64,-1013
136,1.521734,13,5,-1,0,64,-1017
137,1.532918,16,-39,15,-11,62,-1028
138,1.544106,-1,1,-11,-2,69,-1015
139,1.555292,-13,2,-11,8,67,-1022
140,1.566473,-14,10,-15,0,62,-1012
141,1.577655,2,-2,24,0,59,-1019
142,1.588842,-11,-2,-27,7,61,-1008
143,1.600044,18,2,-15,0,63,-1010
144,1.611241,5,-5,-1,-10,66,-1034
145,1.622427,6,-11,-4,5,58,-1028
146,1.633612,12,-6,27,-1,67,-1025
147,1.644799,-2,-5,31,5,60,-1019
148,1.655992,-36,-33,12,-1,69,-1002
149,1.667184,-22,-16,-7,1,54,-1031
150,1.678377,31,31,-2,6,57,-1038
151,1.689562,14,35,4,-6,61,-1036
152,1.70075,-29,-13,-18,-5,58,-1011
153,1.711938,15,-22,3,6,64,-1024
154,1.723121,18,-7,19,-3,62,-1029
155,1.734308,0,42,-16,-7,65,-1029
156,1.745491,-5,36,-8,0,59,-1025
157,1.75668,16,-20,30,-4,58,-1027
158,1.767865,21,-15,4,-1,56,-1029
159,1.77905,6,5,10,2,68,-1028
160,1.790236,17,-16,-3,0,62,-1019
161,1.80142,8,-11,23,0,60,-1030
162,1.812609,13,18,7,-3,68,-1025
163,1.823799,-11,-9,-10,-2,56,-1032
164,1.835001,12,-4,4,-6,55,-1022
165,1.846183,11,14,-5,1,57,-1029
166,1.857367,-12,7,24,-3,66,-1028
167,1.868556,13,6,18,-9,67,-1017
168,1.87974,-11,-22,13,4,54,-1041
169,1.890926,-14,1,-22,0,65,-1018
170,1.90211,15,16,34,2,72,-1014
171,1.913293,10,10,-45,-3,65,-1020
172,1.924495,27,34,18,-6,60,-1022
173,1.935677,-20,28,15,0,61,-1018
174,1.946876,-40,-16,-32,-3,56,-1012
175,1.958061,-29,-15,-22,-4,58,-1001
176,1.969244,-25,-17,-8,0,56,-1036
177,1.98042,-13,-18,7,-4,60,-1029
178,1.991606,7,-37,11,1,53,-1021
179,2.002789,16,-12,-2,-3,55,-1024
180,2.013973,10,-30,5,5,57,-1023
181,2.025155,7,-18,-8,-4,62,-1020
182,2.036347,-6,8,-38,-2,65,-1018
183,2.047537,11,-4,11,5,66,-1044
184,2.058725,7,16,4,-5,61,-1025
185,2.069907,-3,17,-63,0,61,-1027
186,2.081088,4,6,-19,-7,60,-1024
187,2.092276,-12,7,34,6,59,-1034
188,2.103458,10,-2,0,-6,73,-1022
189,2.11464,-16,-16,23,8,54,-1013
190,2.125823,20,2,-26,-4,59,-1012
191,2.137005,-18,19,24,1,53,-1012
192,2.14819,27,-10,26,1,53,-1019
193,2.159371,-6,6,5,-4,73,-1015
194,2.170555,15,8,27,8,72,-1018
195,2.181737,-8,5,-28,3,67,-1019
196,2.192937,16,34,-10,4,56,-1018
197,2.204121,-4,-27,30,0,67,-1029
198,2.215306,17,-11,-15,-1,63,-1017
199,2.226497,-5,0,21,4,65,-1012
200,2.237677,9,-26,-11,3,73,-1010
201,2.24887,-9,2,6,-1,69,-1008
202,2.260045,8,-1,-6,3,61,-1013
203,2.271232,15,9,-14,4,68,-1024
204,2.282414,-13,12,16,0,67,-1013
205,2.293598,12,-15,-42,-5,63,-1014
206,2.304782,-10,17,-56,3,57,-1028
207,2.315978,36,0,56,0,60,-1015
208,2.327164,-5,-15,6,0,66,-1010
209,2.338346,-21,-4,-40,-2,55,-1030
210,2.34953,-22,5,-76,1,66,-1018
211,2.360713,11,5,36,-1,72,-1024
212,2.371858,-3,2,0,7,66,-1014
213,2.38305,1,14,38,-9,61,-1018
214,2.394236,0,-6,6,0,69,-1028
215,2.40542,-6,0,-1,1,69,-1021
216,2.416608,9,4,-18,0,55,-1033
217,2.427798,-12,5,-37,3,60,-1015
218,2.438988,-9,-10,25,0,68,-1026
219,2.45017,-3,-24,-19,-11,57,-1027
220,2.461355,-19,10,42,0,59,-1024
221,2.472541,22,-2,8,4,54,-1025
222,2.483728,-23,5,-41,5,65,-1019
223,2.494913,19,-2,55,-2,59,-1017
224,2.506097,-10,24,38,-2,61,-1017
225,2.517282,-26,-32,-11,0,52,-1031
226,2.528469,29,7,11,-13,66,-1019
227,2.539666,-24,-9,18,-7,67,-1017
228,2.550866,18,3,-31,-1,65,-1028
229,2.562047,10,2,-14,-3,67,-1012
230,2.573234,-20,-6,21,10,63,-1011
231,2.584419,21,-3,58,-13,65,-1010
232,2.595608,17,3,-11,-10,60,-1025
233,2.606802,0,-2,1,-6,65,-1019
234,2.617983,4,5,50,-1,54,-1022
235,2.629167,17,-8,-32,-2,67,-1018
236,2.640355,-23,17,-64,5,66,-1023
237,2.651541,17,-5,52,-1,60,-1025
238,2.662726,18,-1,70,-2,57,-1012
239,2.673909,-1,-5,34,9,60,-1015
240,2.685093,1,9,-5,5,68,-1019
241,2.696288,0,-1,6,-1,67,-1020
242,2.707486,6,0,-2,-7,59,-1019
243,2.718674,7,-2,-9,3,64,-1011
244,2.729857,4,12,5,-3,61,-1019
245,2.741047,-15,-14,13,-2,59,-1005
246,2.752225,-20,-5,42,6,59,-1020
247,2.763411,12,-9,16,1,53,-1018
248,2.774593,15,10,-28,-4,49,-1010
249,2.785777,-27,-3,30,-4,63,-1033
250,2.796959,34,1,56,-4,63,-1034
251,2.808151,-12,-8,-48,3,65,-1027
252,2.819341,-28,7,12,-2,63,-1015
253,2.830544,-24,-9,-60,5,68,-1014
254,2.84173,3,32,3,-5,68,-1025
255,2.852919,9,-15,28,-3,61,-1016
256,2.864106,-17,13,-16,-3,62,-1032
257,2.875295,14,-2,-27,-2,64,-1027
258,2.88649,-1,-1,8,1,62,-1019
259,2.897671,-12,8,17,-2,55,-1024
260,2.90887,4,3,-13,4,65,-1018
261,2.920044,18,10,-12,-6,62,-1020
262,2.931234,-9,-13,-17,-2,60,-1018
263,2.942418,19,-1,-11,-2,66,-1022
264,2.9536,-23,0,-8,5,57,-1020
265,2.964787,8,-16,71,-5,60,-1023
266,2.975973,4,19,42,-7,71,-1046
267,2.987164,-20,-2,-67,5,52,-1030
268,2.998359,3,9,-16,-5,63,-1019
269,3.009541,-5,0,29,2,67,-1018
270,3.020725,6,0,-18,-5,66,-1027
271,3.031911,-8,5,-7,-3,60,-1012
272,3.043094,-2,-15,-47,3,62,-1034
273,3.054277,-8,11,25,-2,55,-1027
274,3.065459,-20,0,23,2,61,-1024
275,3.076639,22,-14,-19,-3,61,-1015
276,3.087822,-15,2,-34,-5,59,-1019
277,3.099002,9,25,19,3,65,-1016
278,3.110185,17,-14,-45,-2,63,-1027
279,3.121368,6,27,50,5,64,-1014
280,3.132553,33,1,63,3,66,-1027
281,3.143738,30,2,41,-3,66,-1018
282,3.154921,-26,-17,-51,-9,59,-1025
283,3.166103,23,31,12,-4,68,-1011
284,3.177295,-17,-27,24,-3,61,-1041
285,3.188488,18,33,-10,-6,71,-1018
286,3.199672,-17,-16,26,2,62,-1027
287,3.21086,0,14,-2,0,61,-1023
288,3.222044,11,6,-15,3,65,-1020
289,3.233232,-9,-11,29,-2,61,-1027
290,3.244413,14,9,2,-2,58,-1005
291,3.255609,-2,-18,-16,-2,59,-1019
292,3.266795,15,4,2,8,61,-1032
293,3.277975,-9,8,-46,7,60,-1020
294,3.28916,-2,-11,72,-6,63,-1027
295,3.30035,25,-1,57,-9,58,-1024
296,3.311535,-8,-4,-18,4,62,-1016
297,3.32272,-6,11,-48,9,64,-1018
298,3.333905,-8,0,-5,7,60,-1020
299,3.34509,2,-11,-23,4,60,-1030
300,3.356283,-3,11,6,-2,71,-1012
301,3.367482,4,-9,-37,0,59,-1028
302,3.378665,15,-4,-10,-8,59,-1013
303,3.38985,-19,-7,28,-6,55,-1030
304,3.401037,17,-6,-13,-1,54,-1029
305,3.412229,-23,-5,8,8,55,-1022
306,3.423412,0,6,20,4,60,-1010
307,3.4346,22,-5,-24,2,57,-1014
308,3.445785,-36,2,-31,-3,67,-1031
309,3.456987,-22,-7,-15,-5,61,-1031
310,3.468173,31,0,48,-2,61,-1015
311,3.479354,18,0,23,-2,70,-1018
312,3.490539,-21,-13,-43,9,65,-1029
313,3.501735,15,23,3,8,53,-1033
314,3.512918,-15,-25,20,1,57,-1029
315,3.524107,7,25,-29,-2,66,-1018
316,3.535291,-10,-1,9,0,64,-1024
317,3.546473,17,5,-25,-2,66,-1005
318,3.557658,0,-3,27,4,64,-1012
319,3.568848,-8,0,36,0,64,-1028
320,3.580038,17,-8,-15,-1,59,-1030
321,3.591231,-21,9,34,4,59,-1024
322,3.602418,15,-9,-66,3,67,-1012
323,3.613613,-36,7,-58,-4,61,-1029
324,3.624798,30,-5,51,-3,53,-1020
325,3.635985,-12,-2,-43,0,66,-1029
326,3.647168,-17,8,-59,-1,61,-1014
327,3.658357,15,0,73,0,66,-1029
328,3.669537,-5,0,12,3,60,-1017
329,3.680722,9,3,20,2,70,-1018
330,3.691911,-3,-7,14,4,64,-1017
331,3.7031,-16,10,24,-8,56,-1029
332,3.714291,19,-10,-23,-3,59,-1023
333,3.725478,-17,1,18,0,60,-1019
334,3.736667,-4,-10,41,-6,56,-1021
335,3.747857,16,15,4,3,58,-1013
336,3.759042,16,7,-31,-9,54,-1017
337,3.770226,-25,-11,-44,2,58,-1033
338,3.781413,-34,11,-67,-5,71,-1020
339,3.792602,-7,-10,0,-3,61,-1020
340,3.803792,28,15,38,-4,66,-1029
341,3.814978,-25,-27,-48,-4,62,-1022
342,3.82616,28,28,7,-4,56,-1031
343,3.837356,-4,-38,32,-4,64,-1017
344,3.848544,-4,4,8,2,68,-1027
345,3.859728,-10,-13,-2,-2,61,-1014
346,3.870914,14,17,-3,-10,67,-1024
347,3.882097,-12,-17,14,-3,56,-1014
348,3.893282,13,0,-51,1,62,-1023
349,3.904474,3,-10,-12,-5,51,-1012
350,3.915671,-11,6,25,-8,62,-1028
351,3.926849,11,29,54,-3,61,-1016
352,3.938035,29,20,61,-1,61,-1023
353,3.949218,27,-7,42,0,62,-1021
354,3.960409,0,1,-20,-2,69,-1020
355,3.97161,-13,4,-19,-1,63,-1015
356,3.982793,6,-1,23,-14,64,-1018
357,3.993975,3,-9,32,2,63,-1017
358,4.005161,-9,-3,35,0,59,-1008
359,4.016349,-17,16,7,-8,62,-1015
360,4.027535,-10,16,-3,4,63,-1028
361,4.038727,17,-13,-18,-1,62,-1025
362,4.04991,12,13,-11,6,55,-1020
363,4.061098,-23,7,25,5,62,-1028
364,4.072287,-2,-19,44,-5,65,-1022
365,4.083484,17,18,53,2,56,-1027
366,4.094666,24,-5,29,-2,64,-1014
367,4.105848,12,14,-39,-1,65,-1017
368,4.117034,-32,-19,-33,0,63,-1014
369,4.128229,36,17,52,2,66,-1018
370,4.139412,-23,-22,-28,-1,65,-1020
371,4.150598,-6,-32,-29,-3,61,-1020
372,4.16178,8,35,12,-2,70,-1025
373,4.172972,13,10,5,-2,60,-1026
374,4.184162,0,5,47,-4,65,-1012
375,4.195344,-18,-3,21,-5,58,-1031
376,4.206528,21,9,-26,-10,65,-1003
377,4.217713,0,-6,8,-2,67,-1023
378,4.228897,-10,9,42,-10,57,-1018
379,4.240042,20,2,0,-1,67,-1020
380,4.251221,25,12,-14,-2,61,-1036
381,4.262408,-26,8,-39,4,60,-1035
382,4.273595,18,0,48,0,58,-1010
383,4.284843,4,-16,-8,3,63,-1016
384,4.29649,10,-24,15,-2,67,-1028
385,4.30777,-23,18,-11,6,62,-1007
386,4.318964,3,-6,13,0,61,-1020
387,4.330183,-10,-1,12,3,57,-1038
388,4.341372,-5,3,49,-5,68,-1014
389,4.352558,21,-8,-30,1,59,-1025
390,4.363745,-8,-13,2,-1,61,-1037
391,4.374931,3,11,43,-1,56,-1028
392,4.386114,-14,-3,-74,-3,64,-1027
393,4.397298,-15,15,-27,0,57,-1010
394,4.408488,13,0,27,0,61,-1031
395,4.419671,-21,-2,-73,-1,53,-1020
396,4.430857,18,-9,21,-8,64,-1006
397,4.442045,-6,3,28,-4,68,-1017
398,4.45323,10,3,3,-6,65,-1028
399,4.464481,0,15,38,3,63,-1022
400,4.475993,10,-5,4,3,60,-1048
401,4.487574,7,-2,-13,3,62,-1028
402,4.499128,6,11,-16,0,63,-1029
403,4.510694,8,19,-34,7,63,-1018
404,4.522264,-3,-1,-1,-2,71,-1019
405,4.533815,-1,4,-7,-5,69,-1029
406,4.545361,-12,2,-36,-3,61,-1016
407,4.556926,10,23,-9,3,51,-1021
408,4.568557,9,7,-3,-3,54,-1030
409,4.580266,-2,1,-20,3,60,-1018
410,4.591969,-7,-4,-30,-2,64,-1017
411,4.603659,-1,-3,-12,3,59,-1029
412,4.615311,7,-6,5,-1,62,-1031
413,4.626985,-12,0,4,-4,62,-1030
414,4.638635,14,-1,-18,0,60,-1018
415,4.650286,8,12,-4,0,64,-1021
416,4.66193,-10,6,-15,0,60,-1020
417,4.673601,-12,-25,28,2,59,-1026
418,4.685262,1,1,14,1,62,-1009
419,4.696964,18,-8,33,-6,64,-1032
420,4.70862,21,6,16,-2,57,-1022
421,4.720313,-22,0,-30,-2,61,-1022
422,4.731972,-7,-4,-18,2,63,-1005
423,4.743672,0,-4,-13,-5,61,-1025
424,4.75533,10,5,21,-2,58,-1022
425,4.766993,-6,11,18,-7,59,-1023
426,4.778724,3,3,23,-5,61,-1021
427,4.790385,-12,-6,7,-4,66,-1010
428,4.801947,21,6,-3,-8,57,-1016
429,4.813496,-15,-26,10,-4,65,-1019
430,4.825052,13,25,-14,1,58,-1019
431,4.836619,3,2,-34,3,64,-1019
432,4.848185,-11,-8,29,2,51,-1017
433,4.859761,29,10,30,5,58,-1022
434,4.871308,-27,-14,-18,-2,66,-1024
435,4.882896,-17,1,3,7,60,-1014
436,4.894525,6,-3,21,-6,60,-1008
437,4.906197,-3,7,4,5,62,-1024
438,4.917856,9,-5,4,-3,68,-1020
439,4.929514,2,0,-12,-6,59,-1027
440,4.941176,10,-9,4,2,67,-1026
441,4.952823,7,16,-28,-5,59,-1013
442,4.964485,-10,-17,14,-5,62,-1026
443,4.976177,-9,11,29,-6,58,-1036
444,4.987806,12,3,-28,2,64,-1037
445,4.999524,-24,2,-32,-3,62,-1022
446,5.011079,3,-3,12,-1,63,-1012
447,5.022626,33,14,41,-1,63,-1023
448,5.034183,5,-11,13,0,54,-1010
449,5.04573,2,0,20,2,57,-1020
450,5.057282,-7,0,-13,-3,65,-1010
451,5.06887,-2,0,-16,-2,50,-1017
452,5.080435,13,4,-7,-3,58,-1030
453,5.092013,-10,-12,18,0,65,-1019
454,5.103666,20,11,-6,-8,69,-1017
455,5.115338,0,-11,-18,-1,61,-1015
456,5.126991,19,26,37,2,57,-1017
457,5.13864,19,-10,-40,7,58,-1025
458,5.150303,-26,-2,-33,0,65,-1033
459,5.161946,-26,-11,-42,-7,51,-1022
460,5.173607,-27,-25,-37,-6,57,-1016
461,5.185259,-20,10,-9,0,61,-1012
462,5.196969,-7,7,-2,0,65,-1024
463,5.208631,1,8,-8,5,54,-1031
464,5.220323,4,-5,-21,0,71,-1021
465,5.231995,-5,9,11,-5,58,-1025
466,5.243664,21,4,-16,0,66,-1024
467,5.255316,-17,-20,12,-3,56,-1019
468,5.266994,-2,24,17,-2,61,-1025
469,5.278654,22,12,31,5,66,-1032
470,5.290315,-22,7,-42,-6,66,-1025
471,5.302001,-10,-17,10,-2,61,-1008
472,5.313667,7,9,5,8,58,-1031
473,5.325214,20,17,5,3,61,-1014
474,5.336727,21,-8,16,2,55,-1023
475,5.348245,7,-6,2,3,65,-1023
476,5.359764,-8,0,11,-8,65,-1013
477,5.371308,-4,1,4,-4,65,-1025
478,5.382854,-16,-5,10,-2,62,-1017
479,5.394417,-7,2,-5,-1,57,-1030
480,5.405977,-9,-4,4,4,64,-1031
481,5.417614,-10,15,30,-5,59,-1022
482,5.429261,24,-5,3,-3,69,-1028
483,5.440996,-27,4,-21,0,68,-1036
484,5.452687,7,-10,26,4,65,-1025
485,5.464311,24,6,31,1,66,-1015
486,5.475971,-19,-15,-1,0,56,-1012
487,5.487654,-16,25,-3,-14,58,-1022
488,5.499294,13,0,-2,-2,66,-1019
489,5.510978,5,5,22,0,58,-1013
490,5.522637,-12,5,16,-9,65,-1014
491,5.534199,-4,-3,-2,0,69,-1029
492,5.54575,7,9,-12,4,59,-1013
493,5.557298,-10,-15,3,-2,62,-1020
494,5.568869,-24,-23,-4,-3,56,-1015
495,5.580435,-18,-15,-55,3,67,-1032
496,5.592013,-18,6,-20,5,66,-1030
497,5.603526,5,-5,15,-4,67,-1015
498,5.615083,16,5,9,-2,68,-1034
499,5.626717,0,-21,3,-2,67,-1026
500,5.638367,-16,2,0,0,59,-1031
501,5.650016,6,15,3,-3,60,-1006
502,5.661675,9,-1,13,5,68,-1018
503,5.673343,-6,8,9,4,66,-1029
504,5.684998,-3,3,-21,-9,62,-1022
505,5.696706,16,6,-11,-2,61,-1015
506,5.708362,-11,29,-7,0,63,-1027
507,5.720065,-2,-21,-25,3,67,-1029
508,5.731719,-7,20,4,7,61,-1014
509,5.743278,20,-6,36,6,58,-1023
510,5.75483,-4,2,-13,-7,61,-1017
511,5.766383,-28,-18,-11,0,74,-1021
512,5.777931,-1,21,1,-3,56,-1028
513,5.789479,-16,24,-9,0,65,-1015
514,5.801031,3,7,9,-2,57,-1019
515,5.812632,7,-4,-14,0,67,-1025
516,5.8242,1,9,11,-2,65,-1027
517,5.835852,-10,-4,12,1,53,-1022
518,5.847524,8,0,-14,-1,73,-1020
519,5.859172,8,-1,-1,7,74,-1013
520,5.870833,24,3,11,-1,65,-1027
521,5.882489,-6,-8,-21,5,63,-1027
522,5.894129,10,6,28,-2,67,-1024
523,5.90578,9,-4,41,6,62,-1014
524,5.917452,3,-5,-16,2,58,-1019
525,5.929115,5,22,0,-1,61,-1011
526,5.940782,17,-12,6,-2,58,-1007
527,5.952363,-5,-12,-5,-4,65,-1010
528,5.963941,-5,13,19,-4,60,-1025
529,5.975532,-11,-9,-12,-3,55,-1022
530,5.987088,0,4,-26,-2,60,-1008
531,5.998672,0,13,3,0,67,-1019
532,6.010222,16,-1,1,-3,62,-1024
533,6.021765,4,-2,-6,-2,70,-1023
534,6.033326,21,-6,32,-6,73,-1006
535,6.045001,0,-2,-13,2,53,-1023
536,6.056701,-9,14,-30,3,56,-1019
537,6.068362,-2,-2,5,5,59,-1029
538,6.080055,21,-12,12,-1,63,-1016
539,6.09172,-17,5,8,0,63,-1024
540,6.103365,3,5,7,-3,58,-1029
541,6.115017,2,-7,8,8,67,-1028
542,6.126658,14,2,4,-1,60,-1025
543,6.138331,-3,-5,18,-5,66,-1017
544,6.149987,-2,4,13,-4,54,-1031
545,6.161551,11,2,-9,1,56,-1029
546,6.173119,10,-9,-25,12,67,-1036
547,6.184679,-18,5,-28,-1,56,-1022
548,6.196248,-5,4,19,-5,63,-1013
549,6.207814,12,1,3,-2,61,-1021
550,6.219374,-7,2,-15,-11,57,-1020
551,6.230922,8,48,2,-2,60,-1016
552,6.242477,-10,-9,10,-7,63,-1010
553,6.254126,-5,-32,11,-4,62,-1037
554,6.265785,9,-30,28,0,59,-1027
555,6.277435,14,-15,-8,3,59,-1027
556,6.289102,0,5,31,3,53,-1022
557,6.300755,-12,-11,43,0,72,-1013
558,6.312445,-8,-2,17,-6,68,-1024
559,6.324106,14,6,10,0,62,-1029
560,6.335802,-10,15,9,2,56,-1011
561,6.347477,27,0,33,-6,66,-1024
562,6.359153,13,-18,20,-1,55,-1008
563,6.370699,15,-3,26,2,60,-1018
564,6.38224,5,6,13,6,55,-1024
565,6.393786,-19,-15,-6,2,60,-1018
566,6.405336,14,-21,21,-8,67,-1032
567,6.416923,-3,-15,-7,-3,59,-1017
568,6.428478,4,3,-9,-6,61,-1010
569,6.440023,4,4,6,-2,58,-1012
570,6.451593,-8,-3,32,7,60,-1038
571,6.463225,3,-4,-7,4,53,-1030
572,6.474877,14,-2,0,-8,68,-1013
573,6.486538,-9,11,15,-5,67,-1020
574,6.498186,-27,6,-24,-2,66,-1029
575,6.509837,18,4,42,-5,56,-1020
576,6.521455,-2,13,-1,-5,58,-1018
577,6.533105,0,13,-5,-2,66,-1033
578,6.544787,20,0,8,-10,62,-1032
579,6.556451,-10,7,8,2,65,-1009
580,6.567997,-7,17,13,-8,61,-1015
581,6.579525,-10,0,12,-1,64,-1026
582,6.591073,-6,-4,-5,-4,65,-1022
583,6.602642,8,-2,-11,-4,69,-1025
584,6.614188,13,8,14,3,69,-1025
585,6.62576,13,-9,0,2,69,-1010
586,6.637303,-4,6,-14,-3,65,-1028
587,6.648858,-9,-3,33,-5,63,-1014
588,6.660433,12,-10,34,-7,56,-1025
589,6.672053,0,4,1,-2,60,-1030
590,6.683723,-1,6,0,-6,57,-1016
591,6.695368,3,1,28,7,63,-1030
592,6.707054,12,-12,-16,-6,65,-1029
593,6.71872,-8,13,10,8,63,-1015
594,6.730362,-5,5,16,-2,61,-1025
595,6.742007,11,-11,-17,-2,64,-1007
596,6.753665,7,3,-6,10,68,-1019
597,6.765342,-14,-2,4,-5,59,-1019
598,6.776997,16,-3,-6,-3,67,-1021
599,6.788699,14,-13,-33,8,55,-1032
600,6.800354,-20,0,36,0,69,-1025
601,6.812049,0,-6,6,-3,56,-1017
602,6.823713,-6,15,-12,4,63,-1023
603,6.835358,0,-1,-5,0,64,-1007
604,6.847012,-3,-2,-23,-6,66,-1017
605,6.85869,-2,20,12,-1,62,-1023
606,6.870368,6,-18,-11,6,58,-1021
607,6.882035,11,6,3,0,65,-1010
608,6.89359,-3,11,10,-1,71,-1031
609,6.905146,-3,-7,-2,-2,65,-1027
610,6.916745,-13,11,0,-3,65,-1015
611,6.928298,-8,1,20,0,56,-1017
612,6.939891,22,-2,-9,-1,63,-1020
613,6.951439,16,15,-25,-5,57,-1010
614,6.963016,-6,14,-24,-3,62,-1006
615,6.974573,-8,0,-35,-5,71,-1022
616,6.98621,-5,-1,0,-1,59,-1023
617,6.997862,3,-1,-4,2,66,-1021
618,7.009517,1,18,6,0,60,-1019
619,7.02116,6,-5,-10,-1,63,-1031
620,7.032831,7,0,-9,-11,63,-1030
621,7.044486,-14,0,21,-9,62,-1005
622,7.056158,13,0,-10,0,65,-1028
623,7.067842,-5,-1,5,-2,62,-1022
624,7.07953,-2,6,-2,-5,65,-1008
625,7.091183,21,-6,6,-3,63,-1022
626,7.1028,28,10,4,5,60,-1030
627,7.114349,-8,8,-28,-7,50,-1014
628,7.125912,-2,5,-37,-1,62,-1024
629,7.137457,-6,-7,-11,7,61,-1013
630,7.149008,-3,-4,-24,-3,57,-1025
631,7.160564,9,-4,-4,2,68,-1020
632,7.172132,-2,8,11,-8,50,-1031
633,7.183702,-5,-9,-3,-12,63,-1034
634,7.195381,9,-6,-4,0,48,-1013
635,7.207054,5,29,-18,0,63,-1028
636,7.218712,15,-13,-20,7,60,-1015
637,7.230358,1,3,-22,6,64,-1018
638,7.24201,-4,3,50,0,69,-1022
639,7.25368,13,16,-2,-1,69,-1009
640,7.26534,-27,4,-1,-2,68,-1027
641,7.277072,5,-8,44,-3,62,-1016
642,7.288927,15,-8,28,6,63,-1019
643,7.30049,3,-5,22,4,64,-1014
644,7.312071,0,5,5,0,60,-1018
645,7.32366,6,-4,-12,4,63,-1022
646,7.335213,5,13,2,0,67,-1021
647,7.346768,-9,17,9,0,59,-1032
648,7.358327,-2,-20,19,-4,65,-1018
649,7.369906,22,-1,-4,-4,59,-1042
650,7.38146,-8,0,-4,-1,57,-1017
651,7.393047,-6,-3,37,4,53,-1027
652,7.404716,25,0,42,4,67,-1021
653,7.416374,-16,0,-20,-10,60,-1032
654,7.428049,-4,-5,-14,-7,66,-1017
655,7.43975,-8,-5,-32,3,57,-1010
656,7.451397,6,-1,-2,-2,64,-1028
657,7.463048,-8,0,0,-6,64,-1034
658,7.474712,-6,12,26,-7,59,-1027
659,7.486358,-3,-20,0,3,68,-1020
660,7.498028,0,13,-18,2,71,-1022
661,7.509706,-13,-28,15,3,56,-1038
662,7.521295,-15,7,-6,-2,55,-1018
663,7.532883,19,0,9,3,60,-1017
664,7.544435,-12,2,-54,4,60,-1017
665,7.555997,-31,1,-29,-3,55,-1023
666,7.567527,3,0,2,-1,66,-1019
667,7.579081,9,5,28,0,69,-1017
668,7.590655,0,5,18,5,62,-1031
669,7.602229,-8,4,-11,1,67,-1019
670,7.613856,13,-3,17,-5,60,-1017
671,7.625515,-5,-5,5,-3,60,-1015
672,7.637178,21,1,-2,2,62,-1015
673,7.648826,-18,-2,0,-2,64,-1010
674,7.660511,-12,-5,18,-8,65,-1029
675,7.67219,26,18,10,-6,58,-1017
676,7.683849,-9,11,-37,-3,56,-1024
677,7.695531,-12,-4,14,-5,58,-1022
678,7.707218,9,-2,24,-3,59,-1011
679,7.718875,12,-2,21,-8,65,-1030
680,7.730434,-1,0,22,-7,60,-1021
681,7.742025,3,0,29,-6,57,-1015
682,7.753582,-4,6,-6,-9,58,-1013
683,7.765141,-3,-5,-17,-2,65,-1043
684,7.776722,8,-8,-5,-1,53,-1029
685,7.788248,2,10,-12,-6,77,-1013
686,7.799766,-18,-15,3,-3,64,-1025
687,7.811394,-19,-32,15,-1,69,-1018
688,7.823016,13,23,27,6,66,-1023
689,7.834697,27,20,34,8,70,-1027
690,7.846348,26,2,25,-5,60,-1019
691,7.858001,-24,2,-31,-2,57,-1012
692,7.869669,0,8,-5,0,58,-1022
693,7.881329,16,-18,15,-1,67,-1019
694,7.892988,-1,-1,21,-2,55,-1029
695,7.904654,9,-4,6,-8,58,-1025
696,7.91633,4,7,15,-4,60,-1032
697,7.927988,-6,-7,14,-2,66,-1018
698,7.939667,-19,2,9,-6,64,-1006
699,7.95133,11,1,9,6,62,-1020
700,7.962983,8,-8,-18,3,59,-1023
701,7.974634,-28,0,-11,-5,67,-1014
702,7.986304,27,-5,49,-2,60,-1017
703,7.997966,18,3,4,-2,62,-1025
704,8.009611,-26,-10,-16,-4,55,-1027
705,8.021288,19,17,0,-5,55,-1025
706,8.032996,-11,-21,4,3,58,-1035
707,8.044689,6,-7,-7,7,57,-1009
708,8.056318,-6,4,16,3,65,-1037
709,8.067981,0,-9,-4,-12,63,-1020
710,8.079654,14,0,5,-1,61,-1022
711,8.091304,18,-6,19,-2,62,-1029
712,8.102965,7,6,-15,-1,57,-1021
713,8.114615,-21,-1,30,2,65,-1014
714,8.126275,31,0,28,-2,67,-1012
715,8.137942,-9,8,12,-5,62,-1018
716,8.149501,0,9,-26,-1,68,-1014
717,8.161055,-28,-10,-9,0,53,-1014
718,8.172657,-11,24,-4,-4,57,-1032
719,8.18426,22,-3,10,-4,65,-1018
720,8.195816,2,-6,7,-3,55,-1019
721,8.207399,-5,7,5,-2,59,-1015
722,8.218944,0,-7,3,1,63,-1020
723,8.230498,14,6,-2,-4,59,-1033
724,8.242111,-11,-9,34,2,57,-1023
725,8.253774,25,23,-17,-7,59,-1019
726,8.265441,-20,10,24,-1,68,-1020
727,8.277098,17,-18,12,0,64,-1015
728,8.288756,-18,9,-22,-6,72,-1016
729,8.300442,28,3,29,2,64,-1029
730,8.312106,-13,-5,-7,-7,64,-1039
731,8.323796,19,8,17,-2,59,-1017
732,8.335477,-9,-11,5,-3,63,-1016
733,8.347179,-2,-5,13,2,56,-1027
734,8.358772,-10,-7,5,0,67,-1009
735,8.370321,-5,1,3,5,60,-1020
736,8.381862,7,1,-24,2,65,-1014
737,8.393445,16,9,-21,0,59,-1023
738,8.405013,-24,-13,18,-6,61,-1023
739,8.416571,21,22,31,-2,70,-1027
740,8.428148,14,-13,18,4,57,-1015
741,8.439714,-22,0,-34,0,58,-1021
742,8.451338,-5,9,-1,-3,57,-1036
743,8.462991,-18,3,-20,0,65,-1012
744,8.474637,23,16,17,-2,60,-1021
745,8.486292,0,-22,12,2,65,-1027
746,8.497958,-12,16,11,3,63,-1027
747,8.509602,-7,-5,3,0,66,-1013
748,8.521254,12,-3,-2,-2,61,-1019
749,8.532963,3,4,24,-2,56,-1022
750,8.544626,-9,-3,12,0,62,-1023
751,8.556284,6,-13,-13,-5,65,-1023
752,8.567841,-28,7,-23,-1,59,-1014
753,8.579397,-7,19,7,0,65,-1024
754,8.590946,15,0,23,-2,72,-1033
755,8.602495,7,-18,19,2,60,-1021
756,8.614048,3,-20,12,2,58,-1032
757,8.625632,-23,-18,-3,-5,60,-1021
758,8.63718,-9,17,6,-6,64,-1028
759,8.648773,-7,14,10,2,62,-1023
760,8.660401,-7,8,-9,-4,59,-1033
761,8.672214,-5,-9,0,4,66,-1005
762,8.683872,-10,-1,9,4,62,-1034
763,8.695545,18,5,-10,3,63,-1010
764,8.707205,-12,-1,31,3,64,-1032
765,8.718854,10,-4,-10,-3,71,-1019
766,8.730508,-24,2,-29,0,62,-1025
767,8.742157,19,-4,42,2,61,-1013
768,8.753819,-4,15,-20,-4,64,-1019
769,8.765476,-15,11,-10,2,62,-1024
770,8.777057,24,-11,-3,5,61,-1032
771,8.788644,-6,-6,10,-1,55,-1018
772,8.800206,3,0,11,0,69,-1018
773,8.811773,7,-5,2,2,63,-1031
774,8.823318,11,1,12,-5,66,-1028
775,8.834902,13,13,-4,0,64,-1029
776,8.84644,9,-12,-8,-2,67,-1024
777,8.857995,-14,5,2,-7,57,-1022
778,8.869619,-1,8,12,-3,61,-1014
779,8.881269,13,-10,0,-4,57,-1025
780,8.892964,-10,0,-15,-10,70,-1021
781,8.904641,-3,10,-13,-7,58,-1019
782,8.916313,-4,0,13,0,61,-1019
783,8.927971,-11,-11,4,-2,57,-1025
784,8.93965,-6,16,7,0,62,-1024
785,8.951304,1,-15,5,-2,65,-1016
786,8.962966,6,-5,-13,-1,57,-1029
787,8.974618,14,11,-14,-4,63,-1018
788,8.986177,5,2,-15,-3,67,-1019
789,8.997725,-1,-6,11,-1,51,-1029
790,9.009275,-17,10,25,-2,63,-1027
791,9.020845,10,5,16,-1,62,-1015
792,9.03241,-19,6,-26,-5,65,-1029
793,9.043969,-10,17,-32,-5,61,-1017
794,9.055524,-3,4,-16,4,65,-1001
795,9.067092,-6,4,-1,-7,61,-1029
796,9.078714,-2,24,-13,3,61,-1044
797,9.090361,14,-21,-15,-5,56,-1023
798,9.102019,3,3,1,3,61,-1017
799,9.113661,-11,-3,10,2,65,-1019
800,9.12532,-3,-9,-9,0,62,-1033
801,9.137004,11,4,-11,-1,58,-1037
802,9.148693,18,0,1,6,60,-1026
803,9.160349,-11,-5,23,-2,65,-1031
804,9.172051,-6,8,38,0,60,-1017
805,9.18371,11,-6,11,3,54,-1026
806,9.195266,-12,12,-27,-1,66,-1024
807,9.206818,0,1,-11,-2,64,-1034
808,9.218388,-5,-1,-5,-2,66,-1015
809,9.229935,-11,20,-2,-5,70,-1018
810,9.241507,1,-16,-3,-5,60,-1003
811,9.253048,-1,0,0,4,61,-1029
812,9.264642,-7,5,26,2,53,-1017
813,9.276265,13,10,-22,0,66,-1033
814,9.28795,-4,4,1,-2,68,-1018
815,9.299609,-14,0,-2,-7,56,-1042
816,9.311282,14,2,-15,7,61,-1006
817,9.322944,-17,3,-13,-2,62,-1023
818,9.334595,-11,-4,-1,0,63,-1027
819,9.34625,-8,16,-27,-7,54,-1020
820,9.357891,-5,-1,-23,-3,62,-1024
821,9.369537,-6,0,-37,0,66,-1019
822,9.3812,1,-10,6,5,59,-1024
823,9.392733,-5,11,3,-1,59,-1020
824,9.404245,-5,2,9,5,65,-1019
825,9.415765,-16,-7,16,-5,63,-1036
826,9.427312,-5,-11,13,0,54,-1025
827,9.438882,-7,-19,14,1,59,-1008
828,9.45043,18,5,-5,0,65,-1034
829,9.462005,-7,5,-13,4,54,-1019
830,9.473511,3,6,-49,4,63,-1014
831,9.485147,8,11,-27,7,70,-1022
832,9.496825,-7,10,-18,-2,59,-1031
833,9.50853,2,13,-10,-4,65,-1025
834,9.520206,-5,-5,2,-5,61,-1034
835,9.531868,-4,12,-3,-3,68,-1018
836,9.543527,0,-2,7,-7,66,-1023
837,9.555202,-3,17,19,-5,66,-1025
838,9.566856,-3,-5,-2,0,68,-1022
839,9.5785,14,-4,-13,-3,67,-1019
840,9.590051,9,31,-19,9,73,-1029
841,9.601632,8,8,-8,-1,61,-1024
842,9.613168,-9,11,2,1,62,-1036
843,9.624729,-20,-15,27,-5,59,-1027
844,9.636305,6,-6,37,-8,63,-1022
845,9.647876,36,15,17,-4,51,-1019
846,9.659435,4,9,28,0,62,-1015
847,9.671023,7,0,34,7,59,-1022
848,9.682589,2,-20,13,-4,55,-1024
849,9.694217,10,-8,-4,2,63,-1020
850,9.705879,-9,-14,6,4,62,-1032
851,9.717535,6,-5,-21,-1,66,-1014
852,9.729203,6,13,-6,0,69,-1026
853,9.740836,-9,1,-12,-3,67,-1024
854,9.75249,-17,1,27,-5,61,-1028
855,9.764187,-11,5,33,-1,62,-1021
856,9.775855,23,-1,-6,2,65,-1031
857,9.787559,-20,3,-35,-6,59,-1042
858,9.799208,-33,-4,-22,0,62,-1014
859,9.810767,-8,-8,-32,-8,56,-1029
860,9.822325,-8,-5,-39,-3,58,-1036
861,9.833896,6,6,-4,-3,68,-1029
862,9.84545,5,-4,-3,-3,61,-1023
863,9.857077,10,10,7,-5,60,-1018
864,9.868643,-16,5,25,-1,53,-1027
865,9.880215,-2,-21,5,0,62,-1024
866,9.891767,0,-14,20,-2,69,-1030
867,9.903419,15,30,-5,4,63,-1033
868,9.915075,1,2,-22,3,69,-1012
869,9.926729,0,-3,45,-2,60,-1010
870,9.938378,31,8,37,-1,68,-1021
871,9.950027,-32,0,-29,3,63,-1037
872,9.961693,3,10,22,2,68,-1014
873,9.97334,-6,1,-7,-4,67,-1015
874,9.985015,6,-5,-11,-8,68,-1019
875,9.996708,6,1,19,-3,61,-1027
876,10.008366,-7,-1,-8,3,59,-1023
877,10.019921,2,-13,2,-2,57,-1018
878,10.031472,13,7,-19,-3,62,-1032
879,10.043087,5,7,-11,4,63,-1020
880,10.054773,25,1,-9,0,63,-1026
881,10.066378,-12,10,-21,0,71,-1023
882,10.077932,-26,-2,-16,10,71,-1027
883,10.089504,-16,11,-34,6,62,-1028
884,10.101067,-23,-4,-21,-2,59,-1021
885,10.112716,-23,9,-31,-1,63,-1032
886,10.124406,-6,5,-19,-2,64,-1025
887,10.136068,2,-4,-10,-6,67,-1028
888,10.147731,6,6,17,-9,58,-1018
889,10.159409,-8,-3,16,-1,61,-1019
890,10.171071,13,6,-18,-4,62,-1032
891,10.182731,-17,-3,10,-2,69,-1027
892,10.194405,-15,-3,11,0,62,-1027
893,10.206054,-2,-19,-16,-1,60,-1033
894,10.217634,-22,0,21,-5,68,-1012
895,10.229172,7,-11,49,-1,61,-1025
896,10.240732,33,2,38,-1,57,-1020
897,10.25229,8,-5,13,-5,71,-1025
898,10.263842,-13,-17,-2,-1,66,-1020
899,10.275388,-5,12,18,3,69,-1018
900,10.286951,-4,11,-2,-2,65,-1020
901,10.298503,-13,-2,7,0,64,-1025
902,10.310061,-4,-6,9,0,49,-1024
903,10.32171,13,7,7,2,59,-1028
904,10.333362,11,-8,15,-6,63,-1015
905,10.345072,18,23,-17,0,69,-1026
906,10.356728,-27,-14,-15,-3,64,-1024
907,10.368405,31,1,30,-3,65,-1035
908,10.380062,-7,11,-41,-3,65,-1017
909,10.391709,-8,-1,-2,-2,72,-1027
910,10.403374,32,2,19,-2,61,-1028
911,10.415071,-19,-18,4,4,69,-1010
912,10.426716,-3,0,-8,-7,67,-1033
913,10.438369,5,-1,12,1,53,-1022
914,10.450045,-3,8,16,3,66,-1020
915,10.4617,9,-7,0,0,63,-1010
916,10.473348,-7,-13,17,-8,55,-1015
917,10.485027,4,21,-18,-2,60,-1013
918,10.496694,21,-14,-8,-2,57,-1025
919,10.508383,-19,5,-7,2,61,-1018
920,10.520061,16,-17,5,-3,59,-1028
921,10.531708,9,10,-13,0,61,-1025
922,10.543361,-32,-11,-23,-4,68,-1008
923,10.555017,16,22,3,4,57,-1022
924,10.56669,13,-15,8,-5,54,-1018
925,10.578346,-1,7,8,5,65,-1023
926,10.589991,-10,2,-7,3,53,-1018
927,10.601645,4,2,-10,-3,58,-1022
928,10.613391,3,4,5,-9,60,-1010
929,10.625084,-13,-8,12,0,63,-1027
930,10.636646,20,40,-18,-4,59,-1033
931,10.648186,12,-14,-8,5,66,-1026
932,10.659758,-20,-8,-32,-3,63,-1031
933,10.671309,-22,8,-31,4,51,-1022
934,10.682894,-21,-6,-12,-6,67,-1012
935,10.694473,-26,0,-34,3,59,-1008
936,10.706024,-14,-26,21,2,68,-1014
937,10.717583,-18,-4,-2,2,61,-1014
938,10.729196,-9,28,-4,8,62,-1010
939,10.740838,1,12,-13,3,64,-1010
940,10.752496,8,-9,-3,-8,58,-1014
941,10.764189,0,0,13,-3,51,-1026
942,10.775852,-10,-6,13,-3,63,-1033
943,10.787528,-18,-23,12,5,56,-1031
944,10.799193,3,21,28,0,49,-1024
945,10.810843,10,-20,8,1,58,-1019
946,10.82253,-20,14,-16,-1,62,-1019
947,10.834205,1,-8,-20,3,66,-1025
948,10.845772,-24,-3,-31,4,56,-1028
949,10.857339,-16,14,-12,6,54,-1015
950,10.868896,14,13,4,-1,66,-1015
951,10.880556,-12,27,0,-2,69,-1015
952,10.89214,-3,-6,-13,-12,58,-1024
953,10.903766,6,-5,-1,2,57,-1022
954,10.915321,-11,-8,5,5,69,-1017
955,10.926901,11,12,-19,8,58,-1019
956,10.938523,18,-31,20,-5,67,-1023
957,10.950183,7,25,30,-3,55,-1025
958,10.961834,24,-2,20,-3,59,-1025
959,10.973504,-22,-4,-32,-1,65,-1030
960,10.985175,0,13,-1,5,57,-1033
961,10.996848,29,16,32,1,58,-1027
962,11.008537,15,-26,6,-3,63,-1023
963,11.02019,-18,1,5,-1,57,-1014
964,11.031875,-3,15,1,0,62,-1023
965,11.043547,-6,0,5,0,62,-1030
966,11.055135,3,-5,2,-11,57,-1016
967,11.066713,9,8,-20,-3,66,-1028
968,11.078279,13,-3,-25,4,54,-1026
969,11.089859,12,-5,-10,2,59,-1022
970,11.101426,-24,-17,-12,0,65,-1019
971,11.112986,-13,-12,-48,5,65,-1017
972,11.124538,-18,10,-25,3,67,-1014
973,11.136103,-7,14,-22,-1,54,-1015
974,11.147725,-6,-11,14,1,65,-1027
975,11.15938,-29,-8,-17,-7,64,-1022
976,11.171064,-3,25,-13,2,60,-1031
977,11.18271,15,-16,-5,-1,56,-1020
978,11.194359,-7,1,1,-4,67,-1020
979,11.206031,-9,11,14,-11,57,-1017
980,11.21769,-11,-1,-21,1,73,-1025
981,11.229338,17,8,-18,6,62,-1016
982,11.241025,2,-5,-8,-1,58,-1013
983,11.252671,-18,11,4,-6,59,-1029
984,11.264262,14,17,28,-2,59,-1019
985,11.275815,8,1,13,-3,58,-1033
986,11.287368,5,1,18,-6,58,-1017
987,11.298922,0,-9,-9,0,66,-1005
988,11.310517,29,3,14,-1,60,-1017
989,11.322066,-3,20,-16,-5,60,-1025
990,11.333619,15,-4,-8,4,62,-1036
991,11.345183,4,-7,-8,-18,68,-1025
992,11.356819,4,3,8,4,63,-1025
993,11.368564,-8,-5,-8,-7,69,-1029
994,11.380219,8,1,-12,-6,70,-1038
995,11.391869,6,-7,-7,-2,58,-1018
996,11.403541,-15,-5,1,-12,75,-1013
997,11.415185,-26,12,-21,-10,61,-1029
998,11.426841,4,9,13,0,56,-1018
999,11.438528,10,-8,28,6,62,-1019
1000,11.450195,-1,3,-15,-4,54,-1014
1001,11.461848,-24,-14,-3,3,59,-1024
1002,11.473432,-12,23,-2,10,66,-1022
1003,11.485009,-1,9,8,0,60,-1024
1004,11.496566,8,-5,-2,0,57,-1019
1005,11.508136,10,0,1,3,63,-1020
1006,11.519686,13,5,-23,4,59,-1032
1007,11.531234,14,5,-16,0,68,-1007
1008,11.542782,10,1,-2,10,63,-1017
1009,11.554337,-1,2,3,0,62,-1033
1010,11.56596,22,4,36,11,56,-1034
1011,11.577626,-20,7,-38,5,65,-1032
1012,11.589281,-6,10,-17,0,63,-1006
1013,11.600955,4,-9,24,-1,63,-1018
1014,11.612625,4,-26,10,-3,63,-1018
1015,11.624299,-14,-2,13,-3,53,-1019
1016,11.635962,-9,19,2,-4,64,-1016
1017,11.647653,3,-17,0,-8,55,-1027
1018,11.65932,5,0,-2,-1,71,-1018
1019,11.670988,7,6,-13,0,57,-1003
1020,11.682551,17,2,-9,-4,58,-1029
1021,11.694119,11,-1,-2,6,62,-1024
1022,11.705661,-13,2,28,-5,56,-1027
1023,11.717207,-14,4,28,0,61,-1024
1024,11.72876,11,-4,38,0,58,-1018
1025,11.740329,10,-8,20,4,57,-1018
1026,11.751889,7,3,31,-4,64,-1006
1027,11.763522,7,2,25,0,56,-1014
1028,11.775187,-16,13,3,-4,62,-1004
1029,11.786845,-5,19,11,-3,63,-1028
1030,11.798496,9,-16,-14,0,63,-1019
1031,11.810167,5,9,18,4,66,-1015
1032,11.821821,-11,-7,16,-4,61,-1024
1033,11.833477,8,2,6,0,59,-1025
1034,11.845141,16,-3,-9,0,60,-1034
1035,11.856814,-12,1,10,2,60,-1029
1036,11.868483,-15,1,28,2,67,-1037
1037,11.880153,5,-10,0,0,63,-1027
1038,11.891708,-3,-2,-4,-1,63,-1026
1039,11.903262,17,-3,46,0,56,-1019
1040,11.914847,7,-5,21,6,57,-1021
1041,11.926395,-17,12,-1,3,61,-1025
1042,11.937942,-3,16,12,-2,65,-1013
1043,11.949499,0,-13,-8,0,66,-1015
1044,11.961052,10,-4,-18,3,56,-1020
1045,11.972642,19,4,-13,3,55,-1022
1046,11.984352,16,7,0,3,59,-1029
1047,11.996048,-13,10,22,10,57,-1020
1048,12.007693,-1,0,23,0,67,-1013
1049,12.019345,21,6,-13,-1,57,-1018
1050,12.031025,5,5,18,4,68,-1019
1051,12.042671,5,-16,37,6,65,-1014
1052,12.054326,-3,4,0,3,68,-1022
1053,12.065991,-2,-3,-11,-1,58,-1030
1054,12.077673,-7,-23,-10,-1,62,-1019
1055,12.089343,3,9,-5,-2,58,-1022
1056,12.100948,-7,-5,12,-3,68,-1025
1057,12.112513,-3,-14,-6,6,51,-1024
1058,12.124083,22,9,-4,0,55,-1017
1059,12.135679,-4,2,-20,11,69,-1022
1060,12.147228,15,-6,-39,3,72,-1006
1061,12.158773,-4,9,50,-1,66,-1031
1062,12.170316,-7,-5,49,2,61,-1021
1063,12.181872,-8,30,41,5,60,-1009
1064,12.193573,3,12,29,-2,57,-1015
1065,12.205247,-2,15,12,-2,67,-1028
1066,12.216929,-7,0,-9,4,63,-1023
1067,12.228567,-3,4,-23,4,60,-1028
1068,12.24025,-10,-37,0,6,64,-1017
1069,12.251935,-9,-21,10,3,64,-1022
1070,12.263586,-14,4,21,-2,56,-1009
1071,12.275259,-14,9,9,0,59,-1032
1072,12.286927,-1,-12,2,0,69,-1020
1073,12.298585,-20,-4,25,3,74,-1026
1074,12.310145,-1,-10,17,-3,60,-1025
1075,12.321742,12,-9,-43,1,55,-1023
1076,12.333297,15,-11,-7,-3,63,-1015
1077,12.344864,13,21,35,5,68,-1017
1078,12.356424,-13,24,11,11,65,-1018
1079,12.368003,-25,8,-38,0,66,-1008
1080,12.379524,-6,1,-21,-2,60,-1017
1081,12.391121,14,-44,-4,5,60,-1009
1082,12.402746,3,-28,8,1,71,-1012
1083,12.414414,9,-27,15,-6,72,-1020
1084,12.42607,14,18,5,-4,58,-1024
1085,12.437723,16,1,10,-1,64,-1024
1086,12.449392,-8,8,7,-2,57,-1019
1087,12.461075,4,0,24,9,52,-1019
1088,12.472797,17,16,-30,-4,60,-1015
1089,12.484463,12,6,-15,5,59,-1024
1090,12.496179,-2,-7,-17,5,54,-1014
1091,12.507843,22,24,-15,2,59,-1020
1092,12.519399,25,23,11,1,66,-1023
1093,12.530954,-23,8,-29,-2,57,-1017
1094,12.542511,15,-18,-39,4,66,-1015
1095,12.554062,-6,-25,-7,-1,63,-1023
1096,12.565616,17,22,27,4,65,-1028
1097,12.577182,-11,-23,-21,-7,70,-1015
1098,12.58875,-2,-33,0,3,58,-1021
1099,12.600316,5,-5,-38,0,64,-1016
1100,12.611947,-4,13,28,3,64,-1020
1101,12.623614,-12,-4,8,-5,60,-1031
1102,12.635309,-4,-9,4,8,68,-1014
1103,12.646957,-12,-13,-12,4,61,-1039
1104,12.658629,12,-18,-6,0,57,-1029
1105,12.670296,17,12,5,-5,65,-1019
1106,12.68194,-10,3,7,-8,57,-1020
1107,12.693584,-10,17,24,7,60,-1025
1108,12.705277,6,29,-36,-2,50,-1009
1109,12.716943,-21,-1,-40,0,65,-1025
1110,12.728493,7,2,8,7,59,-1018
1111,12.740009,27,10,15,-4,59,-1012
1112,12.751579,15,0,34,-2,49,-1032
1113,12.763131,-6,4,-42,7,57,-1026
1114,12.774727,-11,13,-3,4,70,-1006
1115,12.786284,-7,4,31,-7,68,-1023
1116,12.797856,-3,6,6,-2,63,-1027
1117,12.809435,-11,17,-3,8,62,-1027
1118,12.821061,-6,21,28,-7,57,-1029
1119,12.832715,2,19,2,4,60,-1015
1120,12.844436,2,22,-28,-2,58,-1024
1121,12.856091,-6,-13,-38,2,58,-1023
1122,12.867785,12,-6,24,0,62,-1012
1123,12.879428,15,-19,68,-7,65,-1026
1124,12.891078,-7,-27,26,0,66,-1018
1125,12.902756,-14,-21,-4,6,63,-1019
1126,12.914421,4,-3,14,-10,65,-1019
1127,12.926083,-5,5,-43,8,64,-1029
1128,12.93765,-3,0,-4,-1,65,-1014
1129,12.949236,6,-13,-2,-3,58,-1042
1130,12.960789,0,-26,37,0,55,-1025
1131,12.972374,15,-12,-27,-1,58,-1032
1132,12.983927,0,19,17,-3,63,-1023
1133,12.995473,-12,12,17,8,55,-1023
1134,13.007022,12,17,-8,-6,61,-1027
1135,13.018612,4,-10,0,9,57,-1023
1136,13.030257,4,8,15,0,50,-1022
1137,13.041924,21,-10,26,2,60,-1019
1138,13.053575,-16,-9,10,-4,68,-1025
1139,13.065223,-27,-11,-6,1,59,-1011
1140,13.0769,-8,-10,-47,0,62,-1016
1141,13.088578,-3,2,-34,-8,62,-1028
1142,13.100232,-2,8,-9,0,65,-1022
1143,13.11191,5,12,30,-10,58,-1027
1144,13.1236,5,-33,29,0,61,-1022
1145,13.135277,-10,25,-22,-1,60,-1019
1146,13.146847,-5,27,2,9,69,-1023
1147,13.158398,-11,18,-4,0,63,-1026
1148,13.169949,-10,0,37,-2,54,-1031
1149,13.181498,-14,-13,4,-4,73,-1018
1150,13.193108,-3,-3,13,-8,66,-1014
1151,13.20467,15,-11,-36,-5,63,-1027
1152,13.216263,13,-15,-27,0,60,-1027
1153,13.227825,-5,-16,-39,6,61,-1019
1154,13.239444,25,-13,25,0,58,-1032
1155,13.251095,23,-15,24,-2,59,-1032
1156,13.262747,17,-20,24,-2,55,-1020
1157,13.274446,-12,7,18,0,68,-1019
1158,13.2878,7,42,12,0,58,-1024
1159,13.29956,-2,44,-15,-1,69,-1031
1160,13.311246,11,10,33,2,59,-1022
1161,13.322993,7,-1,5,6,63,-1014
1162,13.334764,-4,3,21,2,64,-1021
1163,13.346437,-4,0,33,0,66,-1022
1164,13.358004,-15,2,32,-5,71,-1029
1165,13.369566,-21,8,19,3,56,-1026
1166,13.381123,-5,14,-17,-6,65,-1020
1167,13.392674,15,39,-10,4,67,-1022
1168,13.404251,0,27,12,0,58,-1006
1169,13.415846,21,-16,58,4,60,-1019
1170,13.427395,15,21,4,-3,68,-1028
1171,13.438993,12,12,30,7,62,-1024
1172,13.450639,-21,-21,-26,5,66,-1019
1173,13.462295,-21,-2,-7,-1,65,-1017
1174,13.473946,2,0,-11,5,70,-1020
1175,13.485618,-6,8,29,3,61,-1031
1176,13.49728,3,10,38,-3,62,-1015
1177,13.508954,-3,5,-7,-4,60,-1010
1178,13.520637,2,2,-3,-5,56,-1014
1179,13.532304,-8,-3,8,1,63,-1024
1180,13.543974,-13,-9,20,-2,67,-1022
1181,13.555657,1,16,-28,9,63,-1019
1182,13.56726,5,-10,-64,0,54,-1020
1183,13.578811,18,-12,64,8,57,-1020
1184,13.590388,-32,-3,-23,0,53,-1023
1185,13.601934,12,23,-22,4,63,-1036
1186,13.613479,32,33,-31,-1,64,-1012
1187,13.625022,1,-2,-19,-1,66,-1036
1188,13.636563,5,0,20,2,68,-1021
1189,13.648146,-9,2,-22,2,65,-1008
1190,13.6598,5,-2,-11,9,56,-1016
1191,13.671457,7,-24,27,-13,65,-1009
1192,13.683139,17,-21,-8,3,57,-1022
1193,13.6948,7,-12,3,-2,69,-1021
1194,13.706446,10,-11,-24,0,59,-1036
1195,13.718112,16,-2,13,-3,69,-1020
1196,13.72979,1,-8,-9,8,65,-1020
1197,13.741438,9,-6,-36,5,65,-1023
1198,13.75311,14,-20,2,0,62,-1019
1199,13.764779,-18,-18,27,-2,61,-1023
1200,13.776372,20,10,41,-8,62,-1033
1201,13.787925,-9,1,-7,6,67,-1023
1202,13.79947,18,-12,29,5,59,-1009
1203,13.811021,-10,11,-46,-6,61,-1017
1204,13.822596,11,-4,-18,2,53,-1010
1205,13.834151,-11,-27,-3,-5,53,-1028
1206,13.845719,10,-22,38,-4,62,-1027
1207,13.85727,11,-6,-10,-2,68,-1040
1208,13.868923,18,-22,-15,-8,61,-1021
1209,13.880569,-13,-6,15,5,62,-1032
1210,13.892289,7,-23,-20,1,59,-1024
1211,13.90397,7,-9,1,5,61,-1022
1212,13.915663,13,-15,-36,-2,58,-1018
1213,13.927312,7,2,45,-3,67,-1028
1214,13.938963,-24,4,17,3,56,-1027
1215,13.95064,34,2,80,-2,61,-1029
1216,13.962348,30,-5,39,7,59,-1030
1217,13.974037,2,-1,12,-1,65,-1033
1218,13.985601,21,27,21,0,61,-1011
1219,13.997143,12,28,11,-2,58,-1023
1220,14.008723,-8,-24,-11,-7,63,-1022
1221,14.020254,6,-24,13,-2,58,-1020
1222,14.031807,14,-5,8,2,55,-1014
1223,14.043358,-3,0,6,-8,62,-1034
1224,14.054915,2,15,3,0,63,-1019
1225,14.066508,14,8,-31,-4,56,-1018
1226,14.078156,-4,10,1,3,60,-1031
1227,14.089817,-9,2,-1,2,59,-1024
1228,14.10147,-1,-23,-14,-10,59,-1023
1229,14.113151,17,-23,-23,0,65,-1022
1230,14.124836,27,-16,-6,-4,63,-1027
1231,14.136521,-29,-17,-28,-2,60,-1017
1232,14.148189,-12,-21,-15,2,72,-1029
1233,14.159838,17,0,11,4,68,-1018
1234,14.171544,-11,-35,-15,0,58,-1031
1235,14.183205,4,-16,0,-7,64,-1020
1236,14.194773,7,-6,-1,8,58,-1025
1237,14.206346,11,-3,3,3,67,-1021
1238,14.217896,-3,4,14,6,70,-1026
1239,14.22947,-9,2,13,-3,64,-1027
1240,14.241011,12,17,-2,-1,65,-1016
1241,14.252608,3,5,-2,-5,65,-1021
1242,14.264161,-28,-6,-1,5,64,-1021
1243,14.275721,16,22,32,-5,57,-1019
1244,14.287352,14,-13,9,-5,55,-1014
1245,14.299026,-18,7,-27,-3,62,-1025
1246,14.310681,-5,7,-16,2,58,-1032
1247,14.32233,19,-9,25,5,58,-1023
1248,14.334011,-12,26,-2,7,67,-1003
1249,14.345673,0,-10,4,1,61,-1011
1250,14.357317,-4,2,17,5,68,-1012
1251,14.368973,-1,-10,2,0,56,-1024
1252,14.380659,6,3,3,-2,63,-1027
1253,14.39235,-5,-14,10,0,66,-1025
1254,14.403913,12,29,-5,2,63,-1019
1255,14.415475,-5,-19,-34,-3,64,-1012
1256,14.427019,-24,13,-18,2,61,-1019
1257,14.438561,1,11,-2,-3,56,-1005
1258,14.450116,29,2,33,1,58,-1039
1259,14.46166,6,-7,3,0,57,-1012
1260,14.473208,-17,16,-8,1,71,-1030
1261,14.484744,6,7,-7,3,58,-1023
1262,14.496448,5,-19,10,-2,56,-1017
1263,14.50814,-9,-7,8,-4,60,-1010
1264,14.519797,2,-1,-3,5,56,-1020
1265,14.531447,11,4,4,2,65,-1019
1266,14.543115,-18,1,18,-4,59,-992
1267,14.554773,-23,-16,5,0,60,-1019
1268,14.566425,17,17,33,-8,57,-1028
1269,14.578075,14,-14,21,2,60,-1005
1270,14.589756,-17,6,-29,4,62,-1023
1271,14.601434,-15,-12,-6,7,56,-1026
1272,14.612999,-24,1,-9,8,62,-1027
1273,14.624609,16,14,-2,2,66,-1019
1274,14.636166,11,-20,15,-4,58,-1015
1275,14.647749,2,-9,-19,10,59,-1023
1276,14.659338,11,11,0,-2,61,-1022
1277,14.670879,-13,-6,0,-1,71,-1014
1278,14.682422,-13,0,33,9,59,-1022
1279,14.693985,-1,8,22,0,70,-1019
1280,14.705698,12,-24,-21,-2,69,-1023
1281,14.717356,-24,8,-12,0,60,-1024
1282,14.729033,7,4,8,-3,56,-1033
1283,14.740695,13,-5,26,6,57,-1036
1284,14.752379,-6,6,-9,1,72,-1028
1285,14.764054,-20,-17,-4,5,52,-1015
1286,14.775704,14,20,3,2,60,-1022
1287,14.787355,12,-13,-5,-2,66,-1024
1288,14.799031,20,-19,-6,2,62,-1029
1289,14.810624,-10,2,-2,0,58,-1017
1290,14.82221,-2,2,42,-1,53,-1019
1291,14.833756,5,7,-35,5,64,-1027
1292,14.845315,-12,-2,12,4,50,-1028
1293,14.856875,16,-8,2,-3,61,-1020
1294,14.868425,3,7,-2,3,66,-1026
1295,14.880007,17,36,6,-6,50,-1020
1296,14.891589,-32,6,12,3,64,-1023
1297,14.903136,-20,1,-29,2,70,-1021
1298,14.914799,19,-28,-36,4,66,-1028
1299,14.926465,-5,-27,-2,3,68,-1025
1300,14.938133,12,-25,-2,2,69,-1022
1301,14.949788,12,16,28,-2,66,-1020
1302,14.961444,10,33,-53,-2,59,-1006
1303,14.973111,6,8,28,10,61,-1036
1304,14.984805,9,2,-14,0,65,-1015
1305,14.996554,2,3,-10,1,61,-1023
1306,15.00834,0,2,-25,0,58,-1022
1307,15.020034,14,-4,-25,2,61,-1018
1308,15.031596,-12,-17,22,3,68,-1018
1309,15.043165,-12,-17,-10,-5,59,-1021
1310,15.054732,21,13,-2,5,73,-1022
1311,15.066313,-20,13,-35,8,67,-1023
1312,15.077857,-9,-24,30,-3,68,-1038
1313,15.089435,-20,-7,-43,-2,58,-1029
1314,15.100989,21,13,21,2,68,-1013
1315,15.112557,15,30,13,0,57,-1023
1316,15.124218,4,1,30,3,58,-1028
1317,15.135876,-8,4,-33,4,64,-1017
1318,15.147538,-7,6,-18,-2,60,-1029
1319,15.159208,-8,9,31,-3,55,-1016
1320,15.170892,0,11,3,-3,63,-1012
1321,15.182554,-10,7,11,2,62,-1028
1322,15.194252,-15,10,34,7,62,-1036
1323,15.2059,-17,9,23,0,63,-1029
1324,15.217562,-13,3,-23,1,66,-1018
1325,15.229243,-8,17,49,-11,62,-1026
1326,15.240808,-19,14,-54,2,58,-1022
1327,15.252375,31,5,32,-8,60,-1030
1328,15.263931,-1,-20,26,0,66,-1025
1329,15.27551,20,-13,14,7,61,-1013
1330,15.287086,-2,0,3,7,61,-1015
1331,15.298638,-6,7,-23,0,62,-1020
1332,15.310211,8,0,26,2,56,-1021
1333,15.321765,5,-10,7,-3,63,-1017
1334,15.333398,19,0,-7,3,63,-1018
1335,15.345112,5,-24,0,5,61,-1018
1336,15.356772,11,-9,-13,-2,65,-1014
1337,15.368437,16,-8,-1,-3,67,-1017
1338,15.380093,-13,9,16,-7,61,-1028
1339,15.391773,-10,13,33,3,67,-1041
1340,15.403427,-16,17,56,3,54,-1020
1341,15.415084,-9,8,41,0,63,-1018
1342,15.426766,-22,-16,-2,5,57,-1037
1343,15.43844,23,-5,28,-5,56,-1025
1344,15.450012,14,-7,46,-2,65,-1014
1345,15.461565,-1,14,2,12,60,-1021
1346,15.473123,0,8,-2,-1,58,-1027
1347,15.484721,13,4,9,5,70,-1014
1348,15.496258,18,3,24,-3,57,-1020
1349,15.50784,3,19,-17,1,62,-1019
1350,15.519384,-3,-13,13,8,67,-1041
1351,15.530949,8,-6,-2,3,53,-1012
1352,15.542573,3,-5,-24,-3,53,-1015
1353,15.554227,14,-9,-6,3,65,-1036
1354,15.565882,9,-22,-31,7,60,-1015
1355,15.577545,10,-17,-38,0,55,-1033
1356,15.589189,-31,-13,-18,-2,66,-1033
1357,15.600827,-30,3,-24,4,63,-1022
1358,15.612511,-9,12,4,3,62,-1025
1359,15.624172,-19,13,-20,-7,67,-1014
1360,15.635805,-1,-36,-21,-4,59,-1035
1361,15.647467,4,-30,6,1,62,-1026
1362,15.659019,19,-1,17,-1,59,-1010
1363,15.670584,15,-5,2,3,66,-1029
1364,15.682138,17,-2,6,-2,61,-1014
1365,15.693701,0,8,6,-3,61,-1013
1366,15.705262,11,3,-20,-4,62,-1027
1367,15.71682,18,18,-28,8,60,-1026
1368,15.728374,3,10,-3,-5,62,-1009
1369,15.739934,-7,18,12,-1,62,-1024
1370,15.75154,4,30,1,-6,61,-1031
1371,15.763194,27,26,33,1,60,-1018
1372,15.774868,14,23,44,7,56,-1018
1373,15.78652,24,0,56,-2,61,-1033
1374,15.798169,-12,-32,-21,2,64,-1026
1375,15.809849,6,-26,11,5,60,-1014
1376,15.821508,14,-4,18,4,59,-1014
1377,15.833156,11,16,12,-2,57,-1020
1378,15.844851,9,1,-24,-2,61,-1011
1379,15.856515,4,9,-14,0,65,-1022
1380,15.868092,9,2,9,-2,59,-1028
1381,15.879661,-3,-7,-21,0,61,-1025
1382,15.89121,-13,-6,36,-4,56,-1025
1383,15.902757,-4,-21,17,-6,59,-1020
1384,15.914326,-21,-12,8,-2,61,-1025
1385,15.925871,18,24,-5,0,60,-1027
1386,15.937421,30,27,-17,0,65,-1013
1387,15.948986,12,22,-49,-2,63,-1025
1388,15.960646,-10,-14,17,3,68,-1025
1389,15.972312,16,19,36,-3,65,-1018
1390,15.983987,-7,17,-5,0,65,-1031
1391,15.995674,-9,-2,12,2,72,-1014
1392,16.00735,1,1,-9,2,68,-1013
1393,16.019012,0,1,42,-3,56,-1030
1394,16.030671,3,-8,40,6,66,-1020
1395,16.042347,8,8,4,0,54,-1012
1396,16.054031,-11,7,11,0,56,-1022
1397,16.06571,0,12,20,0,57,-1040
1398,16.077271,11,18,-7,-11,68,-1024
1399,16.088874,17,2,-7,-3,59,-1015
1400,16.100428,-15,-7,9,-1,67,-1023
1401,16.112014,21,-15,24,-2,60,-1020
1402,16.123574,-11,-19,27,3,65,-999
1403,16.135135,-22,16,-56,-5,69,-1015
1404,16.14672,28,31,34,2,62,-1010
1405,16.158291,10,0,-25,-1,56,-1023
1406,16.169901,5,3,28,2,58,-1019
1407,16.181577,-6,-3,-13,10,66,-1020
1408,16.193272,-9,8,-18,-2,58,-1020
1409,16.204941,-6,17,24,-4,68,-1014
1410,16.216569,12,-5,-21,6,69,-1015
1411,16.228242,4,-3,3,-5,62,-1031
1412,16.239912,-10,-4,0,-1,62,-1019
1413,16.251539,-10,10,16,-6,53,-1027
1414,16.263223,5,7,-12,2,62,-1023
1415,16.27488,-14,11,30,0,65,-1030
1416,16.286463,3,2,-60,0,67,-1031
1417,16.298012,22,-9,29,-3,59,-1010
1418,16.309561,-6,-25,28,8,57,-1020
1419,16.32111,8,0,12,7,64,-1015
1420,16.332661,-10,15,-28,-3,58,-1029
1421,16.34424,10,-6,38,2,60,-1022
1422,16.355826,-8,-1,-28,-3,63,-1007
1423,16.367387,5,16,12,-7,61,-1003
1424,16.37901,15,0,0,-6,58,-1015
1425,16.390666,17,-6,-5,-1,59,-1027
1426,16.402314,0,0,4,-13,57,-1019
1427,16.413962,7,-5,5,-1,65,-1023
1428,16.425631,-10,-11,-4,-3,62,-1031
1429,16.437276,13,-15,0,-2,58,-1010
1430,16.449003,12,-9,-43,0,66,-1028
1431,16.46069,15,-12,-33,1,63,-1024
1432,16.472387,-14,-21,-41,8,53,-1016
1433,16.484042,9,-21,1,2,66,-1008
1434,16.495601,24,-5,39,-4,50,-1020
1435,16.507207,-12,6,-18,1,61,-1012
1436,16.518765,0,30,-1,-5,62,-1034
1437,16.530335,-13,8,-23,0,63,-1009
1438,16.541878,-11,-31,10,-3,60,-1015
1439,16.55345,23,2,6,5,67,-1013
1440,16.565004,-15,25,-16,3,70,-1024
1441,16.576593,16,9,-13,-1,48,-1018
1442,16.58826,-10,-8,22,-3,56,-1037
1443,16.599929,-2,7,27,5,60,-1028
1444,16.611608,-14,10,3,-5,54,-1020
1445,16.623263,-15,3,8,-5,56,-1025
1446,16.634911,0,27,20,-5,58,-1004
1447,16.646565,-28,0,13,0,58,-1023
1448,16.658214,-20,19,1,14,64,-994
1449,16.669869,-18,0,-31,8,61,-1024
1450,16.681544,-5,17,-3,-3,72,-1012
1451,16.693201,2,-33,-5,-8,58,-1015
1452,16.704743,11,20,22,0,61,-1012
1453,16.716331,1,36,-21,-5,64,-1020
1454,16.727894,-12,5,32,-3,67,-1018
1455,16.739453,9,-4,-26,-2,77,-1017
1456,16.750997,-2,-8,-3,7,64,-1029
1457,16.76254,-10,-16,24,3,57,-1014
1458,16.774096,15,1,-26,-1,58,-1019
1459,16.785652,-22,3,16,-1,68,-1012
1460,16.797289,19,33,-11,1,57,-1032
1461,16.808956,23,28,-18,1,60,-1019
1462,16.820633,33,14,3,0,60,-1018
1463,16.832302,17,24,-41,6,61,-1025
1464,16.843958,21,21,5,0,65,-1011
1465,16.855659,26,24,30,-3,67,-999
1466,16.867306,-15,-17,-5,-3,61,-1022
1467,16.878957,-17,8,-19,5,64,-1025
1468,16.890639,-3,-1,-12,-2,70,-1021
1469,16.902289,6,0,-15,-1,55,-1022
1470,16.913848,11,1,-6,-3,61,-1022
1471,16.925448,-3,-3,4,0,57,-1022
1472,16.936995,0,-21,18,-13,61,-1022
1473,16.948572,14,18,-1,0,59,-1018
1474,16.960157,25,22,0,-6,62,-1019
1475,16.971709,-16,-26,-33,2,66,-1022
1476,16.98325,-20,1,-33,-7,67,-1020
1477,16.994818,-21,-18,-1,0,59,-1037
1478,17.00644,13,4,12,5,56,-1024
1479,17.018095,26,0,31,-3,60,-1031
1480,17.029763,-14,-19,3,1,67,-1026
1481,17.041446,-7,6,4,-4,62,-1033
1482,17.053121,-8,8,-16,8,70,-1021
1483,17.064794,5,-4,-11,1,67,-1029
1484,17.076455,3,6,3,6,56,-1024
1485,17.088135,-1,-6,7,1,57,-1024
1486,17.099807,7,14,-17,4,63,-1027
1487,17.111512,-10,-25,-14,10,63,-1016
1488,17.123081,-6,17,16,-6,68,-1019
1489,17.134626,18,1,35,3,53,-1022
1490,17.146175,35,10,59,-4,58,-1038
1491,17.157745,8,-7,13,3,61,-1022
1492,17.16931,-14,-16,2,5,65,-1023
1493,17.180875,1,21,-4,2,55,-1012
1494,17.192463,11,-8,-9,8,62,-1029
1495,17.204026,4,3,16,0,65,-1019
1496,17.215678,-11,-12,9,3,57,-1010
1497,17.227329,12,2,15,-4,63,-1017
1498,17.239011,-15,-7,9,0,57,-1019
1499,17.250649,-7,-5,1,0,66,-1020
1500,17.262304,-27,-3,6,-12,59,-1026
1501,17.273984,27,1,29,-2,62,-1013
1502,17.285648,-21,8,-26,-5,60,-1012
1503,17.297336,13,5,32,5,62,-1019
1504,17.309028,-24,2,-15,0,52,-1013
1505,17.32073,10,6,-6,-3,65,-1019
1506,17.332247,-3,-9,18,-6,58,-1025
1507,17.343767,-2,15,9,-1,66,-1026
1508,17.355315,5,-4,-11,-4,64,-1029
1509,17.366869,0,6,-2,8,70,-1018
1510,17.378459,-6,1,-4,0,58,-1027
1511,17.390008,10,2,-21,-3,61,-1021
1512,17.401566,-15,-3,19,0,62,-1029
1513,17.413113,-10,-22,-33,7,60,-1012
1514,17.424743,-17,8,-6,-2,67,-1025
1515,17.436426,17,-11,34,2,58,-1024
1516,17.448055,-10,12,-40,3,66,-1031
1517,17.45977,-31,-11,-16,0,63,-1022
1518,17.471441,10,28,-8,-4,69,-1010
1519,17.483114,-4,-21,10,-5,62,-1019
1520,17.494764,2,8,11,-10,54,-1024
1521,17.506441,9,5,-11,-7,60,-1004
1522,17.518121,-8,-5,0,2,64,-1027
1523,17.529775,-5,0,-13,-1,61,-1028
1524,17.541334,13,6,-12,-3,63,-1015
1525,17.552949,12,0,0,2,55,-1019
1526,17.564495,0,14,25,5,62,-1028
1527,17.576074,27,-1,33,-3,55,-1022
1528,17.587647,-1,-16,-16,-1,57,-1031
1529,17.5992,-7,15,-25,-4,55,-1025
1530,17.610747,-3,2,6,2,67,-1018
1531,17.622326,14,-28,12,7,53,-1012
1532,17.634031,-10,4,6,-12,65,-1024
1533,17.645709,2,-14,0,8,63,-1024
1534,17.657379,5,5,-4,6,63,-1019
1535,17.669082,-13,-11,21,-1,67,-1014
1536,17.680767,-12,-3,17,-2,61,-1019
1537,17.692452,-7,13,19,3,62,-1017
1538,17.70414,16,-2,-13,3,68,-1011
1539,17.715799,8,17,20,-2,56,-1023
1540,17.727492,0,-9,-1,-8,65,-1023
1541,17.739182,-7,5,-25,6,60,-1029
1542,17.750738,-10,12,-29,-3,59,-1022
1543,17.762283,-8,22,-13,0,68,-1030
1544,17.77383,5,19,3,3,68,-1027
1545,17.785442,8,-19,2,0,59,-1022
1546,17.796992,3,8,-11,-5,66,-1033
1547,17.808571,-8,12,15,-4,63,-1013
1548,17.820132,-8,-1,0,2,65,-1032
1549,17.831695,7,3,-16,-2,61,-1023
1550,17.843317,5,0,-7,0,55,-1034
1551,17.854983,-6,15,3,-3,56,-1022
1552,17.866638,6,-3,-25,2,65,-1022
1553,17.878351,-8,16,-5,-5,60,-1027
1554,17.890013,12,-9,40,3,68,-1019
1555,17.901664,0,-2,19,5,65,-1017
1556,17.913332,-2,6,-11,10,62,-1030
1557,17.92499,14,-7,10,-1,63,-1021
1558,17.936658,-10,18,16,-1,56,-1023
1559,17.948313,-5,5,8,3,63,-1017
1560,17.959885,6,0,-6,5,55,-1032
1561,17.971455,11,5,-15,7,61,-1013
1562,17.983024,-4,-3,10,-1,61,-1034
1563,17.994582,-18,8,7,-5,63,-1027
1564,18.006125,-3,2,1,14,60,-1034
1565,18.017671,19,-4,-17,-11,56,-1020
1566,18.029241,4,9,22,5,57,-1022
1567,18.040821,6,0,26,4,63,-1017
1568,18.052496,0,-5,18,1,66,-1022
1569,18.064178,5,6,14,1,67,-1032
1570,18.075793,-1,0,-21,-1,66,-1025
1571,18.087445,-1,0,3,-12,57,-1021
1572,18.099119,-3,-8,0,-4,60,-1015
1573,18.110766,9,3,-13,4,69,-1022
1574,18.122415,-17,0,19,0,57,-1021
1575,18.134081,7,1,-2,-2,52,-1034
1576,18.14574,13,-5,1,-1,60,-1012
1577,18.157313,-14,0,10,4,60,-1031
1578,18.168869,-12,1,37,5,63,-1022
1579,18.180442,12,2,-32,7,60,-1013
1580,18.192004,-8,14,-24,6,66,-1027
1581,18.203524,2,-5,-13,3,56,-1016
1582,18.215071,-4,5,-16,3,67,-1011
1583,18.226615,10,-9,17,2,56,-1027
1584,18.238198,6,-16,-4,-2,59,-1027
1585,18.249814,8,10,-7,4,59,-1023
1586,18.261485,-3,9,12,-7,61,-1020
1587,18.27316,7,-21,20,8,56,-1017
1588,18.284847,-16,-6,-7,-2,60,-1016
1589,18.296509,-13,2,10,0,64,-1029
1590,18.308178,18,-7,-23,-1,60,-1018
1591,18.319858,-15,4,-35,-2,57,-1031
1592,18.331524,-15,-4,3,8,57,-1028
1593,18.343185,-5,5,-25,-5,60,-1023
1594,18.35485,-2,-12,-3,6,59,-1021
1595,18.366441,5,-1,-15,-2,61,-1015
1596,18.377991,5,-6,12,2,59,-1020
1597,18.389538,8,-10,-5,0,71,-1017
1598,18.401112,11,2,-7,-1,65,-1018
1599,18.412671,-14,11,20,-4,69,-1028
1600,18.424241,11,-9,14,4,59,-1020
1601,18.435818,12,23,-19,0,63,-1022
1602,18.447383,0,8,14,5,58,-1019
1603,18.459003,-5,-5,32,-2,59,-1016
1604,18.470665,7,10,-46,-5,61,-1018
1605,18.482324,-27,-5,-21,4,68,-1016
1606,18.493985,4,6,11,-8,60,-1019
1607,18.505634,1,3,17,-2,68,-1027
1608,18.517282,-8,1,-2,0,62,-1014
1609,18.528968,1,-2,-8,2,53,-1023
1610,18.540626,-9,0,-6,3,67,-1027
1611,18.552323,16,5,-9,-2,62,-1016
1612,18.563973,-20,6,19,6,59,-1021
1613,18.578202,13,2,-11,0,62,-1027
1614,18.589816,-4,-2,10,-1,61,-1021
1615,18.601373,-13,11,22,0,63,-1017
1616,18.612932,23,0,25,-6,59,-1018
1617,18.624488,4,8,-28,-4,65,-1017
1618,18.636083,9,2,25,5,70,-1017
1619,18.647665,0,-4,20,-2,63,-1028
1620,18.659237,5,-5,9,-4,65,-1022
1621,18.670809,-9,1,2,-5,60,-1025
1622,18.68236,-2,11,-7,2,62,-1015
1623,18.693927,4,8,7,-4,66,-1022
1624,18.705451,-16,-2,3,1,61,-1006
1625,18.716994,19,-9,14,1,70,-1024
1626,18.728561,-7,3,-7,0,71,-1014
1627,18.74013,-9,11,16,-3,62,-1009
1628,18.751693,3,-6,8,4,62,-1029
1629,18.763311,21,1,13,-2,51,-1028
1630,18.774943,-6,4,-31,-2,60,-1031
1631,18.786622,4,-11,31,1,55,-1014
1632,18.798297,10,0,35,3,62,-1021
1633,18.809947,0,0,19,-5,69,-1023
1634,18.82161,-3,3,16,-3,62,-1028
1635,18.833259,6,-8,1,2,64,-1018
1636,18.844944,0,-6,-5,-6,54,-1015
1637,18.856626,14,-1,-18,-1,65,-1026
1638,18.86831,-9,10,-13,-1,68,-1013
1639,18.879976,-13,-25,17,5,69,-1024
1640,18.891654,-20,11,31,-3,61,-1010
1641,18.9033,-13,9,21,3,55,-1038
1642,18.914947,-4,-11,38,-5,59,-1018
1643,18.926613,32,11,29,-1,71,-1027
1644,18.938258,-4,5,-24,3,57,-1022
1645,18.949915,-3,0,-19,3,63,-1019
1646,18.961586,7,-2,13,-1,59,-1023
1647,18.97327,2,-9,7,2,54,-1015
1648,18.98498,-6,0,-11,-7,67,-1025
1649,18.996643,-13,8,15,-1,58,-1026
1650,19.008331,6,-14,11,6,65,-1031
1651,19.020039,11,22,-14,0,65,-1023
1652,19.031724,-19,-25,13,2,60,-1027
1653,19.043372,8,-4,-6,7,68,-1025
1654,19.055026,11,0,-36,0,59,-1015
1655,19.066706,-13,8,-36,9,54,-1014
1656,19.078434,-24,-5,-41,-7,66,-1020
1657,19.090071,1,-2,3,-1,63,-1040
1658,19.101623,-7,1,-40,2,67,-1016
1659,19.113178,3,-5,-3,-2,58,-1023
1660,19.124732,5,-7,15,-2,61,-1010
1661,19.13625,-9,-12,10,3,55,-1026
1662,19.147765,17,4,-9,-1,58,-1025
1663,19.159312,-20,6,11,-10,58,-1034
1664,19.170893,2,-26,22,3,63,-1027
1665,19.182461,17,16,-18,-4,66,-1023
1666,19.194122,-17,4,-10,-8,67,-1034
1667,19.205784,-5,-4,36,2,52,-1022
1668,19.217437,26,2,48,1,60,-1020
1669,19.229111,-24,-5,-18,-5,63,-1017
1670,19.240806,21,7,21,2,60,-1025
1671,19.252485,0,7,3,2,60,-1019
1672,19.264136,-3,-5,-10,0,58,-1025
1673,19.275856,8,0,32,-2,69,-1014
1674,19.28767,9,0,8,10,58,-1015
1675,19.299241,-2,-20,0,5,62,-1025
1676,19.310814,4,-15,6,-1,60,-1010
1677,19.322367,9,31,-11,0,59,-1031
1678,19.333919,1,24,27,-4,66,-1016
1679,19.345477,-4,-5,-17,-1,65,-1019
1680,19.357046,23,-1,17,-1,66,-1013
1681,19.368623,-28,-9,-24,2,59,-1016
1682,19.380246,24,11,20,6,60,-1015
1683,19.391814,-18,-2,-22,7,54,-1023
1684,19.403527,0,5,13,3,56,-1014
1685,19.415176,2,1,-16,0,64,-1022
1686,19.426852,-5,-1,15,2,63,-1026
1687,19.438508,7,7,-9,4,57,-1014
1688,19.45015,22,-3,0,-2,62,-1023
1689,19.461791,-21,-16,12,-12,66,-1023
1690,19.473467,24,23,-17,-1,68,-1024
1691,19.485109,-22,11,14,3,61,-1022
1692,19.496763,4,-17,-19,0,65,-1022
1693,19.508324,12,15,-12,0,64,-1026
1694,19.519969,-14,0,-14,-2,67,-1029
1695,19.53153,30,0,25,3,60,-1029
1696,19.543113,-25,7,-11,9,64,-1028
1697,19.554692,1,4,0,-1,68,-1012
1698,19.566259,4,-5,-3,-3,66,-1039
1699,19.577811,3,9,17,10,59,-1025
1700,19.589362,-13,-3,0,6,63,-1015
1701,19.601007,-3,2,-20,-4,68,-1026
1702,19.612717,-3,0,16,0,53,-1039
1703,19.624385,4,-16,-28,-1,72,-1026
1704,19.636073,-17,10,7,3,62,-1015
1705,19.647735,23,0,34,-7,60,-1030
1706,19.659387,0,8,-6,0,57,-1014
1707,19.671049,-22,-2,-19,-5,59,-1019
1708,19.682716,30,3,16,-1,65,-1019
1709,19.694389,-16,-9,0,0,64,-1044
1710,19.706067,4,6,-9,2,63,-1031
1711,19.717732,3,-2,-6,0,62,-1024
1712,19.729382,6,9,-6,-1,59,-1012
1713,19.741079,-9,2,10,0,61,-1025
1714,19.752812,10,-1,-15,8,60,-1018
1715,19.764483,4,17,11,0,61,-1024
1716,19.776177,16,-2,-18,5,51,-1029
1717,19.787859,-22,-11,-36,3,55,-1024
1718,19.799596,7,16,23,3,57,-1025
1719,19.811266,11,-11,22,-5,67,-1019
1720,19.822816,32,14,41,-3,53,-1007
1721,19.834358,-15,-20,-2,1,62,-1024
1722,19.8459,-14,-16,8,2,63,-1019
1723,19.857442,-9,32,-1,2,59,-1037
1724,19.869014,-7,0,1,-1,58,-1034
1725,19.880568,5,-8,-1,-1,58,-1027
1726,19.892134,7,3,2,3,53,-1016
1727,19.903695,-4,-10,30,-2,61,-1023
1728,19.915405,-13,-10,15,0,56,-1017
1729,19.927058,31,6,11,-1,56,-1025
1730,19.938719,-28,1,-42,0,56,-1033
1731,19.950378,21,-4,33,-1,55,-1029
1732,19.962021,-3,4,0,4,59,-1024
1733,19.973668,-28,7,-16,0,68,-1028
1734,19.985336,26,-4,12,-7,67,-1033
1735,19.996992,-7,-18,3,-5,59,-1017
1736,20.008653,10,-6,2,0,55,-1016
1737,20.020322,5,2,2,-13,59,-1017
1738,20.031897,-12,-1,4,-13,62,-1018
1739,20.043456,11,5,-27,2,69,-1023
1740,20.055028,-11,-7,0,3,60,-1005
1741,20.066589,-12,24,-14,-2,63,-1027
1742,20.07819,-3,-14,-28,3,53,-1017
1743,20.089761,-27,-8,-32,4,66,-1010
1744,20.101348,-16,18,-17,-2,68,-1023
1745,20.112932,-5,-3,-8,-5,67,-1026
1746,20.124589,-21,6,-11,-3,70,-1031
1747,20.136254,15,-20,10,-1,60,-1019
1748,20.147922,-9,14,3,0,70,-1006
1749,20.159611,7,-12,11,1,63,-1003
1750,20.17127,12,10,-5,3,57,-1012
1751,20.182924,-11,-1,14,-11,66,-1022
1752,20.194601,5,3,-24,-3,61,-1024
1753,20.206261,16,-14,-10,-6,53,-1025
1754,20.217919,-18,12,9,0,64,-1022
1755,20.229613,7,-20,-14,-6,69,-1028
1756,20.241168,-25,-1,-26,-2,65,-1018
1757,20.25275,12,2,22,-8,58,-1025
1758,20.264313,6,-7,32,5,63,-1028
1759,20.275891,-7,-17,2,-1,74,-1027
1760,20.287495,-14,-19,6,1,58,-1010
1761,20.299136,0,22,-8,9,61,-1021
1762,20.310693,5,5,11,-3,66,-1019
1763,20.322291,3,-12,2,-3,65,-1018
1764,20.333953,-3,-2,13,-4,55,-1024
1765,20.345618,-11,-6,11,3,68,-1015
1766,20.357268,14,0,-11,-3,57,-1024
1767,20.368982,0,-9,6,-5,56,-1009
1768,20.380633,-22,-11,-37,7,61,-1015
1769,20.392316,14,20,29,4,68,-1015
1770,20.403983,-4,-6,-6,-2,61,-1014
1771,20.415656,2,9,-29,1,67,-1019
1772,20.42733,21,-1,15,-2,59,-1025
1773,20.43901,-11,-13,4,0,65,-1022
1774,20.450624,-4,12,14,0,65,-1017
1775,20.462183,4,-13,-16,-4,62,-1022
1776,20.473726,8,14,14,0,57,-1017
1777,20.485273,-15,-3,0,-4,61,-1015
1778,20.496845,11,3,0,4,66,-1033
1779,20.5084,6,-12,-4,0,60,-1017
1780,20.519952,-13,4,21,7,61,-1023
1781,20.531531,23,19,-34,8,57,-1020
1782,20.54321,16,0,29,-13,65,-1016
1783,20.554881,5,-5,14,5,60,-1023
1784,20.566534,2,0,1,0,68,-1022
1785,20.578192,-2,5,-17,3,57,-1018
1786,20.589849,-2,-14,-1,1,65,-1028
1787,20.60151,-3,8,14,-8,68,-1028
1788,20.613156,9,-13,-8,9,60,-1028
1789,20.624884,-9,3,17,4,65,-1039
1790,20.63659,-1,-1,-12,-6,62,-1022
1791,20.648195,13,3,-16,-4,65,-1013
1792,20.659793,9,-6,10,7,62,-1018
1793,20.671339,-15,7,21,1,66,-1027
1794,20.682897,9,3,25,7,59,-1032
1795,20.694443,-16,0,-36,-3,58,-1024
1796,20.705992,-6,9,-25,6,62,-1032
1797,20.71754,-1,0,-30,-2,66,-1031
1798,20.729097,-8,6,-34,-1,50,-1015
1799,20.740723,14,-1,5,0,59,-1014
1800,20.752388,-6,1,-8,-1,58,-1023
1801,20.764062,-3,-1,16,-4,61,-1018
1802,20.775725,6,0,-21,0,48,-1028
1803,20.787382,2,14,8,2,63,-1022
1804,20.799035,-14,-8,6,5,62,-1028
1805,20.810719,6,-2,-12,-3,64,-1019
1806,20.822387,4,-8,-13,-2,69,-1020
1807,20.834069,-23,7,-22,7,63,-1015
1808,20.845745,15,-3,29,4,67,-1020
1809,20.857308,0,5,1,8,63,-1024
1810,20.868858,2,0,18,5,58,-1020
1811,20.880414,1,6,6,0,60,-1024
1812,20.891991,-7,-1,-2,5,62,-1025
1813,20.903533,10,-13,-14,2,58,-1027
1814,20.915079,1,7,3,-8,63,-1019
1815,20.926662,-9,0,17,2,57,-1036
1816,20.938213,15,-8,6,5,60,-1028
1817,20.949927,2,-6,-4,-4,60,-1019
1818,20.961729,-11,-1,19,3,62,-1016
1819,20.973395,-10,6,30,0,55,-1034
1820,20.985099,22,2,-19,5,62,-1022
1821,20.99675,-5,-8,2,-4,72,-1028
1822,21.008436,3,17,-15,4,61,-1015
1823,21.020144,-7,0,-16,4,65,-1024
1824,21.031796,8,-3,13,0,58,-1029
1825,21.043464,6,-5,-6,-5,60,-1017
1826,21.055166,1,-2,-19,3,56,-1019
1827,21.066735,-1,1,14,-14,61,-1012
1828,21.078304,-16,-5,20,-2,66,-1023
1829,21.089855,19,0,11,-2,62,-1013
1830,21.10144,8,-6,7,4,59,-1019
1831,21.113011,-17,-9,28,3,56,-1024
1832,21.124568,-13,-1,23,52,25,-1039
1833,21.136132,6,-11,41,78,4,-909
1834,21.147698,26,0,38,-12,53,-1019
1835,21.159267,2,6,13,15,58,-995
1836,21.170823,7,6,21,0,69,-1034
1837,21.182424,-7,5,2,-8,64,-1007
1838,21.194007,-6,7,-15,-13,75,-1015
1839,21.205551,11,11,15,-3,58,-1009
1840,21.217092,-10,-4,3,9,62,-1001
1841,21.228652,-2,-14,15,16,59,-1004
1842,21.240228,13,12,-15,7,73,-1022
1843,21.251837,4,-8,-6,0,64,-1024
1844,21.263495,-18,9,31,59,17,-896
1845,21.275173,9,-7,32,33,-3,-934
1846,21.286845,18,7,-2,0,22,-929
1847,21.298505,-32,-4,-43,26,73,-1020
1848,21.310206,4,0,27,-20,76,-1023
1849,21.321854,2,6,9,14,50,-1020
1850,21.333507,-6,9,-7,-3,59,-1012
1851,21.345184,4,-11,-8,12,38,-1021
1852,21.356856,8,2,13,16,36,-1015
1853,21.368561,1,17,10,18,56,-977
1854,21.380155,-21,-2,14,-11,78,-1063
1855,21.391735,-3,-25,26,28,31,-1096
1856,21.403292,7,19,2,2,68,-1005
1857,21.41484,18,-3,-7,-28,78,-1048
1858,21.426386,-6,5,-43,2,71,-1005
1859,21.437933,-21,2,-38,-11,66,-1018
1860,21.449513,-6,-4,0,-1,69,-1028
1861,21.461074,6,17,-4,8,56,-1035
1862,21.472718,7,0,16,15,53,-1016
1863,21.484383,1,0,17,4,68,-1018
1864,21.496052,-8,7,-2,1,57,-1008
1865,21.507712,6,1,-23,-1,67,-1021
1866,21.519361,-12,-7,7,-6,59,-1025
1867,21.531001,-1,20,-13,5,62,-1019
1868,21.542647,-17,-30,18,10,64,-1024
1869,21.554337,13,27,7,2,59,-1024
1870,21.565997,19,1,-30,-4,63,-1036
1871,21.577667,3,14,-39,-2,69,-1039
1872,21.589252,-32,0,-41,-4,58,-1022
1873,21.600819,14,5,15,-1,57,-1020
1874,21.612429,26,2,14,2,51,-1019
1875,21.62402,7,-2,21,-5,59,-1036
1876,21.635564,3,1,4,4,60,-1026
1877,21.647113,-12,2,-4,-1,63,-1019
1878,21.658663,6,-6,-13,-3,65,-1015
1879,21.670224,9,-4,15,-10,57,-1009
1880,21.681853,2,-11,22,-1,61,-1019
1881,21.693517,3,6,-22,10,60,-1031
1882,21.7052,-23,-4,21,5,62,-1039
1883,21.716838,12,-9,-15,7,49,-1016
1884,21.7285,-24,-3,-5,-7,72,-1025
1885,21.740196,26,0,29,-14,61,-1027
1886,21.751855,-4,-3,2,-3,64,-1020
1887,21.763552,-25,-12,-15,1,59,-1032
1888,21.775244,-5,2,-19,9,66,-1016
1889,21.786902,9,-5,1,7,66,-1018
1890,21.798452,-1,6,12,5,68,-1010
1891,21.809993,-13,-8,12,2,62,-1036
1892,21.821547,14,5,-16,0,57,-1005
1893,21.833097,-17,-13,2,3,61,-1010
1894,21.84466,-13,-2,14,-4,60,-1022
1895,21.856236,-3,22,28,3,66,-1013
1896,21.867768,18,-11,6,-2,57,-1035
1897,21.879323,0,-5,-32,-1,58,-1019
1898,21.890948,-31,0,-35,-8,59,-1025
1899,21.902602,8,17,-4,-8,65,-1012
1900,21.914271,19,-15,15,0,65,-1022
1901,21.925938,-18,15,-3,11,62,-1034
1902,21.937593,0,1,-1,0,70,-1023
1903,21.949238,8,7,7,6,57,-1024
1904,21.960893,0,7,14,2,69,-1033
1905,21.972567,-18,-10,4,-2,58,-1031
1906,21.984236,-16,-17,18,-5,65,-1028
1907,21.995893,13,26,10,-5,59,-1042
1908,22.00745,0,-29,-29,-12,57,-1020
1909,22.019014,-22,6,-17,7,63,-1032
1910,22.03057,1,11,6,9,61,-1000
1911,22.042173,20,9,26,0,65,-1024
1912,22.053734,14,-12,16,-5,68,-1016
1913,22.065284,-21,-8,-1,0,53,-1031
1914,22.076908,-3,28,-12,1,62,-1024
1915,22.088513,10,9,-8,12,64,-1028
1916,22.10021,9,7,-7,-1,59,-1007
1917,22.111868,-9,-7,-2,5,55,-1023
1918,22.123542,17,5,-13,-5,74,-1027
1919,22.13525,-13,-7,-4,-2,72,-1030
1920,22.146915,10,-15,-28,8,63,-1036
1921,22.158584,-21,12,-12,-4,60,-1035
1922,22.170231,-12,25,-16,4,62,-1016
1923,22.181883,17,-8,32,-3,67,-1023
1924,22.19357,6,-5,17,8,69,-1027
1925,22.205235,-18,-15,-6,4,51,-1025
1926,22.216793,-7,16,-11,0,63,-1018
1927,22.228375,16,-10,0,-1,61,-1019
1928,22.239949,-5,0,10,-3,54,-1024
1929,22.251515,0,7,12,-9,60,-1022
1930,22.263076,-9,-3,-12,-3,69,-1034
1931,22.274668,9,1,-22,2,60,-1025
1932,22.286222,15,-3,-14,-1,68,-1020
1933,22.297792,-10,20,27,-1,62,-1030
1934,22.30939,24,20,35,6,67,-1018
1935,22.321093,-2,-17,-11,-4,58,-1033
1936,22.332757,-13,9,-21,2,66,-1028
1937,22.344432,-8,10,-25,0,55,-1018
1938,22.356104,17,9,10,10,57,-1014
1939,22.367794,-1,-14,3,-5,62,-1017
1940,22.37945,9,-20,0,-1,68,-1026
1941,22.391105,-6,20,19,6,65,-1017
1942,22.402772,3,3,-8,6,65,-1017
1943,22.414425,12,7,4,5,59,-1034
1944,22.42602,-10,-9,21,0,57,-1012
1945,22.437578,0,-2,17,-3,58,-1019
1946,22.449151,14,4,-4,-3,56,-1022
1947,22.460715,21,6,41,5,48,-1014
1948,22.472248,-2,-7,-19,-8,65,-1011
1949,22.483766,-10,4,-18,4,62,-1032
1950,22.495311,-4,7,-28,-11,67,-1025
1951,22.506891,18,19,1,4,65,-1020
1952,22.518524,11,-23,7,0,63,-1014
1953,22.53019,-7,13,8,-14,57,-1022
1954,22.541848,1,-10,7,1,73,-1016
1955,22.553499,15,3,-8,-8,60,-1018
1956,22.565151,-11,-13,27,4,61,-1020
1957,22.576836,5,9,18,-2,64,-1023
1958,22.588488,1,1,-3,-6,61,-1022
1959,22.600179,4,-5,-5,-10,54,-1032
1960,22.611854,24,5,32,-2,55,-1031
1961,22.62351,12,-10,21,3,64,-1023
1962,22.635095,1,-1,-5,1,61,-1023
1963,22.646664,-5,2,-6,0,62,-1022
1964,22.658219,-4,18,-16,4,57,-1026
1965,22.669779,9,2,6,2,63,-1011
1966,22.681324,10,-16,-10,-1,64,-1020
1967,22.692895,8,7,-8,0,63,-1018
1968,22.704472,-3,11,17,-2,57,-1023
1969,22.716034,-10,2,25,2,59,-1008
1970,22.727735,3,6,7,0,63,-1023
1971,22.739414,10,-6,-5,-1,61,-1024
1972,22.751078,-13,15,32,5,56,-1006
1973,22.762727,5,5,10,-4,67,-1031
1974,22.77438,15,-19,25,6,62,-1018
1975,22.786042,11,0,43,-11,62,-1022
1976,22.797698,5,10,15,-6,63,-1020
1977,22.809343,-1,0,-18,-1,47,-1031
1978,22.821017,15,-11,-3,-6,71,-1023
1979,22.832694,-9,2,-3,5,60,-1024
1980,22.84435,-6,6,8,5,58,-1026
1981,22.856047,0,-1,-1,6,70,-1015
1982,22.867723,7,0,-8,-3,69,-1019
1983,22.879393,-13,4,7,0,59,-1043
1984,22.891072,7,6,-8,1,61,-1020
1985,22.90273,6,-1,-27,4,57,-1019
1986,22.914377,12,-12,7,-2,64,-1015
1987,22.926041,-14,17,-36,6,55,-1031
1988,22.937592,4,-1,-10,4,64,-1029
1989,22.949148,3,1,13,11,57,-1028
1990,22.960723,11,1,33,0,59,-1019
1991,22.972266,7,-14,-11,3,55,-1032
1992,22.983824,5,-5,-2,-5,61,-1034
1993,22.995387,5,-4,-19,1,61,-1006
1994,23.006942,15,1,-21,9,60,-1011
1995,23.018528,8,-1,-12,4,66,-1028
1996,23.030082,-8,-3,0,2,62,-1026
1997,23.041733,-5,11,2,8,57,-1021
1998,23.053384,-5,0,-17,-9,65,-1022
1999,23.065074,-6,-14,38,-4,60,-1021
