sample,t_s,gyro_x,gyro_y,gyro_z,accel_x,accel_y,accel_z
0,1.3e-05,1,1,0,1032,-3,-1552
1,0.01124,1,1,-1,1031,1,-1546
2,0.022442,0,1,1,1031,1,-1546
3,0.033594,1,-1,0,1031,-1,-1542
4,0.044776,1,1,2,1029,3,-1547
5,0.055959,0,1,-2,1029,-2,-1545
6,0.067142,3,-1,1,1030,-1,-1543
7,0.078336,2,0,0,1027,-2,-1548
8,0.089525,1,1,0,1031,0,-1550
9,0.100711,1,0,-2,1028,2,-1536
10,0.111895,1,0,0,1032,-2,-1544
11,0.123078,0,1,0,1030,2,-1542
12,0.134267,1,1,0,1033,1,-1543
13,0.145409,1,1,0,1023,0,-1541
14,0.156597,-1,-1,-2,1031,2,-1545
15,0.16778,0,1,-2,1030,2,-1545
16,0.17897,-1,2,0,1031,0,-1546
17,0.190147,1,2,0,1034,-2,-1542
18,0.201328,1,-1,0,1036,-2,-1542
19,0.212509,2,1,1,1031,-4,-1545
20,0.22369,-1,0,-2,1030,-5,-1544
21,0.234873,-1,0,-2,1028,-5,-1546
22,0.246074,2,1,0,1030,0,-1542
23,0.257255,1,1,0,1030,0,-1539
24,0.268437,-1,1,-1,1036,1,-1540
25,0.279618,0,-2,2,1035,-4,-1548
26,0.290803,0,-1,-1,1031,2,-1547
27,0.301963,0,1,0,1025,0,-1547
28,0.313145,-2,2,2,1031,-1,-1549
29,0.324323,0,1,0,1031,-1,-1552
30,0.335505,0,1,-3,1028,-5,-1546
31,0.346693,0,-1,-1,1030,-1,-1543
32,0.357887,0,1,0,1032,0,-1539
33,0.36907,-1,1,0,1029,-5,-1545
34,0.380251,-1,1,1,1029,-2,-1544
35,0.391431,-2,-2,0,1033,0,-1539
36,0.402619,0,2,0,1031,-2,-1544
37,0.41378,-1,1,1,1027,2,-1539
38,0.424962,0,0,-1,1032,0,-1542
39,0.436143,2,-3,2,1032,2,-1540
40,0.44734,-1,-2,2,1030,0,-1544
41,0.458548,0,0,-1,1031,-1,-1545
42,0.469736,1,1,2,1031,-1,-1542
43,0.480921,1,0,1,1029,-1,-1545
44,0.492105,-2,-3,-1,1029,0,-1542
45,0.503286,1,2,0,1031,-1,-1541
46,0.514471,1,3,1,1029,0,-1548
47,0.525653,2,1,1,1029,0,-1545
48,0.536836,3,1,2,1027,0,-1545
49,0.548016,-1,0,0,1029,-2,-1551
50,0.559196,0,2,0,1031,-2,-1541
51,0.570385,2,0,-2,1030,0,-1539
52,0.581573,1,0,1,1031,1,-1538
53,0.59276,0,0,0,1028,0,-1544
54,0.603942,0,0,1,1031,4,-1543
55,0.615129,0,1,0,1031,2,-1548
56,0.626323,1,0,0,1031,0,-1541
57,0.637515,1,-1,-1,1029,0,-1542
58,0.648704,3,0,-1,1031,4,-1536
59,0.659886,1,-1,0,1034,-1,-1548
60,0.671074,0,1,1,1034,0,-1550
61,0.682261,2,0,-1,1028,-3,-1541
62,0.69341,1,-1,1,1029,-3,-1545
63,0.704592,2,0,0,1032,-1,-1534
64,0.715771,1,1,0,1030,0,-1550
65,0.726959,1,0,0,1029,3,-1545
66,0.738148,-1,-1,0,1031,0,-1542
67,0.74933,0,1,1,1031,-1,-1546
68,0.760517,-1,1,-1,1028,-3,-1545
69,0.771698,1,-2,-1,1026,1,-1542
70,0.782884,0,-1,1,1031,-4,-1542
71,0.794083,1,-1,0,1028,-1,-1545
72,0.805264,2,-1,0,1030,-1,-1539
73,0.816447,1,1,1,1031,0,-1549
74,0.82763,-1,-1,0,1027,-3,-1544
75,0.838819,-2,0,2,1033,-5,-1545
76,0.849967,-1,0,-2,1030,-3,-1538
77,0.86116,0,1,-2,1033,-1,-1542
78,0.872342,0,3,0,1035,-2,-1548
79,0.883525,-1,2,1,1029,1,-1543
80,0.894716,0,-1,1,1031,3,-1544
81,0.905903,0,-2,0,1034,0,-1546
82,0.917092,1,1,-1,1029,2,-1545
83,0.928276,-1,-2,0,1027,0,-1542
84,0.93948,0,0,1,1029,4,-1545
85,0.950664,1,0,-1,1030,0,-1548
86,0.96185,1,-1,0,1031,-1,-1538
87,0.973035,1,-1,2,1029,-1,-1536
88,0.984222,1,-1,0,1031,0,-1533
89,0.995405,1,2,0,1032,1,-1545
90,1.006591,-1,-1,0,1027,-3,-1540
91,1.017779,2,-1,1,1030,-1,-1548
92,1.028964,-1,1,-1,1031,0,-1540
93,1.040152,0,0,1,1033,-2,-1541
94,1.051337,1,1,-2,1029,0,-1543
95,1.062523,2,1,0,1034,0,-1538
96,1.07371,2,2,-1,1031,0,-1548
97,1.084896,0,3,0,1030,0,-1541
98,1.09608,2,0,-1,1032,2,-1548
99,1.107269,0,-1,0,1031,0,-1546
100,1.118457,-1,0,-1,1027,3,-1547
101,1.129645,1,2,1,1031,0,-1539
102,1.140826,1,0,0,1030,0,-1539
103,1.152006,0,-1,1,1030,5,-1550
104,1.163189,0,0,1,1030,3,-1548
105,1.174336,0,-1,0,1028,0,-1544
106,1.185523,0,1,-1,1028,-1,-1543
107,1.196706,1,1,0,1030,-3,-1540
108,1.207888,0,1,1,1031,1,-1541
109,1.219072,0,0,-2,1031,-4,-1545
110,1.23026,1,1,-1,1031,1,-1539
111,1.241409,1,2,1,1036,0,-1544
112,1.252595,-1,2,0,1030,-1,-1548
113,1.263781,2,-2,0,1027,-1,-1545
114,1.274971,-1,0,-1,1027,-1,-1544
115,1.286152,-1,1,1,1031,0,-1541
116,1.297336,3,0,-2,1028,-1,-1539
117,1.30852,-2,-1,1,1032,-1,-1546
118,1.319702,0,1,1,1030,-1,-1549
119,1.330885,0,0,2,1032,0,-1548
120,1.342075,-1,-1,-2,1033,0,-1540
121,1.353257,0,0,0,1031,-3,-1542
122,1.36444,0,0,2,1031,0,-1544
123,1.375621,0,1,-1,1031,0,-1544
124,1.386805,2,0,1,1031,1,-1544
125,1.397961,0,-1,0,1030,1,-1544
126,1.409144,1,-1,-1,1029,0,-1546
127,1.420339,1,2,1,1031,1,-1544
128,1.431522,0,1,0,1031,0,-1547
129,1.442706,-1,2,-2,1032,-1,-1541
130,1.453896,1,0,1,1028,-1,-1547
131,1.46508,1,-1,0,1031,0,-1540
132,1.476266,1,1,1,1032,0,-1549
133,1.487461,-2,-2,0,1031,1,-1543
134,1.498656,0,-1,0,1028,-1,-1544
135,1.509841,0,2,0,1031,3,-1542
136,1.521026,-1,0,3,1032,3,-1543
137,1.532207,1,-1,0,1031,1,-1541
138,1.543388,1,0,-1,1030,1,-1548
139,1.554567,0,-1,1,1031,0,-1550
140,1.565747,0,1,0,1029,-2,-1539
141,1.576931,2,0,-1,1027,-3,-1543
142,1.588118,0,0,-2,1031,0,-1541
143,1.599302,-1,1,1,1025,0,-1545
144,1.610488,-1,0,0,1028,-1,-1545
145,1.621675,-1,2,-1,1029,-3,-1539
146,1.632863,2,1,-2,1032,-4,-1541
147,1.644051,1,0,-2,1031,1,-1542
148,1.655235,-2,1,0,1030,-1,-1545
149,1.666429,1,2,1,1035,-3,-1548
150,1.677594,2,0,-1,1034,0,-1540
151,1.688776,0,1,1,1031,0,-1540
152,1.699957,1,0,0,1033,0,-1553
153,1.711138,0,0,2,1031,0,-1537
154,1.72233,-1,1,0,1024,0,-1539
155,1.733521,-1,1,0,1033,-1,-1542
156,1.744705,0,2,-1,1025,2,-1546
157,1.755889,-1,-1,1,1031,-1,-1543
158,1.767071,0,-3,-3,1029,0,-1545
159,1.778265,1,1,1,1030,-2,-1542
160,1.78941,0,0,0,1034,-1,-1542
161,1.800593,0,3,0,1025,-3,-1540
162,1.811775,0,0,-3,1026,0,-1551
163,1.822957,-1,0,1,1026,0,-1542
164,1.834149,2,0,2,1028,-5,-1544
165,1.84533,-1,0,1,1027,0,-1543
166,1.856514,2,-1,1,1029,1,-1545
167,1.867696,1,1,1,1030,1,-1546
168,1.878884,0,-2,0,1031,0,-1546
169,1.890094,1,-1,-2,1029,3,-1545
170,1.901276,1,1,-1,1025,1,-1548
171,1.912458,1,0,0,1034,1,-1544
172,1.92364,0,2,0,1031,-3,-1542
173,1.934825,1,0,0,1031,0,-1547
174,1.946009,1,0,1,1027,0,-1541
175,1.957192,0,0,2,1031,2,-1544
176,1.968377,0,1,-1,1032,-1,-1543
177,1.979563,0,1,0,1030,0,-1538
178,1.990749,1,2,-1,1030,0,-1541
179,2.001936,1,3,1,1031,0,-1542
180,2.013115,-1,0,2,1027,1,-1546
181,2.024295,-1,1,1,1032,1,-1538
182,2.035481,-1,0,2,1029,0,-1544
183,2.046663,2,-1,0,1031,4,-1540
184,2.057847,-1,3,0,1029,0,-1540
185,2.069028,1,1,0,1032,-2,-1540
186,2.080213,-2,1,-1,1028,-1,-1549
187,2.091397,0,1,-1,1027,0,-1547
188,2.102584,1,3,1,1029,0,-1543
189,2.113781,1,1,-1,1028,0,-1544
190,2.124962,0,2,3,1029,0,-1548
191,2.136145,-1,2,1,1031,0,-1542
192,2.147339,1,0,0,1029,4,-1542
193,2.158524,1,0,1,1033,0,-1541
194,2.169714,1,1,0,1031,2,-1548
195,2.1809,2,0,-1,1029,0,-1546
196,2.192084,0,-1,0,1031,4,-1545
197,2.203277,0,1,0,1028,0,-1543
198,2.214459,-1,1,-1,1026,-1,-1541
199,2.22565,2,0,0,1029,-2,-1546
200,2.236831,1,1,-1,1031,-3,-1540
201,2.248015,2,-2,-2,1033,-1,-1547
202,2.259201,3,0,-1,1030,2,-1549
203,2.270384,0,-1,1,1029,0,-1542
204,2.281568,0,1,0,1030,4,-1552
205,2.292753,1,1,0,1034,1,-1545
206,2.303934,-1,-1,1,1031,1,-1543
207,2.315114,1,2,1,1031,0,-1540
208,2.326298,-1,1,1,1028,0,-1547
209,2.337483,1,1,0,1031,-3,-1543
210,2.348668,1,0,0,1033,0,-1542
211,2.359866,1,0,1,1031,0,-1544
212,2.371046,0,1,0,1031,0,-1543
213,2.382233,1,1,1,1031,-4,-1542
214,2.393409,0,0,0,1029,-2,-1541
215,2.404596,1,1,-1,1029,2,-1543
216,2.41578,0,2,1,1025,0,-1542
217,2.426968,-1,1,-1,1029,-1,-1544
218,2.43815,1,-2,-1,1031,4,-1543
219,2.449333,-1,2,0,1030,-1,-1548
220,2.460513,0,0,3,1032,6,-1542
221,2.471695,1,1,3,1030,-2,-1539
222,2.482874,1,0,-1,1032,0,-1548
223,2.494069,-1,1,1,1031,0,-1539
224,2.50525,1,0,0,1031,4,-1537
225,2.516431,-1,-2,0,1029,-1,-1538
226,2.527613,2,1,1,1032,-2,-1541
227,2.538798,1,1,0,1032,1,-1541
228,2.549965,0,2,0,1027,-1,-1546
229,2.561146,-1,1,-1,1030,-2,-1546
230,2.572329,-1,0,0,1028,-1,-1534
231,2.583511,1,0,1,1031,4,-1549
232,2.594691,0,0,0,1031,-1,-1550
233,2.60589,0,2,-1,1029,-1,-1543
234,2.617073,1,-1,0,1030,-3,-1541
235,2.628255,-2,0,0,1031,0,-1542
236,2.63944,0,1,-3,1033,-1,-1545
237,2.650628,2,0,0,1031,0,-1541
238,2.661779,1,1,1,1031,0,-1546
239,2.672961,3,2,0,1028,-3,-1549
240,2.684143,0,0,2,1031,0,-1548
241,2.695336,0,2,2,1031,0,-1542
242,2.706516,0,0,2,1031,-1,-1537
243,2.717706,0,2,-3,1030,-1,-1545
244,2.728887,1,1,-1,1027,-2,-1543
245,2.740068,0,-1,0,1031,3,-1544
246,2.751252,-1,0,0,1031,2,-1548
247,2.762445,0,2,0,1031,-3,-1541
248,2.773595,0,0,-1,1031,-1,-1547
249,2.784776,0,-1,-3,1031,-1,-1546
250,2.79596,0,0,-1,1031,-4,-1551
251,2.807142,0,-1,-1,1031,0,-1545
252,2.818334,1,-2,0,1029,0,-1549
253,2.829521,2,0,1,1026,-5,-1546
254,2.840743,0,1,-1,1030,-1,-1541
255,2.85193,2,1,1,1032,-1,-1541
256,2.863122,1,-1,0,1029,0,-1542
257,2.874323,1,1,-1,1030,-2,-1546
258,2.885517,1,-2,0,1029,0,-1542
259,2.896701,0,0,0,1032,-1,-1544
260,2.907885,3,-1,0,1029,-2,-1543
261,2.919072,3,0,-1,1030,-3,-1544
262,2.930261,1,-1,1,1026,-2,-1548
263,2.941409,1,0,0,1031,2,-1543
264,2.952591,0,0,2,1032,4,-1545
265,2.963771,0,1,2,1031,-1,-1547
266,2.974953,-1,-1,1,1031,0,-1550
267,2.986146,0,0,1,1034,3,-1542
268,2.997328,0,-1,-1,1031,0,-1542
269,3.008514,0,1,3,1028,3,-1547
270,3.0197,1,0,0,1028,1,-1545
271,3.030885,1,1,1,1027,0,-1543
272,3.042077,1,-1,1,1029,2,-1538
273,3.053264,1,-1,1,1030,2,-1544
274,3.064457,1,2,0,1030,0,-1541
275,3.075643,1,1,-1,1028,0,-1544
276,3.086829,1,3,-1,1030,4,-1545
277,3.098017,2,0,0,1031,-3,-1548
278,3.109199,1,-1,2,1029,0,-1542
279,3.120388,0,-1,0,1031,-3,-1548
280,3.131577,0,-1,-1,1030,-7,-1540
281,3.142767,0,2,0,1034,3,-1544
282,3.153963,0,-1,0,1035,-3,-1546
283,3.165147,-1,-1,3,1030,-2,-1542
284,3.17633,2,0,1,1031,0,-1539
285,3.187515,-1,0,0,1031,-3,-1545
286,3.19871,0,-2,0,1033,-1,-1547
287,3.209899,0,1,0,1033,0,-1548
288,3.221087,1,3,0,1031,0,-1546
289,3.23227,0,1,1,1029,0,-1546
290,3.243457,1,2,1,1032,2,-1540
291,3.254654,-1,-1,1,1030,0,-1540
292,3.26584,-1,0,-3,1029,1,-1540
293,3.27703,0,-1,0,1029,0,-1542
294,3.288212,0,-1,0,1031,0,-1544
295,3.299413,-1,1,0,1031,0,-1554
296,3.310599,2,0,2,1028,0,-1542
297,3.321781,-1,0,0,1031,-1,-1548
298,3.332969,2,1,-1,1027,-4,-1550
299,3.34415,1,-1,-2,1029,-1,-1545
300,3.355337,0,1,0,1032,0,-1544
301,3.366518,-1,0,-2,1031,-1,-1544
302,3.377714,1,-2,-1,1032,-1,-1545
303,3.388899,2,0,2,1026,-4,-1543
304,3.400113,-1,-1,0,1029,1,-1547
305,3.411405,0,0,-1,1030,-1,-1542
306,3.422592,-1,1,0,1031,-1,-1540
307,3.433802,0,0,0,1030,4,-1540
308,3.444986,1,0,0,1031,2,-1548
309,3.456174,2,1,1,1030,-2,-1544
310,3.467349,2,2,1,1030,-3,-1548
311,3.478575,0,-3,0,1024,-1,-1549
312,3.489887,1,1,3,1029,-3,-1548
313,3.501086,0,-1,-1,1032,-3,-1542
314,3.51228,0,1,0,1027,-1,-1538
315,3.52347,0,-2,-1,1031,1,-1542
316,3.534689,0,1,-2,1026,-2,-1540
317,3.54595,0,1,-1,1030,0,-1544
318,3.557177,1,0,0,1033,-1,-1540
319,3.568364,1,2,0,1033,4,-1538
320,3.579549,1,1,1,1031,-2,-1536
321,3.59074,-1,0,-1,1030,0,-1544
322,3.601927,1,-2,-1,1031,0,-1551
323,3.613112,-1,0,1,1033,0,-1546
324,3.624296,1,1,-1,1032,-4,-1551
325,3.63548,1,1,0,1031,-2,-1545
326,3.646667,-1,0,-1,1033,0,-1541
327,3.657866,0,0,1,1030,0,-1540
328,3.669046,1,-3,0,1027,1,-1545
329,3.68023,-1,0,0,1032,-1,-1543
330,3.691418,1,1,-1,1028,0,-1546
331,3.7026,0,0,1,1031,0,-1545
332,3.71378,1,-1,1,1029,0,-1548
333,3.724963,0,2,0,1028,-3,-1548
334,3.736147,2,0,-2,1030,-6,-1543
335,3.747333,0,1,0,1033,-3,-1548
336,3.758515,0,1,1,1030,0,-1543
337,3.769708,0,0,0,1031,-4,-1548
338,3.780889,1,0,-1,1028,1,-1538
339,3.792071,1,0,0,1033,0,-1542
340,3.803254,0,-2,0,1030,1,-1546
341,3.814447,0,-3,1,1030,0,-1543
342,3.825595,1,1,-1,1030,0,-1540
343,3.836781,0,1,0,1029,2,-1544
344,3.847965,1,4,0,1032,2,-1543
345,3.859149,1,2,-1,1031,0,-1544
346,3.870333,0,-1,-1,1029,-3,-1546
347,3.881522,-1,0,1,1027,0,-1547
348,3.892706,-2,0,1,1030,-3,-1545
349,3.903888,1,1,0,1028,-1,-1543
350,3.915081,0,-1,-1,1029,-1,-1546
351,3.926267,0,-3,1,1031,0,-1543
352,3.937419,0,0,2,1031,0,-1544
353,3.949008,1,-1,0,1030,2,-1540
354,3.960671,0,2,1,1030,1,-1545
355,3.972316,0,1,0,1031,1,-1548
356,3.983964,0,1,0,1030,-5,-1550
357,3.995638,-1,-2,-2,1032,-1,-1542
358,4.007282,0,-2,-2,1029,-4,-1538
359,4.018956,0,-2,0,1028,0,-1548
360,4.030636,1,-1,1,1034,0,-1541
361,4.042303,0,1,1,1031,1,-1544
362,4.053974,0,-1,1,1030,-1,-1542
363,4.065644,0,-1,-2,1031,1,-1544
364,4.077288,1,1,-1,1030,0,-1545
365,4.088939,0,1,0,1032,-4,-1538
366,4.100604,1,0,0,1030,0,-1544
367,4.11226,1,2,-1,1030,-2,-1544
368,4.123914,0,-1,1,1030,-3,-1548
369,4.135558,2,1,-3,1030,0,-1541
370,4.147226,-2,2,0,1029,1,-1546
371,4.15889,0,-1,-1,1025,1,-1541
372,4.170542,0,0,0,1029,0,-1547
373,4.182235,-1,0,1,1031,0,-1541
374,4.193898,0,-1,1,1031,0,-1542
375,4.205567,1,0,0,1029,4,-1546
376,4.217214,0,0,1,1032,3,-1546
377,4.228887,0,1,0,1031,-2,-1542
378,4.240537,1,1,0,1030,-1,-1544
379,4.252214,-1,0,1,1029,-2,-1542
380,4.263887,0,1,-1,1031,0,-1543
381,4.275531,0,2,1,1028,0,-1546
382,4.287196,0,-1,-1,1034,2,-1543
383,4.298887,1,1,0,1028,-1,-1542
384,4.310548,-1,1,0,1034,0,-1542
385,4.322221,0,0,-1,1029,0,-1543
386,4.333903,0,1,0,1031,-1,-1541
387,4.345581,1,0,1,1031,0,-1546
388,4.357259,-1,0,0,1031,0,-1546
389,4.368947,1,-1,0,1031,3,-1547
390,4.380504,-1,0,2,1031,0,-1539
391,4.392113,-2,0,0,1031,-3,-1542
392,4.403667,-1,0,-3,1033,1,-1548
393,4.415234,0,-1,1,1031,0,-1545
394,4.426782,2,-1,-2,1028,0,-1539
395,4.438328,0,-1,-2,1031,0,-1544
396,4.44991,3,0,-2,1028,-1,-1542
397,4.4615,2,0,0,1030,1,-1547
398,4.473119,-1,3,-2,1028,0,-1545
399,4.484787,2,0,1,1028,5,-1549
400,4.496438,-1,-1,1,1027,0,-1550
401,4.508093,0,0,0,1030,1,-1544
402,4.519752,0,-1,1,1029,0,-1542
403,4.531408,2,1,0,1032,-1,-1541
404,4.543051,-2,0,2,1030,-2,-1541
405,4.554744,-1,0,1,1033,0,-1549
406,4.566398,-1,0,0,1031,-3,-1538
407,4.577916,1,2,0,1029,0,-1538
408,4.589447,-1,3,-2,1028,1,-1540
409,4.601001,2,-1,-1,1030,0,-1547
410,4.612558,-1,1,-1,1035,2,-1543
411,4.624109,1,0,0,1030,-1,-1547
412,4.635667,-2,1,0,1030,0,-1552
413,4.647256,1,2,-1,1034,2,-1545
414,4.658857,2,2,-1,1029,0,-1542
415,4.670419,-1,0,3,1032,-1,-1543
416,4.682047,1,0,-1,1029,-3,-1546
417,4.693709,0,0,0,1029,-6,-1542
418,4.705358,1,0,0,1027,0,-1547
419,4.717011,0,0,1,1030,0,-1549
420,4.728661,1,0,-1,1029,1,-1537
421,4.740326,2,0,-1,1032,2,-1544
422,4.751968,1,-1,1,1031,-3,-1542
423,4.76365,1,2,0,1030,2,-1544
424,4.77536,1,2,-1,1033,-2,-1546
425,4.787028,1,0,3,1031,-1,-1546
426,4.798591,0,-1,-2,1030,-1,-1538
427,4.810163,0,-2,1,1031,-1,-1542
428,4.821766,2,1,0,1031,-2,-1539
429,4.833317,0,1,1,1031,-3,-1545
430,4.844885,-1,0,0,1030,2,-1545
431,4.856427,0,2,2,1027,-3,-1546
432,4.867969,1,1,0,1027,4,-1548
433,4.879524,-1,1,-1,1033,1,-1545
434,4.891163,2,1,2,1026,-2,-1545
435,4.902818,1,0,0,1028,0,-1536
436,4.914492,0,1,0,1034,-3,-1548
437,4.926165,0,0,1,1028,0,-1538
438,4.937842,0,3,0,1033,-1,-1545
439,4.949513,1,-1,1,1031,0,-1548
440,4.961181,1,0,0,1029,0,-1545
441,4.972834,2,1,-2,1028,-2,-1543
442,4.98449,0,0,1,1026,0,-1540
443,4.99616,1,3,-1,1029,0,-1552
444,5.007768,-1,1,1,1033,-3,-1543
445,5.019367,-1,1,1,1035,-2,-1544
446,5.030917,-1,-1,0,1031,1,-1541
447,5.042464,0,2,1,1030,-2,-1552
448,5.054049,1,-2,0,1035,-2,-1546
449,5.065623,-1,0,0,1030,-2,-1543
450,5.07718,0,0,0,1032,-2,-1543
451,5.088789,-1,0,1,1030,-2,-1541
452,5.100478,1,0,1,1033,0,-1540
453,5.112145,0,1,-1,1031,0,-1541
454,5.123813,1,1,4,1031,-1,-1547
455,5.135466,-1,1,-1,1030,-2,-1549
456,5.147115,1,-1,1,1033,-3,-1539
457,5.15875,0,-2,2,1030,-1,-1536
458,5.170405,1,0,0,1028,-4,-1545
459,5.182105,0,1,-1,1029,-5,-1544
460,5.193727,1,-1,-1,1033,-3,-1544
461,5.205444,0,-2,-2,1032,2,-1540
462,5.217028,0,-1,1,1031,-1,-1543
463,5.228577,-1,1,0,1028,0,-1542
464,5.240151,-2,0,1,1025,2,-1544
465,5.251701,1,1,-1,1029,0,-1546
466,5.263274,2,1,0,1033,1,-1541
467,5.274816,0,1,-1,1031,1,-1547
468,5.286387,1,-2,0,1027,-1,-1542
469,5.297947,1,0,1,1028,-2,-1543
470,5.309602,0,3,0,1031,0,-1543
471,5.321247,0,0,1,1029,1,-1545
472,5.33291,-1,-1,2,1031,2,-1540
473,5.344583,1,3,1,1032,0,-1547
474,5.356226,0,0,-1,1032,-2,-1541
475,5.367896,2,2,-1,1031,0,-1545
476,5.379549,0,0,-1,1028,-1,-1537
477,5.391232,-1,-1,0,1027,-2,-1545
478,5.402904,-1,3,-1,1029,0,-1546
479,5.414579,0,0,-1,1031,-1,-1546
480,5.426176,-1,2,1,1031,-3,-1543
481,5.437736,1,1,1,1030,-2,-1547
482,5.449294,0,-4,0,1029,1,-1538
483,5.460838,2,1,1,1029,-2,-1542
484,5.47238,2,-3,0,1031,-1,-1543
485,5.483927,2,-2,2,1031,1,-1546
486,5.495525,0,-1,0,1029,0,-1539
487,5.507084,1,-2,0,1031,-1,-1548
488,5.518736,-1,-1,1,1033,2,-1541
489,5.5304,1,-2,0,1031,3,-1541
490,5.542105,-1,0,0,1030,-1,-1541
491,5.553753,-1,1,-1,1034,-2,-1538
492,5.5654,2,1,0,1031,-2,-1540
493,5.577086,-1,-1,-1,1031,0,-1542
494,5.58873,0,-1,0,1029,-2,-1545
495,5.600375,-1,0,-1,1029,1,-1545
496,5.612037,0,1,0,1029,-1,-1547
497,5.623689,1,1,-1,1032,-1,-1548
498,5.635241,0,0,0,1028,-2,-1549
499,5.646789,1,1,2,1031,-2,-1541
500,5.658342,0,0,0,1029,1,-1542
501,5.669929,0,1,1,1029,2,-1537
502,5.681449,1,0,1,1034,0,-1541
503,5.693004,1,2,1,1030,0,-1542
504,5.704553,2,-1,0,1029,0,-1532
505,5.716101,0,-1,-3,1032,0,-1546
506,5.727729,1,0,2,1029,0,-1548
507,5.739375,-1,0,-1,1032,1,-1549
508,5.751021,1,1,-1,1027,0,-1544
509,5.762731,1,1,-1,1031,-1,-1546
510,5.774387,1,0,0,1034,-1,-1544
511,5.786045,0,0,0,1027,0,-1544
512,5.797714,-2,2,1,1029,2,-1545
513,5.809365,-1,1,0,1029,-1,-1544
514,5.821024,0,-2,-2,1030,0,-1544
515,5.832665,2,1,0,1025,0,-1547
516,5.844305,-2,1,1,1031,-2,-1548
517,5.855968,0,0,-2,1027,0,-1546
518,5.867638,-1,0,-2,1029,0,-1543
519,5.879282,-1,0,1,1031,0,-1547
520,5.890947,-1,3,-1,1031,-3,-1539
521,5.902621,-2,2,0,1028,3,-1541
522,5.914272,1,3,1,1033,0,-1549
523,5.925986,0,1,1,1029,-1,-1547
524,5.937633,1,-1,1,1033,0,-1544
525,5.949277,0,1,2,1031,-1,-1542
526,5.960936,1,0,-1,1028,-1,-1549
527,5.972599,1,1,1,1029,-1,-1544
528,5.984256,0,2,1,1028,-2,-1540
529,5.9959,0,1,0,1031,-2,-1543
530,6.007538,0,0,-1,1033,-3,-1542
531,6.019186,0,2,1,1035,-4,-1544
532,6.030895,0,0,-1,1031,0,-1539
533,6.042541,-1,-1,-1,1027,-2,-1544
534,6.054225,0,-1,0,1030,-1,-1543
535,6.065876,0,-1,1,1032,1,-1543
536,6.077524,1,-1,1,1029,3,-1545
537,6.089167,0,0,0,1030,-4,-1547
538,6.100827,2,0,-1,1026,0,-1542
539,6.112465,-2,1,1,1029,-2,-1547
540,6.124109,2,3,-1,1031,-4,-1538
541,6.135791,-1,-1,-2,1031,0,-1543
542,6.147443,3,-1,0,1029,3,-1545
543,6.158994,0,0,1,1030,-6,-1544
544,6.170544,2,-1,-1,1029,1,-1543
545,6.182103,0,0,1,1029,0,-1549
546,6.193684,1,1,-2,1031,-2,-1542
547,6.205229,1,1,0,1031,-4,-1548
548,6.216806,1,-1,0,1028,-1,-1542
549,6.228356,0,0,1,1031,3,-1541
550,6.239946,0,-3,-1,1032,0,-1547
551,6.251559,1,0,-1,1028,0,-1544
552,6.263243,0,-1,1,1034,0,-1545
553,6.274902,0,0,0,1031,-3,-1545
554,6.286555,1,1,0,1029,1,-1541
555,6.298223,0,0,2,1032,-1,-1542
556,6.309904,0,0,3,1027,0,-1545
557,6.321592,0,0,0,1027,1,-1540
558,6.333266,1,0,-2,1030,0,-1545
559,6.344933,0,0,-1,1028,0,-1543
560,6.356581,-2,-1,-1,1031,-3,-1542
561,6.368136,0,-1,-2,1033,-2,-1549
562,6.379707,0,2,-1,1030,0,-1544
563,6.391266,2,1,0,1032,0,-1546
564,6.40286,1,3,0,1030,0,-1541
565,6.414398,-1,-1,1,1031,0,-1541
566,6.425933,-1,0,-2,1028,0,-1541
567,6.437446,1,1,2,1029,3,-1543
568,6.449001,1,1,-1,1034,-1,-1545
569,6.460624,0,2,0,1031,-3,-1541
570,6.472281,0,1,1,1030,1,-1543
571,6.483924,0,0,-1,1033,0,-1544
572,6.495588,0,1,-1,1027,0,-1545
573,6.507269,1,1,0,1031,-4,-1542
574,6.518929,-1,0,2,1032,0,-1548
575,6.530602,-1,-1,-3,1030,-2,-1547
576,6.542287,-2,0,0,1029,-3,-1542
577,6.553983,3,1,-2,1031,-2,-1549
578,6.56565,-1,0,1,1031,-1,-1549
579,6.57722,0,2,2,1030,-1,-1550
580,6.588781,-1,0,0,1029,0,-1544
581,6.600349,-1,1,-1,1031,0,-1545
582,6.611921,0,1,0,1031,-3,-1538
583,6.623483,0,-1,2,1026,0,-1537
584,6.635023,1,2,0,1027,0,-1549
585,6.646577,0,0,-1,1029,-1,-1545
586,6.658163,1,0,0,1027,3,-1539
587,6.669789,1,0,-1,1031,-1,-1541
588,6.681461,2,-1,-1,1031,-2,-1547
589,6.693152,0,0,-1,1031,0,-1540
590,6.704795,2,2,0,1029,-2,-1548
591,6.71644,3,0,0,1033,0,-1547
592,6.7281,0,-1,2,1029,-2,-1541
593,6.739773,1,0,1,1030,0,-1541
594,6.751419,-2,1,-1,1033,-7,-1545
595,6.763083,1,-1,0,1029,0,-1546
596,6.774754,1,1,-2,1033,0,-1538
597,6.786352,2,0,0,1029,-2,-1540
598,6.797923,1,1,1,1031,0,-1542
599,6.809488,0,0,1,1031,-1,-1545
600,6.821037,0,0,0,1031,-2,-1541
601,6.832587,0,2,0,1031,6,-1544
602,6.84413,1,1,0,1031,1,-1546
603,6.855699,-1,-1,-2,1026,3,-1546
604,6.867279,0,2,0,1030,0,-1545
605,6.878922,-1,-1,0,1032,-1,-1541
606,6.890597,0,1,0,1027,-2,-1544
607,6.902232,2,0,-2,1031,0,-1547
608,6.91395,0,-1,3,1036,-1,-1549
609,6.925599,-1,-1,0,1030,1,-1550
610,6.937266,-1,2,1,1027,1,-1545
611,6.948931,-2,0,0,1032,-1,-1543
612,6.960574,1,2,0,1031,-1,-1539
613,6.972241,-2,2,1,1031,0,-1546
614,6.983916,1,-1,0,1030,1,-1548
615,6.995485,1,1,1,1031,1,-1543
616,7.007031,1,2,2,1031,0,-1541
617,7.018583,2,1,1,1028,-2,-1540
618,7.03015,3,-2,0,1031,3,-1542
619,7.041686,0,1,-2,1031,0,-1546
620,7.053242,1,1,2,1031,0,-1549
621,7.064783,1,0,-1,1030,-3,-1546
622,7.076335,0,0,-1,1031,3,-1544
623,7.087949,0,1,0,1030,1,-1542
624,7.099596,-1,1,-2,1031,-2,-1541
625,7.111262,1,0,0,1033,0,-1546
626,7.122925,-1,-1,0,1032,-1,-1546
627,7.134602,-1,0,0,1027,-3,-1549
628,7.146226,3,-1,0,1029,-4,-1542
629,7.157898,-1,1,0,1030,1,-1542
630,7.169573,0,2,0,1029,-4,-1543
631,7.181228,-2,0,1,1028,0,-1543
632,7.192888,1,1,0,1031,-4,-1548
633,7.204448,-1,-1,3,1034,0,-1536
634,7.216007,1,-1,-1,1034,-2,-1543
635,7.22755,0,0,-1,1030,0,-1551
636,7.239133,1,1,-2,1030,3,-1542
637,7.250654,0,1,2,1031,1,-1542
638,7.262228,-1,-1,1,1031,0,-1538
639,7.273805,0,1,0,1031,0,-1540
640,7.285365,-1,-1,0,1026,2,-1545
641,7.296999,0,0,-1,1031,0,-1538
642,7.30865,0,0,3,1033,1,-1546
643,7.320326,0,1,3,1030,-1,-1544
644,7.331987,-1,-1,2,1028,-2,-1547
645,7.34363,1,-1,0,1030,0,-1548
646,7.355321,0,-1,2,1028,0,-1541
647,7.367003,0,2,2,1030,1,-1541
648,7.378655,-1,0,1,1031,2,-1546
649,7.390365,-1,3,0,1031,1,-1536
650,7.402018,2,-2,0,1023,0,-1544
651,7.413587,-1,2,2,1027,2,-1537
652,7.425141,-1,2,-1,1029,0,-1545
653,7.43669,-1,-1,-1,1027,-3,-1542
654,7.448258,1,-2,0,1031,-1,-1543
655,7.459804,1,1,1,1031,2,-1546
656,7.471384,0,-1,0,1033,0,-1541
657,7.482926,0,2,0,1032,-3,-1535
658,7.49448,2,1,-1,1032,5,-1542
659,7.506104,2,0,0,1030,0,-1539
660,7.517753,2,-1,1,1031,0,-1542
661,7.529397,0,0,-1,1032,2,-1544
662,7.541047,-1,-1,1,1031,0,-1539
663,7.552698,1,0,0,1030,0,-1543
664,7.564346,0,-2,0,1031,-2,-1546
665,7.575987,1,2,0,1027,-3,-1547
666,7.587634,1,-3,-1,1031,-3,-1542
667,7.599315,-1,1,1,1035,-3,-1544
668,7.611003,0,0,1,1029,-1,-1541
669,7.622562,1,0,1,1031,-3,-1542
670,7.634113,1,1,-2,1031,-1,-1544
671,7.645684,1,-1,1,1030,3,-1545
672,7.65723,1,0,0,1032,0,-1543
673,7.668794,0,3,-1,1027,5,-1549
674,7.680382,1,0,0,1030,-4,-1550
675,7.69193,1,2,-1,1029,0,-1542
676,7.703498,2,-1,1,1030,0,-1542
677,7.71511,2,-1,0,1030,0,-1547
678,7.726768,0,-1,1,1033,2,-1542
679,7.73841,0,-2,2,1032,0,-1550
680,7.750098,0,0,0,1033,1,-1543
681,7.761756,0,2,-1,1029,-1,-1542
682,7.773399,-1,3,-1,1031,-4,-1550
683,7.785071,0,0,-2,1031,-2,-1544
684,7.796735,-1,0,1,1033,-2,-1541
685,7.808396,0,0,1,1029,0,-1543
686,7.820045,-1,1,-1,1029,0,-1543
687,7.831595,1,-1,1,1030,-3,-1545
688,7.843141,2,-1,1,1028,-5,-1544
689,7.854691,-1,-1,-1,1031,1,-1540
690,7.866274,3,0,1,1031,4,-1543
691,7.877828,1,1,-1,1027,0,-1549
692,7.889428,2,-1,0,1029,-3,-1550
693,7.900967,0,0,3,1030,0,-1543
694,7.912518,1,-2,0,1031,-1,-1547
695,7.924137,1,1,0,1033,-1,-1544
696,7.935784,-2,-2,1,1028,-2,-1545
697,7.947432,1,2,2,1029,1,-1542
698,7.959093,-1,0,1,1031,1,-1543
699,7.970742,-1,0,2,1029,0,-1539
700,7.982414,2,2,-1,1030,-1,-1544
701,7.994096,2,0,1,1029,0,-1549
702,8.005714,-1,0,0,1032,1,-1545
703,8.017371,0,0,-1,1031,0,-1544
704,8.029025,1,0,1,1028,5,-1539
705,8.040579,0,0,1,1032,-3,-1543
706,8.052131,2,0,-2,1031,0,-1545
707,8.063688,0,0,-1,1031,-2,-1554
708,8.075237,1,0,1,1033,0,-1541
709,8.086821,-1,0,1,1034,0,-1550
710,8.09843,1,0,-2,1030,1,-1542
711,8.109989,1,-1,3,1031,0,-1545
712,8.121586,0,1,-1,1026,4,-1543
713,8.133209,1,-2,3,1029,1,-1546
714,8.144865,0,2,0,1029,1,-1541
715,8.156509,0,1,-1,1033,-1,-1544
716,8.168158,2,1,1,1033,-2,-1547
717,8.179826,0,2,-2,1030,-1,-1542
718,8.191477,0,1,1,1033,0,-1543
719,8.203126,0,3,-1,1031,-7,-1550
720,8.214747,1,2,0,1030,-1,-1543
721,8.226407,1,0,-1,1032,-2,-1539
722,8.238077,0,2,-2,1028,0,-1540
723,8.249665,2,0,1,1030,2,-1545
724,8.261207,0,-4,-1,1031,0,-1546
725,8.27275,1,2,0,1027,-1,-1545
726,8.284293,1,-1,1,1031,1,-1543
727,8.295833,0,0,1,1030,-2,-1544
728,8.307391,-1,3,1,1031,-3,-1546
729,8.318945,0,0,-1,1031,3,-1546
730,8.330494,-1,1,0,1031,-1,-1544
731,8.342198,1,1,1,1033,-1,-1536
732,8.353887,1,0,-2,1032,-1,-1548
733,8.365584,0,0,-1,1029,-2,-1543
734,8.377257,1,0,2,1031,0,-1545
735,8.388903,1,3,1,1032,-3,-1541
736,8.400556,1,-1,-1,1032,-5,-1538
737,8.412231,3,0,2,1029,-4,-1542
738,8.423884,0,0,1,1027,-2,-1540
739,8.435729,0,1,0,1027,-5,-1546
740,8.447381,1,0,0,1029,2,-1545
741,8.45906,0,0,0,1029,0,-1541
742,8.470744,0,0,1,1030,-1,-1542
743,8.482398,1,1,-1,1028,3,-1541
744,8.494047,0,-1,0,1031,-2,-1547
745,8.505723,3,3,0,1029,1,-1540
746,8.517368,1,2,1,1030,0,-1547
747,8.529019,0,1,-1,1030,0,-1543
748,8.540677,-2,1,0,1030,0,-1547
749,8.55235,0,-1,2,1033,0,-1536
750,8.56402,0,0,1,1035,-3,-1544
751,8.575661,1,-2,1,1031,0,-1542
752,8.587306,0,1,0,1029,3,-1544
753,8.599003,-1,1,0,1029,-2,-1547
754,8.610659,-1,1,-1,1028,-2,-1543
755,8.622343,-1,-2,-1,1031,2,-1544
756,8.634012,1,1,3,1033,1,-1538
757,8.6457,-1,-1,-1,1032,0,-1549
758,8.657366,-1,2,1,1031,2,-1539
759,8.668917,1,0,-1,1032,1,-1546
760,8.680467,1,-1,0,1029,-1,-1545
761,8.692019,-2,0,-1,1030,-1,-1545
762,8.703579,1,1,0,1031,-2,-1541
763,8.715152,-1,1,0,1032,1,-1538
764,8.726717,1,3,0,1029,0,-1545
765,8.738292,1,1,1,1029,0,-1542
766,8.749856,0,0,2,1031,-1,-1551
767,8.761459,1,0,-1,1028,3,-1544
768,8.773128,-2,1,1,1031,3,-1541
769,8.784788,-1,1,-2,1031,-1,-1547
770,8.796443,-1,-1,2,1035,-2,-1548
771,8.808111,0,-1,1,1034,-1,-1546
772,8.819777,-2,0,1,1034,2,-1548
773,8.831435,3,0,-1,1032,0,-1548
774,8.843106,0,1,0,1032,0,-1544
775,8.854774,0,1,0,1032,-2,-1541
776,8.866452,0,0,0,1029,0,-1540
777,8.878,0,0,1,1030,3,-1541
778,8.889562,1,0,0,1031,1,-1547
779,8.901113,1,2,0,1031,0,-1551
780,8.912656,0,-1,0,1030,0,-1542
781,8.924198,-1,2,0,1028,0,-1546
782,8.935735,1,2,-2,1029,-3,-1543
783,8.947297,2,0,2,1032,0,-1543
784,8.958862,-1,1,2,1031,-1,-1543
785,8.970497,0,0,0,1030,0,-1545
786,8.982164,0,2,-1,1031,4,-1542
787,8.993826,0,-3,0,1029,0,-1545
788,9.005457,-1,0,1,1031,-3,-1536
789,9.01713,3,-2,0,1032,-1,-1547
790,9.028781,-1,0,2,1031,-2,-1542
791,9.040427,-1,-1,-1,1025,-3,-1545
792,9.052074,-1,2,2,1026,1,-1542
793,9.063738,-1,0,0,1031,-1,-1553
794,9.075408,1,0,1,1029,-2,-1545
795,9.087072,2,0,1,1027,-3,-1543
796,9.098738,0,2,-1,1031,1,-1543
797,9.110409,-1,-2,0,1031,-4,-1545
798,9.122082,-2,1,1,1033,2,-1545
799,9.133713,-1,1,0,1031,2,-1542
800,9.145377,1,0,2,1029,3,-1547
801,9.15703,0,1,2,1029,-2,-1541
802,9.168708,0,-1,-1,1033,-1,-1549
803,9.180379,2,-1,0,1031,-3,-1547
804,9.192025,0,0,-1,1028,0,-1544
805,9.203701,0,0,0,1031,0,-1541
806,9.215361,1,0,0,1033,-1,-1544
807,9.227022,0,0,0,1030,-1,-1548
808,9.238669,0,1,0,1027,-2,-1541
809,9.250344,-1,0,1,1032,-3,-1548
810,9.261975,1,-1,-1,1031,-1,-1545
811,9.273634,0,-2,1,1029,1,-1545
812,9.285288,2,1,-1,1031,-1,-1543
813,9.296941,2,1,1,1028,3,-1540
814,9.308579,2,1,1,1031,0,-1549
815,9.320222,1,1,2,1031,-2,-1543
816,9.331862,1,0,1,1029,3,-1545
817,9.343506,1,0,2,1031,2,-1548
818,9.355166,1,-1,-1,1034,1,-1551
819,9.366811,-1,-1,-1,1031,-6,-1545
820,9.37849,1,0,0,1030,-1,-1545
821,9.390194,1,-2,1,1030,0,-1543
822,9.401763,-1,0,2,1031,3,-1540
823,9.413316,1,-1,1,1033,0,-1547
824,9.424886,2,1,2,1028,0,-1545
825,9.436476,-2,-1,-1,1029,-1,-1541
826,9.448036,2,-1,1,1030,-4,-1549
827,9.459721,0,-2,0,1027,0,-1546
828,9.471272,0,-2,2,1031,0,-1551
829,9.482878,1,0,0,1031,-3,-1550
830,9.49469,0,2,0,1029,0,-1542
831,9.50642,0,0,-1,1029,1,-1548
832,9.51811,1,2,1,1029,0,-1545
833,9.52977,1,1,-1,1033,-2,-1543
834,9.541454,2,-3,0,1031,-2,-1540
835,9.553097,0,-1,0,1029,1,-1552
836,9.564741,0,-2,1,1031,-2,-1538
837,9.576443,1,0,0,1029,2,-1547
838,9.588082,-1,1,1,1031,-3,-1548
839,9.59963,1,0,-1,1028,-2,-1545
840,9.611172,1,1,2,1028,1,-1544
841,9.622719,-1,0,0,1030,0,-1542
842,9.634296,0,1,-1,1029,-3,-1544
843,9.645875,0,2,0,1029,-2,-1537
844,9.657439,-1,3,-1,1029,1,-1543
845,9.669008,1,1,1,1034,0,-1541
846,9.680555,-1,2,0,1033,0,-1550
847,9.692188,0,3,-1,1031,0,-1546
848,9.703834,2,0,-1,1031,0,-1542
849,9.715473,1,1,1,1028,-3,-1549
850,9.727118,0,0,0,1026,0,-1545
851,9.738739,0,0,2,1030,0,-1542
852,9.750382,0,-1,0,1031,-2,-1542
853,9.762025,-1,0,0,1029,0,-1542
854,9.773714,1,0,-1,1031,0,-1544
855,9.785362,0,-1,-2,1027,0,-1547
856,9.797008,1,1,1,1035,-1,-1547
857,9.808676,0,0,0,1029,0,-1541
858,9.820341,0,0,-1,1033,-2,-1543
859,9.831982,-1,1,-1,1028,0,-1549
860,9.843618,1,1,-1,1027,-1,-1544
861,9.855264,0,0,0,1030,-1,-1544
862,9.866939,1,-1,1,1032,-2,-1542
863,9.878603,2,-1,-2,1031,0,-1539
864,9.890257,0,0,1,1029,0,-1550
865,9.901956,0,1,1,1031,0,-1542
866,9.913611,0,1,0,1028,0,-1547
867,9.925254,2,1,0,1032,0,-1548
868,9.936919,-1,0,0,1026,0,-1550
869,9.94859,2,2,-2,1032,-1,-1542
870,9.960235,2,0,1,1030,-2,-1543
871,9.971877,0,0,-1,1032,-3,-1548
872,9.983528,1,0,1,1030,2,-1546
873,9.995209,0,1,-1,1028,2,-1539
874,10.006869,1,1,-1,1033,1,-1549
875,10.018526,2,3,-2,1031,-4,-1539
876,10.030169,0,-1,1,1032,3,-1540
877,10.041842,1,-2,0,1030,0,-1536
878,10.053495,1,2,-2,1029,-1,-1547
879,10.06513,1,1,2,1031,-1,-1541
880,10.076773,0,1,-2,1030,2,-1543
881,10.08844,1,1,0,1031,-1,-1538
882,10.100108,2,-2,1,1032,-1,-1547
883,10.111771,0,0,0,1028,-3,-1537
884,10.123355,-1,0,-1,1025,1,-1543
885,10.134912,1,-1,1,1028,0,-1545
886,10.146463,1,1,0,1031,0,-1543
887,10.158008,-1,0,0,1031,0,-1551
888,10.169567,-1,1,-1,1031,0,-1547
889,10.181108,-1,3,1,1031,-1,-1545
890,10.192669,1,1,0,1030,-1,-1543
891,10.20424,1,1,-1,1029,-2,-1546
892,10.215869,0,2,0,1031,0,-1541
893,10.227551,-1,-1,0,1031,-1,-1544
894,10.239212,0,3,-1,1031,1,-1542
895,10.250871,1,0,0,1034,-3,-1541
896,10.262545,0,1,-1,1031,-1,-1544
897,10.274229,1,0,0,1033,2,-1539
898,10.285887,1,0,0,1032,-2,-1543
899,10.297579,0,0,0,1030,0,-1539
900,10.309235,0,-1,-1,1031,0,-1545
901,10.320916,1,-1,0,1031,2,-1545
902,10.332479,1,0,-1,1033,0,-1541
903,10.344045,2,3,0,1026,-3,-1548
904,10.355594,-2,3,0,1031,0,-1546
905,10.367164,1,1,0,1031,0,-1545
906,10.378717,0,-2,0,1032,-1,-1535
907,10.390301,-1,0,0,1031,0,-1546
908,10.401845,-1,0,-1,1031,4,-1542
909,10.413397,-1,-1,1,1032,0,-1547
910,10.42501,0,3,2,1033,0,-1544
911,10.436651,0,0,-1,1028,-2,-1548
912,10.448297,1,0,1,1034,0,-1546
913,10.459966,1,-1,1,1031,0,-1538
914,10.471627,-1,0,0,1029,-1,-1540
915,10.483425,-1,2,-2,1028,0,-1541
916,10.495087,1,-1,0,1025,0,-1545
917,10.506752,0,1,-1,1031,2,-1540
918,10.51842,-2,0,-2,1028,-1,-1545
919,10.53011,0,0,-2,1031,1,-1546
920,10.541696,0,-1,-1,1030,0,-1546
921,10.553242,1,1,-1,1031,0,-1543
922,10.56482,-1,-2,-2,1031,-1,-1546
923,10.576387,1,1,0,1028,0,-1537
924,10.587937,-1,1,0,1033,0,-1542
925,10.599499,0,1,0,1027,-2,-1548
926,10.611047,0,2,1,1031,-1,-1550
927,10.622609,1,1,1,1029,-3,-1539
928,10.634244,2,-1,1,1029,-3,-1537
929,10.645898,0,1,3,1029,-1,-1545
930,10.657587,0,-1,-1,1031,1,-1544
931,10.669243,-1,-2,-2,1029,1,-1547
932,10.680895,1,0,2,1027,0,-1548
933,10.69257,0,1,1,1027,0,-1538
934,10.704236,0,0,2,1029,3,-1542
935,10.715883,1,-2,0,1032,-4,-1543
936,10.727534,-1,0,0,1027,-2,-1546
937,10.739178,0,-1,2,1027,-6,-1546
938,10.750862,-1,-1,0,1027,-1,-1553
939,10.762494,0,1,3,1034,-5,-1545
940,10.774145,1,-1,1,1031,-1,-1546
941,10.785797,-1,0,-1,1032,0,-1542
942,10.797462,-1,2,1,1031,0,-1544
943,10.809122,1,-1,0,1031,1,-1546
944,10.820772,0,0,0,1032,0,-1546
945,10.832433,0,2,-1,1030,-3,-1543
946,10.844104,0,1,2,1031,-2,-1542
947,10.855757,1,2,-1,1031,2,-1543
948,10.867398,3,0,1,1030,-2,-1549
949,10.879051,-1,2,-1,1029,-1,-1537
950,10.890753,1,1,-1,1031,0,-1545
951,10.902409,1,0,0,1031,1,-1546
952,10.914085,0,0,0,1030,0,-1543
953,10.925762,0,0,0,1031,2,-1545
954,10.93748,0,2,0,1030,-1,-1542
955,10.949135,1,-1,-2,1032,-1,-1540
956,10.960786,1,2,2,1032,-6,-1543
957,10.972433,0,-1,0,1033,1,-1548
958,10.984082,1,0,1,1028,0,-1544
959,10.995754,-1,-1,1,1027,-1,-1545
960,11.007402,0,1,-1,1031,-2,-1549
961,11.019048,1,3,1,1030,-1,-1545
962,11.030745,1,2,2,1031,0,-1541
963,11.042409,1,-3,-1,1030,3,-1542
964,11.054123,1,1,2,1032,2,-1548
965,11.065682,1,0,0,1028,0,-1537
966,11.077232,1,0,0,1030,1,-1546
967,11.088774,0,-2,0,1030,-1,-1549
968,11.100322,0,0,0,1031,-3,-1543
969,11.11187,1,0,1,1031,0,-1550
970,11.123446,2,0,0,1029,-2,-1549
971,11.135003,2,1,0,1029,0,-1536
972,11.146624,0,1,-1,1033,0,-1535
973,11.158275,1,0,0,1030,1,-1544
974,11.16997,0,-1,1,1030,-3,-1545
975,11.181638,0,-1,-2,1028,5,-1550
976,11.193294,0,2,0,1030,-2,-1542
977,11.204935,1,1,-1,1030,0,-1546
978,11.216577,1,0,0,1031,-3,-1541
979,11.228245,0,0,0,1031,0,-1545
980,11.239896,0,0,-2,1031,-5,-1547
981,11.251565,-1,-1,1,1031,-4,-1547
982,11.263241,1,0,1,1031,0,-1541
983,11.274904,1,0,-1,1027,2,-1544
984,11.286554,-1,-1,-2,1031,0,-1549
985,11.298267,0,1,0,1030,-3,-1544
986,11.309944,1,3,0,1029,0,-1543
987,11.321607,0,-1,-1,1028,0,-1545
988,11.333277,1,-1,-1,1029,2,-1547
989,11.344925,0,-1,-1,1031,-3,-1544
990,11.356588,-1,1,-1,1031,0,-1549
991,11.368258,0,0,1,1032,-6,-1544
992,11.379822,0,2,1,1031,-1,-1545
993,11.39138,0,1,0,1033,1,-1539
994,11.402933,-1,0,0,1028,0,-1542
995,11.414486,0,3,-1,1031,-1,-1547
996,11.426089,-1,0,0,1031,-1,-1547
997,11.437673,0,-1,0,1030,-2,-1543
998,11.449239,1,0,1,1031,3,-1540
999,11.460791,0,1,0,1029,-1,-1542
1000,11.472417,2,-2,2,1031,0,-1537
1001,11.484062,2,0,-1,1026,1,-1541
1002,11.495719,0,0,0,1032,-2,-1541
1003,11.507491,0,4,1,1028,-2,-1549
1004,11.519154,-1,-1,1,1026,0,-1547
1005,11.53082,-1,2,1,1025,0,-1546
1006,11.542484,1,1,-2,1031,-2,-1538
1007,11.554147,1,2,1,1028,1,-1542
1008,11.565849,1,0,1,1030,-2,-1539
1009,11.577527,-1,-1,0,1032,0,-1541
1010,11.589131,1,0,-3,1027,-1,-1546
1011,11.6007,0,-1,1,1027,-2,-1539
1012,11.612248,0,1,2,1031,1,-1546
1013,11.623798,1,2,0,1032,-2,-1539
1014,11.635383,1,0,0,1028,-4,-1543
1015,11.646945,0,0,-1,1030,0,-1543
1016,11.658496,0,-1,0,1026,0,-1545
1017,11.670098,0,-1,1,1034,0,-1542
1018,11.681719,-2,-1,2,1030,2,-1548
1019,11.693374,1,-2,-1,1030,3,-1543
1020,11.70504,0,-1,-1,1030,0,-1539
1021,11.716695,-1,1,-1,1028,2,-1543
1022,11.728339,0,1,0,1027,-1,-1540
1023,11.73999,1,-1,0,1030,0,-1550
1024,11.751677,1,1,0,1030,-2,-1541
1025,11.763319,-2,2,0,1031,2,-1542
1026,11.775044,2,1,-1,1025,0,-1543
1027,11.7867,-2,1,1,1028,1,-1540
1028,11.798307,1,1,0,1030,3,-1538
1029,11.809881,-1,-1,-1,1031,2,-1544
1030,11.821441,-1,1,-1,1030,1,-1544
1031,11.832987,2,0,2,1032,0,-1539
1032,11.844534,1,0,-1,1029,-2,-1538
1033,11.856078,3,-1,0,1026,3,-1539
1034,11.867626,0,0,0,1031,-3,-1546
1035,11.879184,1,-1,-1,1031,-2,-1543
1036,11.890809,0,2,1,1031,-4,-1542
1037,11.902474,-1,1,1,1026,0,-1540
1038,11.914134,0,1,0,1031,-1,-1541
1039,11.925833,-1,1,1,1033,0,-1550
1040,11.937457,1,2,2,1031,0,-1544
1041,11.949105,-1,-3,1,1031,-3,-1540
1042,11.960778,0,-1,-1,1032,3,-1544
1043,11.972434,-1,0,-1,1032,-1,-1541
1044,11.984096,2,-2,-1,1031,-1,-1553
1045,11.995768,0,1,0,1028,-1,-1546
1046,12.007317,0,1,0,1032,-1,-1539
1047,12.01889,1,-1,0,1031,-3,-1554
1048,12.030462,1,1,1,1029,0,-1545
1049,12.04207,1,1,-1,1029,-4,-1542
1050,12.053672,0,1,1,1030,0,-1548
1051,12.065248,1,0,-1,1031,0,-1545
1052,12.076794,0,0,2,1031,-2,-1539
1053,12.088357,-1,0,0,1034,0,-1539
1054,12.099979,3,-1,1,1026,0,-1542
1055,12.111626,0,1,-1,1034,-3,-1547
1056,12.123287,0,0,1,1031,0,-1546
1057,12.134962,0,0,-2,1031,-1,-1548
1058,12.146643,1,0,1,1031,0,-1545
1059,12.15834,0,-1,1,1032,0,-1549
1060,12.169998,-1,0,0,1031,2,-1548
1061,12.181718,-1,1,0,1030,-1,-1543
1062,12.193376,-1,0,0,1030,0,-1548
1063,12.205036,1,1,2,1035,0,-1547
1064,12.216592,-1,0,2,1034,0,-1542
1065,12.228135,-1,0,0,1031,1,-1543
1066,12.239682,-1,0,0,1032,-2,-1546
1067,12.251259,0,0,-1,1032,0,-1550
1068,12.262813,2,-3,1,1036,-2,-1539
1069,12.274409,1,2,-1,1031,-1,-1544
1070,12.285927,1,0,-2,1031,5,-1549
1071,12.297455,1,2,1,1029,1,-1536
1072,12.30911,0,0,-1,1030,3,-1548
1073,12.320744,-1,2,3,1030,2,-1539
1074,12.332388,0,0,-1,1028,-2,-1547
1075,12.344055,-2,-2,-1,1028,-3,-1553
1076,12.355707,0,1,1,1026,-1,-1551
1077,12.367354,0,1,-1,1033,-2,-1542
1078,12.379001,0,0,1,1032,0,-1547
1079,12.390676,0,-2,0,1029,-2,-1544
1080,12.402387,-1,0,-2,1028,-4,-1544
1081,12.414069,-1,0,-2,1031,2,-1542
1082,12.425719,1,2,-1,1029,3,-1541
1083,12.437369,1,-1,-1,1029,-5,-1542
1084,12.449007,0,1,-2,1032,-2,-1536
1085,12.460653,2,2,2,1030,0,-1543
1086,12.472321,0,2,1,1031,0,-1542
1087,12.483966,1,1,1,1030,-2,-1544
1088,12.495615,0,1,-1,1026,2,-1543
1089,12.507274,1,2,0,1028,-3,-1544
1090,12.518947,0,-2,1,1031,-5,-1549
1091,12.530689,1,0,0,1030,0,-1541
1092,12.542323,0,2,1,1034,2,-1542
1093,12.553933,1,-1,0,1030,-7,-1544
1094,12.565503,-1,-1,-1,1031,0,-1538
1095,12.577046,-2,1,-1,1031,1,-1550
1096,12.588594,0,2,0,1031,-1,-1544
1097,12.600141,-1,1,-1,1031,0,-1540
1098,12.611699,1,0,-1,1032,0,-1546
1099,12.62336,2,2,-1,1032,0,-1537
1100,12.635015,2,0,1,1031,-3,-1539
1101,12.646692,0,-1,1,1032,-6,-1544
1102,12.658364,1,2,-1,1030,-1,-1546
1103,12.670017,1,-1,0,1031,2,-1545
1104,12.681702,0,-2,2,1030,1,-1539
1105,12.693353,1,1,-1,1027,0,-1550
1106,12.704996,2,2,-2,1034,-1,-1542
1107,12.716654,2,1,0,1031,-3,-1544
1108,12.728317,1,2,1,1029,0,-1548
1109,12.73991,0,0,0,1030,0,-1543
1110,12.751456,1,-2,1,1031,-2,-1541
1111,12.762997,0,-2,-2,1031,-2,-1543
1112,12.774611,1,1,0,1034,-1,-1543
1113,12.786169,0,2,-1,1030,0,-1539
1114,12.797689,1,1,0,1031,-2,-1548
1115,12.809251,-2,3,0,1032,0,-1544
1116,12.820818,0,-1,2,1031,0,-1542
1117,12.832469,0,-1,0,1031,-3,-1545
1118,12.844123,2,0,1,1031,2,-1542
1119,12.855769,0,0,2,1031,-2,-1544
1120,12.867416,-2,1,1,1033,-1,-1542
1121,12.879098,2,-1,3,1031,2,-1544
1122,12.890741,-1,1,-1,1025,-1,-1542
1123,12.902393,2,-2,-2,1029,-2,-1550
1124,12.914064,0,-2,2,1029,0,-1544
1125,12.925731,1,1,1,1031,2,-1545
1126,12.937382,0,2,0,1033,-1,-1539
1127,12.948937,0,0,-1,1031,-2,-1543
1128,12.960476,2,1,1,1028,-1,-1541
1129,12.972031,1,0,0,1031,-4,-1542
1130,12.983579,1,1,0,1028,1,-1546
1131,12.995122,0,0,1,1030,0,-1547
1132,13.006646,1,-2,-1,1031,0,-1549
1133,13.018167,1,2,-1,1031,-1,-1547
1134,13.029692,-1,0,-1,1030,2,-1543
1135,13.041341,-1,0,2,1029,0,-1539
1136,13.052993,0,1,-2,1026,0,-1546
1137,13.064642,0,-1,2,1032,-3,-1548
1138,13.076286,0,-1,-1,1030,-3,-1544
1139,13.087932,1,-2,-1,1031,-3,-1546
1140,13.099604,1,-1,2,1032,-4,-1544
1141,13.11125,-1,-1,1,1032,-2,-1546
1142,13.122902,1,0,2,1031,0,-1540
1143,13.134578,-1,2,0,1031,-3,-1542
1144,13.146251,1,-1,0,1031,-2,-1541
1145,13.157904,0,1,0,1034,0,-1548
1146,13.169576,2,0,-1,1032,-2,-1542
1147,13.181236,0,1,2,1031,-2,-1542
1148,13.192887,2,0,2,1031,-7,-1547
1149,13.204527,-1,-1,-1,1031,-3,-1544
1150,13.21617,1,3,1,1033,-1,-1538
1151,13.227835,1,3,0,1031,1,-1542
1152,13.239527,0,0,-3,1033,2,-1548
1153,13.251175,0,0,2,1031,-1,-1549
1154,13.262866,1,3,0,1031,0,-1541
1155,13.274491,0,0,1,1032,-1,-1542
1156,13.286168,1,0,1,1031,-5,-1545
1157,13.297903,-1,2,0,1027,-4,-1546
1158,13.309576,0,-2,0,1031,0,-1547
1159,13.321226,0,0,1,1031,1,-1547
1160,13.332889,0,1,1,1032,1,-1543
1161,13.344551,2,-1,1,1029,0,-1548
1162,13.356224,1,1,0,1028,-2,-1543
1163,13.367798,0,1,2,1027,3,-1544
1164,13.379355,1,0,-2,1031,0,-1545
1165,13.390894,1,2,0,1028,0,-1543
1166,13.402407,-1,1,-1,1031,-3,-1540
1167,13.41392,1,0,1,1029,-1,-1539
1168,13.425451,1,1,2,1028,0,-1538
1169,13.436995,0,0,0,1032,1,-1544
1170,13.448582,0,-1,0,1029,-3,-1536
1171,13.460195,-1,0,-2,1028,0,-1546
1172,13.471872,0,0,2,1032,0,-1548
1173,13.483523,0,1,1,1034,1,-1543
1174,13.495245,-1,1,1,1031,1,-1543
1175,13.506902,1,2,-1,1029,3,-1543
1176,13.518607,0,-1,0,1029,0,-1542
1177,13.530292,2,-1,1,1030,2,-1542
1178,13.541967,1,1,1,1031,-1,-1545
1179,13.553729,0,-1,0,1028,0,-1547
1180,13.565436,1,-2,0,1033,1,-1545
1181,13.576985,2,2,0,1029,-2,-1548
1182,13.58854,0,4,0,1025,-2,-1546
1183,13.600088,1,0,1,1026,-2,-1537
1184,13.611634,-1,0,0,1033,-2,-1542
1185,13.623176,1,0,-1,1031,0,-1548
1186,13.634725,0,-1,0,1031,0,-1549
1187,13.646298,-2,2,0,1033,-1,-1544
1188,13.657897,1,0,0,1030,0,-1538
1189,13.66953,-2,2,1,1028,1,-1542
1190,13.681183,2,0,3,1027,0,-1544
1191,13.692845,0,-1,-1,1028,-3,-1542
1192,13.704514,0,1,2,1029,-1,-1535
1193,13.716164,-1,1,0,1031,0,-1551
1194,13.727809,1,1,-1,1028,1,-1551
1195,13.739461,1,-1,1,1033,0,-1543
1196,13.751106,1,2,2,1032,-1,-1540
1197,13.762735,1,-1,0,1031,-1,-1549
1198,13.774326,-1,-1,1,1031,0,-1542
1199,13.786007,-1,0,0,1025,0,-1546
1200,13.797581,0,0,0,1030,0,-1548
1201,13.809131,1,1,-1,1030,1,-1543
1202,13.820672,2,-1,-1,1032,-3,-1549
1203,13.832215,0,-1,-1,1028,-1,-1545
1204,13.843768,1,2,-1,1031,-1,-1540
1205,13.855364,0,4,-2,1034,3,-1543
1206,13.866922,1,2,2,1031,0,-1552
1207,13.878489,1,-1,-1,1032,1,-1541
1208,13.890092,1,-1,-1,1029,2,-1543
1209,13.901679,0,-1,-2,1031,2,-1542
1210,13.913225,1,2,2,1028,3,-1541
1211,13.924768,1,0,-1,1029,4,-1544
1212,13.936321,0,0,1,1030,0,-1541
1213,13.94787,2,-1,0,1028,0,-1540
1214,13.959416,0,-2,3,1031,-2,-1543
1215,13.971044,1,-2,1,1032,1,-1546
1216,13.98267,0,-1,0,1030,0,-1545
1217,13.994359,1,2,-1,1031,0,-1545
1218,14.006035,0,-2,0,1031,1,-1543
1219,14.017735,1,-2,1,1031,-1,-1541
1220,14.029441,1,1,1,1025,-1,-1543
1221,14.041085,-1,0,-1,1028,-3,-1551
1222,14.052764,0,3,0,1035,0,-1544
1223,14.064476,0,-2,1,1031,3,-1546
1224,14.076217,-1,3,0,1030,2,-1545
1225,14.087905,0,1,1,1031,3,-1544
1226,14.099467,0,1,0,1031,-5,-1546
1227,14.111017,-1,2,0,1028,3,-1542
1228,14.122612,1,1,-2,1030,-2,-1545
1229,14.134163,1,0,-1,1029,-2,-1543
1230,14.145743,0,0,2,1031,0,-1539
1231,14.157287,3,2,1,1028,2,-1544
1232,14.168827,0,1,-1,1027,0,-1539
1233,14.180389,1,-1,2,1031,0,-1545
1234,14.192023,-2,1,-1,1030,-4,-1545
1235,14.203683,-2,2,1,1031,1,-1547
1236,14.215322,1,-1,0,1030,0,-1553
1237,14.227001,1,-1,0,1029,0,-1540
1238,14.238678,1,2,-2,1027,0,-1546
1239,14.250385,0,1,0,1028,-1,-1543
1240,14.262051,-1,2,0,1028,-1,-1545
1241,14.273708,2,0,0,1029,-3,-1538
1242,14.285366,1,0,1,1031,0,-1548
1243,14.29705,1,0,1,1031,0,-1547
1244,14.308633,2,0,1,1028,0,-1553
1245,14.320179,0,2,-1,1035,-1,-1540
1246,14.331732,1,-3,1,1030,-4,-1549
1247,14.343276,-1,-1,-2,1026,0,-1541
1248,14.354822,1,4,-1,1027,0,-1545
1249,14.366397,1,-1,1,1027,-2,-1545
1250,14.377941,0,-1,-1,1030,-1,-1545
1251,14.389563,1,-1,-1,1030,0,-1545
1252,14.401197,0,0,1,1028,-1,-1547
1253,14.412855,1,-1,2,1030,-2,-1543
1254,14.424499,0,-2,0,1029,0,-1544
1255,14.436175,0,1,1,1027,0,-1549
1256,14.44783,1,-1,2,1030,-4,-1544
1257,14.459483,1,1,-1,1031,-1,-1545
1258,14.471138,-2,-2,0,1032,1,-1540
1259,14.4828,0,0,0,1028,3,-1546
1260,14.494492,1,-2,-1,1030,-2,-1543
1261,14.506159,-1,2,-2,1029,0,-1545
1262,14.517743,0,2,1,1032,0,-1545
1263,14.529291,-2,-1,0,1034,0,-1542
1264,14.540837,0,1,0,1031,-1,-1545
1265,14.552383,1,-1,0,1029,-2,-1546
1266,14.563931,1,-2,2,1031,1,-1544
1267,14.575479,1,1,1,1029,-3,-1545
1268,14.587028,0,1,0,1030,1,-1548
1269,14.598611,0,1,1,1027,0,-1548
1270,14.610231,0,0,-2,1032,3,-1543
1271,14.621926,0,1,-1,1030,-1,-1542
1272,14.633594,1,1,2,1028,-4,-1549
1273,14.645251,1,1,0,1032,-1,-1547
1274,14.656918,0,2,-1,1031,3,-1545
1275,14.668644,1,3,1,1034,0,-1551
1276,14.680347,2,0,1,1033,-2,-1542
1277,14.691988,-1,0,1,1030,-3,-1540
1278,14.703668,1,1,2,1032,-1,-1544
1279,14.715369,2,-3,0,1031,-1,-1537
1280,14.726918,1,1,1,1032,0,-1543
1281,14.738472,1,-2,0,1030,-1,-1540
1282,14.750047,0,0,1,1030,0,-1546
1283,14.76163,-1,-1,1,1031,-4,-1532
1284,14.773179,-2,1,-1,1028,0,-1543
1285,14.784773,1,1,0,1032,4,-1545
1286,14.796323,1,0,0,1025,-1,-1546
1287,14.807919,1,1,-1,1034,0,-1545
1288,14.819541,-1,-2,0,1029,0,-1547
1289,14.831207,1,0,2,1030,-1,-1551
1290,14.842864,-1,2,2,1031,0,-1543
1291,14.854495,2,0,0,1030,2,-1548
1292,14.866165,0,1,0,1029,-4,-1540
1293,14.877854,-2,-1,-1,1027,1,-1545
1294,14.889508,2,-1,0,1028,1,-1544
1295,14.90117,1,0,0,1029,-3,-1538
1296,14.91284,1,0,0,1031,0,-1543
1297,14.92451,-2,0,-1,1028,-1,-1544
1298,14.936066,0,0,1,1034,-2,-1552
1299,14.947607,0,1,0,1029,-3,-1544
1300,14.959168,0,1,-1,1026,0,-1543
1301,14.970718,0,3,1,1028,-1,-1545
1302,14.982295,0,-1,0,1030,-2,-1546
1303,14.993869,2,1,0,1030,1,-1544
1304,15.005444,-1,1,-1,1035,1,-1543
1305,15.017003,-1,1,1,1033,-1,-1544
1306,15.028624,0,-1,-1,1028,-2,-1541
1307,15.040275,4,0,0,1029,0,-1543
1308,15.051946,1,-1,0,1029,-2,-1546
1309,15.063602,1,2,2,1033,0,-1541
1310,15.075246,0,2,0,1030,0,-1543
1311,15.086901,-1,-1,-2,1031,0,-1542
1312,15.098568,-1,2,0,1029,0,-1542
1313,15.110228,0,-1,-1,1028,0,-1541
1314,15.121896,0,1,1,1030,-1,-1550
1315,15.133581,0,0,-1,1030,-2,-1545
1316,15.145131,1,1,-2,1029,-3,-1540
1317,15.15668,1,0,1,1029,0,-1542
1318,15.168223,0,-1,1,1031,-1,-1549
1319,15.179768,1,2,0,1028,-1,-1543
1320,15.191318,1,0,-1,1030,2,-1546
1321,15.202922,0,0,-2,1029,0,-1547
1322,15.214469,2,0,2,1026,3,-1539
1323,15.22605,0,2,1,1030,-3,-1544
1324,15.237701,2,0,0,1031,0,-1545
1325,15.249354,-2,4,0,1026,-2,-1542
1326,15.261005,0,3,2,1031,-1,-1547
1327,15.272644,1,1,-1,1029,0,-1547
1328,15.284286,0,2,-1,1031,4,-1541
1329,15.295952,-2,0,1,1030,-1,-1542
1330,15.30761,0,1,2,1032,1,-1542
1331,15.319259,-1,-1,-1,1031,1,-1539
1332,15.330931,0,-1,-1,1031,2,-1545
1333,15.342588,1,-1,-1,1036,-5,-1541
1334,15.354166,0,-1,-2,1029,-1,-1538
1335,15.365708,1,1,2,1030,0,-1544
1336,15.377256,0,0,-1,1028,-2,-1541
1337,15.3888,1,1,0,1031,-2,-1550
1338,15.400339,1,-1,2,1032,0,-1546
1339,15.411917,-2,1,-1,1032,-1,-1543
1340,15.423461,1,2,0,1030,3,-1542
1341,15.435029,-2,0,0,1026,0,-1547
1342,15.446644,3,-2,-1,1030,-1,-1546
1343,15.4583,-2,-1,0,1030,1,-1545
1344,15.469991,-2,0,1,1032,-4,-1546
1345,15.481653,-1,0,-1,1032,-2,-1543
1346,15.493582,-1,1,1,1031,-1,-1537
1347,15.505471,0,1,0,1031,1,-1543
1348,15.517149,0,0,0,1028,0,-1544
1349,15.528821,0,0,1,1029,-1,-1542
1350,15.540618,0,2,-1,1031,1,-1543
1351,15.552301,-1,0,0,1028,0,-1543
1352,15.563869,1,-2,2,1028,0,-1543
1353,15.575445,-2,1,0,1031,0,-1547
1354,15.586994,1,-2,1,1030,-1,-1550
1355,15.598572,0,1,0,1029,2,-1545
1356,15.61015,2,1,-2,1029,-2,-1546
1357,15.621688,2,2,1,1033,-3,-1547
1358,15.633228,-1,1,1,1027,-1,-1542
1359,15.644788,0,-2,-2,1034,0,-1540
1360,15.656448,1,-2,2,1030,-4,-1545
1361,15.668127,-1,1,2,1031,-4,-1539
1362,15.679781,2,4,1,1031,0,-1543
1363,15.691433,1,-2,-2,1032,0,-1541
1364,15.7031,1,1,1,1033,0,-1546
1365,15.714752,0,0,0,1031,-3,-1544
1366,15.72641,-2,-1,-1,1028,1,-1544
1367,15.738115,2,-2,2,1031,-4,-1548
1368,15.749792,1,1,0,1028,2,-1541
1369,15.761455,-1,0,1,1029,0,-1555
1370,15.77305,-1,1,3,1028,0,-1540
1371,15.784605,-1,3,-1,1027,-2,-1544
1372,15.796167,1,1,2,1029,3,-1540
1373,15.807725,1,1,0,1031,0,-1547
1374,15.819269,0,1,1,1030,-1,-1539
1375,15.830821,0,1,0,1030,0,-1544
1376,15.842397,0,0,1,1031,2,-1538
1377,15.853944,1,3,0,1032,-1,-1550
1378,15.865593,-1,0,1,1029,-2,-1542
1379,15.877286,2,1,-1,1033,-1,-1543
1380,15.888944,0,0,2,1029,1,-1547
1381,15.90062,0,0,1,1031,-1,-1545
1382,15.912283,1,-1,0,1026,-1,-1545
1383,15.923935,1,0,0,1029,0,-1546
1384,15.935636,2,2,-1,1032,0,-1545
1385,15.94728,-1,0,-1,1030,-1,-1545
1386,15.958928,0,1,-2,1031,1,-1546
1387,15.970477,-1,2,-1,1030,0,-1549
1388,15.982068,2,-1,0,1031,-3,-1546
1389,15.993624,-2,-1,-2,1033,0,-1540
1390,16.005191,0,2,1,1034,0,-1552
1391,16.016729,1,0,0,1031,-1,-1546
1392,16.028268,0,0,0,1030,-1,-1545
1393,16.039811,0,1,-1,1032,-1,-1541
1394,16.05136,2,0,-1,1031,-1,-1544
1395,16.062915,2,-1,2,1029,-3,-1538
1396,16.074538,1,1,0,1032,-1,-1543
1397,16.086228,1,1,1,1028,-3,-1548
1398,16.09791,0,-3,-1,1030,0,-1548
1399,16.109599,1,2,1,1029,-4,-1552
1400,16.121276,0,-1,-1,1030,-1,-1544
1401,16.132934,-1,0,1,1030,2,-1541
1402,16.144581,0,1,-1,1027,1,-1544
1403,16.156236,1,1,0,1029,-1,-1546
1404,16.167909,-1,-1,0,1030,0,-1541
1405,16.179515,-1,-2,2,1028,2,-1545
1406,16.191091,0,-1,1,1031,2,-1544
1407,16.202656,-1,0,2,1028,-3,-1549
1408,16.214231,0,0,1,1031,1,-1543
1409,16.225796,1,0,-1,1028,0,-1547
1410,16.23738,3,0,0,1034,0,-1542
1411,16.248965,1,1,-3,1031,1,-1547
1412,16.260508,-1,-1,-2,1030,1,-1540
1413,16.272058,1,-1,1,1029,0,-1543
1414,16.283679,0,1,1,1031,2,-1542
1415,16.295365,0,-1,0,1035,-1,-1548
1416,16.307023,-1,-2,2,1031,0,-1543
1417,16.318721,0,-1,-1,1031,-1,-1543
1418,16.330376,-2,-1,2,1028,3,-1543
1419,16.342048,3,-1,-1,1031,1,-1544
1420,16.353712,1,0,-1,1029,1,-1539
1421,16.365359,2,1,0,1029,-4,-1548
1422,16.377028,0,0,-1,1031,-3,-1541
1423,16.388685,2,1,1,1029,0,-1541
1424,16.400253,1,-2,0,1034,-3,-1544
1425,16.411809,-1,1,0,1033,0,-1540
1426,16.423375,1,-1,-1,1026,-3,-1548
1427,16.434916,2,1,0,1031,-1,-1550
1428,16.446481,1,-2,-1,1030,-2,-1542
1429,16.458047,1,0,0,1031,0,-1539
1430,16.469598,1,-1,0,1031,-4,-1543
1431,16.481184,1,1,1,1032,-3,-1542
1432,16.492816,-1,2,-1,1031,0,-1546
1433,16.504467,0,1,-1,1031,-4,-1538
1434,16.516121,1,0,2,1031,0,-1546
1435,16.527795,1,0,0,1033,-7,-1542
1436,16.539438,-1,0,-1,1031,0,-1547
1437,16.551088,-1,0,-1,1028,0,-1548
1438,16.56277,0,1,0,1031,-3,-1539
1439,16.574457,0,2,2,1031,0,-1541
1440,16.586131,0,-1,0,1032,0,-1538
1441,16.597784,2,-1,2,1031,2,-1546
1442,16.609332,2,0,-2,1028,-2,-1542
1443,16.620904,-1,-1,0,1032,1,-1544
1444,16.632466,1,0,-1,1033,0,-1549
1445,16.644018,1,-1,0,1030,-1,-1539
1446,16.655562,2,-1,-2,1030,0,-1545
1447,16.667129,1,0,-2,1030,0,-1549
1448,16.678653,2,0,0,1030,-1,-1544
1449,16.690229,0,2,0,1030,0,-1545
1450,16.701853,-1,0,1,1031,-1,-1542
1451,16.713531,0,-1,1,1030,1,-1535
1452,16.725196,-1,1,-1,1033,-2,-1547
1453,16.73685,2,-1,0,1027,-2,-1544
1454,16.748503,-2,0,0,1027,-2,-1536
1455,16.760197,-1,2,0,1032,0,-1541
1456,16.771834,-2,0,1,1032,1,-1541
1457,16.78348,1,-1,0,1028,-2,-1545
1458,16.795156,0,-2,1,1031,0,-1543
1459,16.806825,-2,0,1,1030,0,-1546
1460,16.818411,0,0,0,1030,-1,-1545
1461,16.829927,-1,0,0,1030,1,-1547
1462,16.841446,0,1,4,1033,0,-1544
1463,16.853021,1,0,-1,1032,0,-1542
1464,16.864567,1,0,-2,1032,0,-1544
1465,16.876117,1,0,-1,1029,0,-1547
1466,16.887659,0,0,2,1028,0,-1543
1467,16.899244,-1,-1,0,1029,0,-1536
1468,16.910895,-1,-2,0,1029,0,-1547
1469,16.922612,1,0,1,1031,-2,-1535
1470,16.93428,-1,0,1,1032,0,-1549
1471,16.945975,0,0,-1,1029,-4,-1545
1472,16.957628,1,0,-1,1031,0,-1539
1473,16.969295,0,0,1,1032,1,-1540
1474,16.980988,0,1,-2,1029,-1,-1549
1475,16.99263,-1,0,0,1030,0,-1546
1476,17.004316,0,0,-2,1033,-3,-1545
1477,17.015971,0,1,-2,1031,0,-1542
1478,17.02754,-1,-1,2,1033,0,-1548
1479,17.03912,0,0,-1,1033,-2,-1543
1480,17.050661,1,0,0,1031,-3,-1543
1481,17.062215,1,1,0,1029,0,-1548
1482,17.0738,3,-1,0,1034,0,-1548
1483,17.085335,2,0,0,1031,0,-1547
1484,17.096868,1,2,0,1031,0,-1541
1485,17.10842,-1,0,0,1030,0,-1539
1486,17.120071,0,1,1,1031,-2,-1546
1487,17.131725,-1,0,0,1033,0,-1540
1488,17.143379,1,2,1,1029,0,-1547
1489,17.155044,-1,2,1,1031,-1,-1546
1490,17.166728,0,0,-1,1031,2,-1544
1491,17.17839,1,1,1,1030,1,-1541
1492,17.190054,-1,0,-1,1031,5,-1541
1493,17.201725,0,1,3,1034,-1,-1543
1494,17.213473,0,1,0,1030,-6,-1546
1495,17.22512,0,-1,1,1029,0,-1541
1496,17.236675,1,1,2,1029,0,-1547
1497,17.248226,0,0,0,1026,-2,-1545
1498,17.25979,1,1,0,1029,-3,-1549
1499,17.271357,1,-1,-2,1031,2,-1550
1500,17.282899,0,0,0,1028,1,-1549
1501,17.294448,1,1,-1,1029,0,-1550
1502,17.306037,2,2,-2,1036,4,-1553
1503,17.317606,-1,1,2,1031,2,-1543
1504,17.329242,0,0,1,1032,-2,-1542
1505,17.340899,1,0,-1,1028,-2,-1546
1506,17.352595,0,-2,1,1032,1,-1549
1507,17.364251,-1,1,1,1032,-2,-1541
1508,17.375918,0,1,1,1031,0,-1544
1509,17.38758,2,-1,-2,1031,0,-1544
1510,17.399243,0,1,-1,1034,0,-1552
1511,17.410917,2,0,0,1029,-1,-1543
1512,17.422606,0,1,0,1031,0,-1547
1513,17.434184,0,-1,0,1028,-5,-1545
1514,17.445742,0,0,-3,1030,1,-1540
1515,17.4573,1,-1,0,1031,0,-1548
1516,17.468838,-1,0,1,1029,2,-1539
1517,17.48039,2,1,-1,1033,1,-1544
1518,17.491972,2,1,1,1031,0,-1538
1519,17.503545,0,1,0,1030,1,-1541
1520,17.515096,1,1,0,1028,-2,-1547
1521,17.526677,-1,0,1,1027,-2,-1542
1522,17.538375,0,1,3,1030,1,-1543
1523,17.550041,1,-1,-2,1031,0,-1539
1524,17.561723,0,-1,0,1030,-1,-1540
1525,17.57338,2,1,0,1030,0,-1546
1526,17.585056,0,-1,-2,1030,2,-1545
1527,17.596713,2,2,-1,1031,1,-1544
1528,17.608365,0,0,-2,1029,-2,-1548
1529,17.620009,-1,3,-1,1031,2,-1551
1530,17.631672,1,1,-1,1030,-5,-1550
1531,17.64336,1,-2,1,1029,-2,-1539
1532,17.65492,3,0,-1,1031,0,-1542
1533,17.666474,1,0,-2,1031,0,-1546
1534,17.678058,0,0,0,1030,0,-1540
1535,17.689612,-1,0,0,1029,0,-1546
1536,17.701179,0,1,1,1031,2,-1547
1537,17.712725,2,0,1,1028,2,-1540
1538,17.724334,0,1,1,1029,0,-1537
1539,17.735887,2,-1,-2,1030,0,-1544
1540,17.747509,1,0,-1,1030,0,-1536
1541,17.759159,1,0,1,1031,-4,-1544
1542,17.77082,0,-1,1,1030,0,-1538
1543,17.782494,1,-2,-1,1031,-3,-1538
1544,17.794155,-1,1,1,1029,0,-1545
1545,17.805851,0,0,-1,1031,1,-1548
1546,17.817509,0,-2,-3,1033,-2,-1539
1547,17.829158,0,1,-1,1032,0,-1549
1548,17.840829,1,-1,-1,1029,-3,-1550
1549,17.852476,0,-1,1,1031,0,-1552
1550,17.864026,0,1,1,1034,0,-1545
1551,17.875586,-1,0,-1,1031,2,-1543
1552,17.887131,1,1,0,1027,2,-1543
1553,17.898654,-1,1,0,1031,3,-1543
1554,17.910168,1,1,-1,1031,0,-1542
1555,17.921688,-1,2,-1,1032,-2,-1546
1556,17.933232,0,1,1,1031,-2,-1544
1557,17.944814,0,1,-1,1027,1,-1544
1558,17.956519,0,1,1,1035,0,-1543
1559,17.968173,0,2,1,1026,4,-1541
1560,17.97982,0,0,1,1028,-1,-1543
1561,17.991471,1,-1,0,1026,0,-1542
1562,18.003137,-1,-1,0,1031,-2,-1543
1563,18.014786,1,0,1,1029,0,-1548
1564,18.026465,0,1,2,1032,-1,-1541
1565,18.038128,-1,2,2,1032,-1,-1548
1566,18.049788,1,0,4,1027,2,-1545
1567,18.061441,0,1,1,1031,1,-1547
1568,18.072995,0,1,0,1029,3,-1545
1569,18.084559,0,0,1,1029,-1,-1539
1570,18.096134,0,0,1,1032,-1,-1544
1571,18.107725,0,1,1,1031,0,-1546
1572,18.11928,-1,0,-1,1029,0,-1544
1573,18.13085,1,1,-1,1034,1,-1553
1574,18.142413,0,1,-2,1029,1,-1535
1575,18.153934,-1,1,0,1031,-1,-1543
1576,18.16559,-1,1,1,1033,0,-1544
1577,18.179635,-1,1,-1,1030,0,-1546
1578,18.191365,2,-1,0,1032,0,-1545
1579,18.203022,1,-1,2,1029,0,-1544
1580,18.214679,1,0,0,1027,0,-1542
1581,18.226379,0,0,-2,1031,0,-1542
1582,18.238034,1,1,1,1033,2,-1547
1583,18.249704,0,-1,1,1034,0,-1548
1584,18.261405,0,1,0,1031,0,-1548
1585,18.273113,3,2,1,1032,-1,-1542
1586,18.284725,1,2,0,1030,0,-1540
1587,18.296275,1,1,-2,1030,2,-1546
1588,18.307845,0,0,0,1036,0,-1542
1589,18.319417,0,0,-1,1031,0,-1542
1590,18.33101,2,-3,-1,1034,1,-1538
1591,18.342596,1,0,0,1030,5,-1549
1592,18.354166,3,0,1,1029,-2,-1545
1593,18.365703,1,1,-1,1029,2,-1543
1594,18.37732,0,-1,-1,1029,-2,-1543
1595,18.388959,0,0,1,1030,0,-1539
1596,18.400607,1,0,0,1028,-3,-1538
1597,18.412285,1,-2,0,1030,0,-1552
1598,18.423931,-1,-2,0,1029,-2,-1548
1599,18.435579,0,-1,-1,1034,0,-1544
1600,18.447255,1,0,-1,1031,-2,-1538
1601,18.45892,-1,-2,0,1029,0,-1546
1602,18.470638,-1,2,0,1031,0,-1545
1603,18.48229,0,-1,-1,1032,-2,-1542
1604,18.493864,-2,0,0,1031,0,-1542
1605,18.505434,-2,3,-2,1035,0,-1546
1606,18.516986,2,-2,-1,1025,-2,-1540
1607,18.528525,-1,2,0,1031,0,-1540
1608,18.540077,0,0,-1,1030,1,-1546
1609,18.551626,-1,-2,-1,1031,0,-1544
1610,18.563184,1,0,0,1032,2,-1542
1611,18.574749,0,3,2,1031,-1,-1545
1612,18.586372,1,0,1,1029,4,-1544
1613,18.598041,-1,0,1,1031,0,-1539
1614,18.609711,0,2,2,1032,2,-1546
1615,18.62138,1,0,2,1028,-1,-1543
1616,18.633036,-1,-2,0,1031,-4,-1533
1617,18.644689,2,1,0,1030,4,-1551
1618,18.656341,-2,0,0,1033,-5,-1536
1619,18.668015,-2,2,2,1035,5,-1555
1620,18.679692,1,1,-1,1033,-4,-1547
1621,18.691344,-4,1,1,1030,1,-1534
1622,18.702955,7,-3,0,1030,4,-1551
1623,18.714535,-3,1,1,1031,4,-1554
1624,18.726118,3,0,1,1030,0,-1547
1625,18.737687,0,3,2,1031,-2,-1541
1626,18.749241,1,1,-1,1029,0,-1541
1627,18.760782,-1,-2,-1,1036,-1,-1541
1628,18.772335,-1,2,1,1029,-3,-1533
1629,18.783895,4,0,0,1035,2,-1563
1630,18.795517,1,-1,0,1031,-2,-1530
1631,18.80718,-2,0,0,1027,1,-1548
1632,18.818852,2,2,0,1032,0,-1550
1633,18.830486,-2,2,-2,1035,0,-1544
1634,18.842178,3,1,2,1031,0,-1545
1635,18.853841,-1,2,0,1029,0,-1541
1636,18.865457,2,0,1,1032,0,-1549
1637,18.877114,-2,2,0,1032,0,-1547
1638,18.888769,1,0,0,1030,1,-1552
1639,18.900351,0,-1,-1,1029,-3,-1554
1640,18.911901,0,-1,0,1027,-2,-1541
1641,18.923464,1,1,-1,1029,-5,-1550
1642,18.935007,0,-1,-1,1028,-2,-1545
1643,18.946552,1,2,-1,1031,0,-1543
1644,18.958113,1,-1,1,1029,0,-1543
1645,18.96968,2,1,0,1028,0,-1548
1646,18.981223,2,-1,-2,1027,-2,-1546
1647,18.992774,4,-1,0,1034,-1,-1550
1648,19.004418,0,0,-1,1032,-2,-1542
1649,19.016068,1,1,2,1031,2,-1540
1650,19.027714,0,2,0,1030,-4,-1546
1651,19.039356,1,0,-2,1031,-1,-1547
1652,19.051,1,-2,0,1025,0,-1542
1653,19.062652,-2,0,-2,1032,-2,-1548
1654,19.074352,-1,0,1,1034,0,-1544
1655,19.086028,0,1,1,1029,1,-1541
1656,19.097716,1,-1,-2,1029,-1,-1543
1657,19.109385,0,1,-2,1031,0,-1543
1658,19.120952,1,-1,2,1031,-2,-1542
1659,19.132519,2,3,0,1031,-2,-1546
1660,19.144067,-1,-1,0,1030,2,-1544
1661,19.155646,1,-1,0,1029,1,-1540
1662,19.167187,0,0,0,1033,1,-1542
1663,19.178762,1,1,0,1031,-1,-1542
1664,19.190315,1,1,0,1032,0,-1546
1665,19.201903,-1,0,0,1028,-1,-1543
1666,19.213622,0,-1,2,1030,-1,-1540
1667,19.225281,2,-1,-1,1032,-1,-1550
1668,19.236953,0,2,0,1032,-1,-1550
1669,19.248602,1,1,1,1028,-2,-1540
1670,19.260247,1,0,1,1033,1,-1542
1671,19.271916,-2,-2,-1,1028,-2,-1542
1672,19.283565,0,2,-1,1030,3,-1544
1673,19.295213,0,1,0,1031,2,-1540
1674,19.306905,0,-2,0,1028,-3,-1531
1675,19.318571,2,-1,2,1031,-6,-1539
1676,19.330229,0,-2,1,1033,4,-1541
1677,19.34188,2,-1,-3,1031,0,-1535
1678,19.353534,3,-2,0,1031,5,-1561
1679,19.365198,1,0,1,1029,-6,-1543
1680,19.376842,-2,0,0,1032,1,-1531
1681,19.388488,4,-3,0,1032,-1,-1531
1682,19.400143,-2,0,1,1035,0,-1541
1683,19.411822,1,-3,-1,1031,-3,-1543
1684,19.423477,0,2,1,1030,-1,-1542
1685,19.435164,0,1,1,1031,-1,-1543
1686,19.446847,0,-1,0,1029,0,-1540
1687,19.458486,0,0,0,1031,-4,-1538
1688,19.470153,2,-1,0,1032,0,-1555
1689,19.481841,-1,0,-1,1030,-2,-1537
1690,19.49346,4,-1,-2,1031,-1,-1551
1691,19.505104,-6,3,-1,1027,0,-1542
1692,19.516771,4,-1,0,1031,1,-1546
1693,19.528429,-1,1,1,1029,-6,-1537
1694,19.539974,-1,1,2,1032,2,-1544
1695,19.551528,4,1,1,1032,-5,-1541
1696,19.563074,0,1,-1,1034,0,-1546
1697,19.574659,2,-2,0,1031,-4,-1543
1698,19.586231,0,1,1,1028,0,-1544
1699,19.597804,0,-2,1,1029,-1,-1550
1700,19.609354,-2,0,0,1031,-1,-1546
1701,19.620914,-1,2,1,1031,3,-1554
1702,19.632557,1,0,0,1031,-4,-1549
1703,19.644227,-1,3,0,1029,0,-1542
1704,19.655876,2,-1,0,1028,0,-1538
1705,19.667516,-2,3,1,1026,0,-1544
1706,19.67916,1,1,-1,1033,2,-1544
1707,19.690839,3,1,-1,1031,0,-1541
1708,19.702494,1,1,-2,1031,-1,-1551
1709,19.714168,2,-1,0,1031,2,-1546
1710,19.725858,3,0,0,1032,0,-1539
1711,19.737573,1,1,-1,1031,1,-1546
1712,19.749161,1,1,-1,1030,-3,-1544
1713,19.760704,1,0,-1,1027,-1,-1549
1714,19.772252,0,-1,1,1034,-1,-1549
1715,19.783805,-1,1,0,1030,0,-1547
1716,19.795358,1,1,2,1033,0,-1548
1717,19.806931,1,1,2,1032,1,-1540
1718,19.818492,-1,-1,0,1028,0,-1548
1719,19.830073,0,-1,-2,1031,1,-1537
1720,19.841737,0,2,-2,1032,1,-1550
1721,19.853387,1,0,-2,1031,-2,-1536
1722,19.86505,-1,-1,1,1033,0,-1548
1723,19.876718,0,1,0,1031,-1,-1542
1724,19.88837,1,1,2,1028,0,-1541
1725,19.900025,1,-1,0,1036,-4,-1543
1726,19.911694,-1,0,1,1029,-1,-1545
1727,19.923382,0,-1,0,1031,0,-1542
1728,19.935045,0,0,0,1030,-2,-1544
1729,19.946727,0,0,-1,1027,-1,-1549
1730,19.958332,2,0,2,1032,0,-1542
1731,19.969917,1,-1,0,1034,1,-1545
1732,19.981451,1,-1,-1,1029,2,-1543
1733,19.992998,1,-2,0,1032,-2,-1544
1734,20.004543,0,2,0,1031,-3,-1536
1735,20.016094,0,0,-1,1030,-1,-1541
1736,20.027672,1,1,-1,1030,0,-1537
1737,20.039232,0,-1,0,1028,1,-1548
1738,20.050862,1,1,0,1028,-2,-1548
1739,20.062497,0,0,0,1031,-1,-1541
1740,20.074151,0,2,2,1033,0,-1544
1741,20.085842,1,-1,2,1028,-2,-1543
1742,20.097499,0,0,-1,1034,2,-1542
1743,20.109146,1,2,-1,1033,0,-1541
1744,20.120795,1,0,1,1027,2,-1548
1745,20.132446,0,1,0,1031,-1,-1539
1746,20.144116,2,-1,0,1028,2,-1544
1747,20.155769,0,-1,-1,1030,0,-1542
1748,20.167427,-1,1,2,1031,0,-1546
1749,20.179077,0,0,-1,1031,-3,-1538
1750,20.190753,-1,1,-1,1032,-2,-1543
1751,20.202402,2,1,2,1031,-5,-1544
1752,20.214081,0,-1,-1,1031,2,-1539
1753,20.225726,-1,1,-1,1031,1,-1543
1754,20.23738,0,0,-1,1033,-4,-1543
1755,20.249043,1,1,2,1031,-2,-1545
1756,20.260704,0,1,-1,1032,-2,-1552
1757,20.272251,-2,-1,0,1029,1,-1548
1758,20.283806,1,0,-1,1032,0,-1547
1759,20.295366,1,1,0,1027,0,-1545
1760,20.306912,0,2,2,1031,4,-1544
1761,20.318467,-1,0,0,1032,0,-1544
1762,20.330103,1,0,0,1028,-1,-1541
1763,20.341694,0,-1,1,1027,-1,-1543
1764,20.35325,1,-2,-2,1029,1,-1543
1765,20.364939,1,2,1,1031,3,-1544
1766,20.376641,-2,3,0,1032,0,-1544
1767,20.388288,1,1,-1,1030,-4,-1539
1768,20.399944,0,-1,-1,1031,0,-1550
1769,20.411616,1,-2,1,1033,-4,-1546
1770,20.423259,-1,0,0,1031,0,-1546
1771,20.434919,2,-1,0,1030,0,-1548
1772,20.446625,-1,-1,0,1030,-3,-1547
1773,20.458274,-1,0,0,1033,1,-1543
1774,20.469852,2,1,-2,1029,1,-1540
1775,20.481432,0,3,0,1030,-3,-1547
1776,20.492974,0,1,1,1029,-2,-1549
1777,20.504512,0,0,0,1031,0,-1541
1778,20.51606,1,-1,0,1030,0,-1547
1779,20.527607,1,0,1,1032,0,-1553
1780,20.539169,0,3,-1,1032,0,-1540
1781,20.550717,2,1,0,1031,2,-1539
1782,20.562324,1,-2,0,1030,0,-1547
1783,20.574016,1,-1,0,1031,0,-1539
1784,20.5857,0,0,-1,1031,-2,-1537
1785,20.597368,1,-1,1,1036,-1,-1545
1786,20.609022,0,-1,1,1033,2,-1541
1787,20.620665,-1,0,0,1028,-1,-1546
1788,20.632318,-2,0,-2,1026,-2,-1547
1789,20.643981,1,0,1,1027,0,-1543
1790,20.655629,0,-1,-2,1034,-4,-1547
1791,20.667296,-2,2,0,1031,3,-1546
1792,20.678983,0,2,-1,1030,0,-1543
1793,20.690566,-2,0,0,1030,-1,-1541
1794,20.702141,0,-2,0,1031,-3,-1551
1795,20.713699,0,0,0,1032,0,-1543
1796,20.725247,1,1,-1,1029,-1,-1538
1797,20.736795,-1,-1,-1,1033,-1,-1544
1798,20.748342,1,0,1,1031,-1,-1544
1799,20.75989,0,1,0,1028,0,-1542
1800,20.771446,0,0,-1,1024,0,-1541
1801,20.783071,1,1,-2,1031,0,-1545
1802,20.794772,0,0,0,1032,3,-1547
1803,20.806432,0,2,2,1032,-3,-1543
1804,20.818107,1,0,1,1030,0,-1537
1805,20.829783,-1,1,0,1031,2,-1542
1806,20.841454,-1,1,-2,1032,0,-1550
1807,20.853126,2,1,0,1031,0,-1541
1808,20.864786,0,0,-2,1032,0,-1548
1809,20.876447,-1,1,1,1035,1,-1542
1810,20.888111,0,0,1,1034,-3,-1544
1811,20.899661,0,3,-1,1033,-1,-1544
1812,20.911239,-1,0,0,1031,3,-1544
1813,20.922789,-1,2,-2,1032,0,-1545
1814,20.934354,-2,1,0,1030,0,-1539
1815,20.94592,1,0,-1,1030,1,-1543
1816,20.957492,2,-1,-1,1031,-3,-1542
1817,20.969046,0,0,-1,1029,-3,-1544
1818,20.980623,0,-1,-1,1032,0,-1546
1819,20.992242,1,0,1,1029,-2,-1547
1820,21.003908,2,0,1,1031,-3,-1545
1821,21.015555,0,1,1,1031,-4,-1546
1822,21.027197,0,-2,-1,1025,2,-1541
1823,21.038882,1,1,-1,1031,1,-1547
1824,21.050541,-1,1,-1,1030,4,-1550
1825,21.062213,1,0,2,1030,2,-1542
1826,21.073909,-2,-1,2,1027,-1,-1544
1827,21.085594,2,-1,-1,1038,0,-1547
1828,21.09727,-2,-1,-3,1033,-3,-1535
1829,21.108928,5,-1,0,1037,-1,-1551
1830,21.120579,0,2,-2,1031,-5,-1540
1831,21.13222,-2,0,-1,1031,3,-1532
1832,21.143864,4,-1,-2,1029,0,-1551
1833,21.155534,-2,-2,-1,1033,3,-1560
1834,21.167175,1,-1,-1,1035,0,-1542
1835,21.17885,-1,-1,0,1031,2,-1547
1836,21.190526,3,0,1,1029,0,-1538
1837,21.202209,1,-1,1,1031,-1,-1546
1838,21.213863,1,0,2,1032,0,-1549
1839,21.22554,2,-1,0,1028,-2,-1538
1840,21.237177,-2,1,1,1032,-3,-1544
1841,21.248825,3,1,0,1031,-1,-1544
1842,21.260472,-2,-1,1,1034,3,-1535
1843,21.272141,1,3,-2,1030,-2,-1544
1844,21.283808,0,2,1,1029,-2,-1542
1845,21.295465,2,0,1,1031,4,-1549
1846,21.307103,-1,0,0,1031,-5,-1545
1847,21.318652,-1,1,1,1032,1,-1544
1848,21.330232,2,0,1,1031,0,-1544
1849,21.341803,1,0,-1,1032,3,-1544
1850,21.353371,1,-1,0,1032,-1,-1545
1851,21.364916,-2,2,0,1031,-1,-1549
1852,21.376492,1,0,0,1030,-2,-1547
1853,21.388039,0,0,1,1029,0,-1544
1854,21.399614,2,-1,1,1031,2,-1546
1855,21.411225,3,0,1,1031,-2,-1548
1856,21.422893,0,1,-1,1031,-2,-1545
1857,21.434579,-1,2,0,1029,1,-1542
1858,21.446225,0,0,2,1029,-2,-1543
1859,21.457895,1,0,1,1032,-1,-1545
1860,21.469567,1,-1,1,1031,-2,-1538
1861,21.481245,2,0,2,1029,0,-1552
1862,21.493207,-1,-2,0,1032,-3,-1543
1863,21.505031,-1,0,0,1030,1,-1542
1864,21.516647,-1,0,2,1031,0,-1536
1865,21.528238,1,1,1,1030,-3,-1541
1866,21.539793,1,1,1,1032,0,-1544
1867,21.551372,1,1,1,1032,0,-1544
1868,21.562915,0,0,0,1030,0,-1545
1869,21.574466,2,-2,-2,1030,-1,-1542
1870,21.586055,0,2,1,1036,3,-1541
1871,21.597604,1,-2,0,1031,0,-1544
1872,21.60921,2,-2,2,1029,1,-1546
1873,21.620854,0,-1,-1,1027,0,-1542
1874,21.632546,0,1,1,1030,-2,-1543
1875,21.644198,1,-1,1,1030,1,-1545
1876,21.655931,1,2,1,1029,-2,-1546
1877,21.667582,-1,-2,1,1030,-4,-1539
1878,21.67923,0,0,3,1027,0,-1544
1879,21.690912,2,1,-1,1031,-1,-1547
1880,21.702596,0,3,-2,1028,0,-1545
1881,21.71425,-1,0,-1,1030,1,-1548
1882,21.725948,1,-2,-1,1028,-1,-1542
1883,21.737597,0,0,-1,1028,-1,-1544
1884,21.749253,1,-1,0,1031,-3,-1546
1885,21.760932,1,0,-1,1032,0,-1542
1886,21.772578,0,-1,1,1030,5,-1541
1887,21.784223,0,2,-1,1031,-1,-1547
1888,21.795874,2,0,1,1030,0,-1545
1889,21.807562,0,-1,0,1031,-2,-1545
1890,21.819226,1,0,2,1030,-1,-1543
1891,21.830911,2,1,-1,1033,-1,-1540
1892,21.842477,0,1,-1,1030,1,-1549
1893,21.854046,-1,2,-1,1030,-1,-1541
1894,21.865605,1,-1,0,1030,-2,-1541
1895,21.877167,-2,0,1,1033,3,-1547
1896,21.88872,1,1,1,1031,2,-1542
1897,21.900289,1,-1,-1,1031,0,-1539
1898,21.911829,1,-1,1,1034,-1,-1544
1899,21.923388,0,0,0,1030,-1,-1547
1900,21.935008,-1,-1,0,1031,-1,-1542
1901,21.946667,0,-1,1,1030,0,-1545
1902,21.958353,2,1,1,1032,-4,-1546
1903,21.970018,1,-1,1,1030,-4,-1545
1904,21.981694,-2,0,1,1025,-2,-1537
1905,21.993348,0,0,0,1026,0,-1550
1906,22.004999,0,0,1,1030,0,-1551
1907,22.016637,0,0,-1,1031,0,-1539
1908,22.028349,1,-1,0,1032,-1,-1550
1909,22.039996,0,0,1,1030,0,-1549
1910,22.051556,-1,0,-1,1033,-2,-1545
1911,22.063101,-1,-2,0,1030,-4,-1547
1912,22.074655,1,0,-1,1033,-1,-1543
1913,22.086176,0,1,1,1033,-2,-1549
1914,22.097747,2,1,1,1032,0,-1544
1915,22.109302,0,-2,-2,1031,1,-1544
1916,22.12085,1,0,1,1031,0,-1541
1917,22.132411,-1,1,1,1028,-2,-1538
1918,22.14403,2,0,1,1028,-5,-1544
1919,22.155685,0,2,0,1031,1,-1543
1920,22.167351,1,-1,-1,1031,-4,-1542
1921,22.179018,0,1,0,1028,0,-1551
1922,22.190666,-1,-1,-1,1029,0,-1545
1923,22.202358,-1,0,0,1032,-1,-1542
1924,22.213976,1,-2,0,1033,0,-1546
1925,22.225654,-1,2,-2,1030,-3,-1546
1926,22.237312,1,1,2,1032,-2,-1538
1927,22.249003,0,0,0,1033,-4,-1543
1928,22.26064,-1,-1,-1,1030,1,-1547
1929,22.272286,2,0,-2,1034,1,-1542
1930,22.283978,1,-1,1,1035,3,-1547
1931,22.295619,1,0,0,1031,3,-1544
1932,22.307268,1,2,2,1033,0,-1543
1933,22.318937,0,0,0,1030,1,-1549
1934,22.330614,1,0,0,1028,4,-1545
1935,22.342283,1,-1,1,1029,1,-1548
1936,22.35398,1,2,-1,1030,-5,-1546
1937,22.365625,0,2,-2,1029,-4,-1542
1938,22.377274,1,-1,-2,1034,1,-1539
1939,22.388916,1,0,0,1028,-1,-1543
1940,22.400615,-1,1,1,1029,0,-1538
1941,22.412272,1,0,0,1026,-3,-1540
1942,22.423916,2,3,1,1031,2,-1549
1943,22.435577,0,-2,0,1032,-2,-1539
1944,22.447313,3,0,0,1031,0,-1545
1945,22.458999,1,1,-1,1025,0,-1539
1946,22.470565,-2,1,-3,1031,0,-1547
1947,22.482126,1,-2,0,1029,1,-1546
1948,22.493717,2,2,-1,1031,1,-1541
1949,22.505285,0,0,2,1032,-4,-1542
1950,22.516831,0,0,0,1031,-2,-1539
1951,22.528376,1,-1,-2,1033,0,-1544
1952,22.539928,-2,-1,-1,1029,-3,-1543
1953,22.55152,2,1,1,1030,0,-1544
1954,22.563149,1,0,-2,1030,-3,-1546
1955,22.574811,-2,0,1,1028,-3,-1545
1956,22.586508,1,0,2,1030,-3,-1542
1957,22.598155,0,1,1,1031,-4,-1541
1958,22.609861,2,-1,1,1032,0,-1544
1959,22.621521,1,1,-1,1029,0,-1544
1960,22.633162,1,1,1,1031,-1,-1543
1961,22.644826,1,0,-1,1030,0,-1543
1962,22.656491,0,0,0,1030,0,-1546
1963,22.668163,-1,2,1,1031,-1,-1540
1964,22.679721,-2,0,3,1031,-3,-1543
1965,22.691266,2,1,-2,1029,2,-1539
1966,22.702818,-2,3,1,1030,-5,-1544
1967,22.714398,1,0,1,1028,1,-1540
1968,22.725964,0,1,2,1032,2,-1542
1969,22.737517,1,2,-2,1032,-4,-1542
1970,22.749075,1,1,-2,1027,-2,-1541
1971,22.760633,1,0,1,1027,-3,-1540
1972,22.77237,0,1,0,1033,0,-1541
1973,22.784018,1,1,-1,1030,0,-1545
1974,22.795664,2,0,-1,1031,2,-1549
1975,22.807315,0,1,0,1031,-1,-1543
1976,22.819004,1,0,1,1030,0,-1538
1977,22.830659,1,1,-1,1030,0,-1545
1978,22.842354,-1,-2,2,1032,-1,-1542
1979,22.854013,1,1,0,1030,0,-1539
1980,22.865757,1,0,-1,1031,-1,-1542
1981,22.877434,-1,2,1,1029,0,-1541
1982,22.888995,1,-1,2,1031,0,-1547
1983,22.900563,0,0,0,1035,-5,-1541
1984,22.912122,0,1,1,1031,0,-1542
1985,22.923744,2,1,1,1031,0,-1542
1986,22.935321,1,1,3,1031,3,-1541
1987,22.946899,0,1,1,1030,-3,-1544
1988,22.958454,0,1,2,1029,1,-1544
1989,22.970008,0,2,0,1028,0,-1543
1990,22.981663,0,1,0,1031,-3,-1541
1991,22.993316,0,0,-1,1031,5,-1545
1992,23.004992,-2,1,0,1033,0,-1546
1993,23.016651,1,1,-1,1031,-3,-1541
1994,23.028301,0,0,0,1026,-1,-1545
1995,23.039954,0,0,1,1030,0,-1546
1996,23.051619,1,0,0,1033,-1,-1540
1997,23.063276,-1,0,-1,1030,-3,-1545
1998,23.074945,0,1,1,1029,-2,-1537
1999,23.086628,0,1,-2,1030,2,-1540
