sample,t_s,gyro_x,gyro_y,gyro_z,accel_x,accel_y,accel_z
0,1.2e-05,6,2,13,0,65,-1038
1,0.011439,2,7,8,-2,64,-1033
2,0.022661,4,5,6,0,67,-1033
3,0.033854,3,7,8,0,65,-1031
4,0.045051,4,6,7,0,66,-1030
5,0.056238,4,6,10,3,66,-1033
6,0.067429,2,7,9,-2,64,-1039
7,0.078618,3,8,7,-2,67,-1029
8,0.089825,1,8,9,-1,67,-1031
9,0.101015,4,4,8,0,65,-1037
10,0.1122,4,7,9,-2,66,-1033
11,0.123385,3,7,9,1,62,-1039
12,0.134569,2,8,8,2,66,-1031
13,0.145761,1,5,9,-3,65,-1034
14,0.156949,2,6,9,0,66,-1036
15,0.168131,0,7,9,-2,64,-1039
16,0.179314,1,6,9,1,65,-1034
17,0.190497,1,7,7,0,66,-1029
18,0.201639,0,5,9,0,64,-1030
19,0.212826,5,6,8,-1,67,-1036
20,0.224008,2,5,8,-1,63,-1031
21,0.235189,1,7,8,0,65,-1034
22,0.246371,2,5,11,1,67,-1032
23,0.257579,2,5,12,-2,63,-1035
24,0.268763,2,5,9,-6,64,-1036
25,0.279946,4,5,9,-5,66,-1032
26,0.29113,4,4,9,-2,65,-1032
27,0.302314,2,7,10,0,63,-1032
28,0.313502,2,7,8,-1,63,-1036
29,0.324685,3,4,10,-3,65,-1033
30,0.335869,3,6,10,2,63,-1038
31,0.347057,3,5,11,-3,66,-1036
32,0.35824,0,7,10,0,63,-1031
33,0.369431,1,7,9,2,64,-1028
34,0.380615,2,7,10,-2,64,-1028
35,0.391801,3,5,10,-1,67,-1032
36,0.403,3,4,10,-2,62,-1034
37,0.414185,1,6,10,-4,66,-1028
38,0.425383,1,6,9,0,68,-1033
39,0.436568,3,7,8,2,61,-1032
40,0.447752,1,7,10,0,61,-1029
41,0.458943,3,6,10,1,67,-1029
42,0.470124,3,7,7,2,64,-1030
43,0.481271,2,6,12,-2,68,-1038
44,0.492452,0,7,9,-3,66,-1035
45,0.503634,2,6,9,1,65,-1038
46,0.514816,1,6,11,-4,67,-1030
47,0.525998,2,6,9,0,65,-1035
48,0.537195,1,5,8,0,63,-1035
49,0.548385,3,7,9,0,63,-1030
50,0.559571,3,7,9,0,65,-1036
51,0.570755,1,7,10,0,65,-1030
52,0.581943,4,7,10,1,65,-1031
53,0.593086,1,7,10,1,65,-1039
54,0.604268,3,5,9,-1,66,-1026
55,0.615452,3,5,10,-5,66,-1030
56,0.62664,1,8,9,-1,66,-1027
57,0.637822,4,6,9,0,64,-1036
58,0.649018,4,6,8,-1,64,-1033
59,0.660201,2,7,8,0,66,-1034
60,0.671386,3,7,10,-5,65,-1030
61,0.682575,2,6,7,-2,65,-1029
62,0.693763,3,7,7,-4,66,-1034
63,0.704951,0,5,7,-2,66,-1032
64,0.716135,3,5,9,0,64,-1035
65,0.727324,3,9,9,-2,66,-1033
66,0.73851,2,8,8,0,64,-1029
67,0.749697,3,5,9,0,65,-1039
68,0.760911,1,6,9,-2,68,-1038
69,0.772094,1,6,7,-4,64,-1032
70,0.783276,3,6,7,-3,63,-1033
71,0.794455,2,6,9,0,63,-1037
72,0.805641,4,7,10,-3,62,-1028
73,0.816828,1,7,8,0,63,-1038
74,0.828011,1,4,11,-2,67,-1038
75,0.839195,2,4,10,1,60,-1037
76,0.850379,3,9,9,0,64,-1032
77,0.861575,2,7,8,0,67,-1026
78,0.872777,0,7,9,-2,62,-1035
79,0.883956,1,7,9,0,66,-1041
80,0.895145,0,6,8,-1,69,-1031
81,0.906326,4,5,8,0,64,-1037
82,0.917518,3,7,8,-2,63,-1027
83,0.928717,3,5,8,5,65,-1036
84,0.939905,3,6,10,0,66,-1032
85,0.951089,1,7,10,0,65,-1025
86,0.962271,5,5,6,-1,66,-1029
87,0.973456,4,6,9,-4,62,-1033
88,0.98464,3,5,8,0,65,-1042
89,0.995826,5,8,7,0,64,-1032
90,1.007012,4,7,9,-4,64,-1037
91,1.018195,5,7,9,-2,64,-1028
92,1.029381,2,6,8,-1,65,-1038
93,1.040571,2,8,10,-1,64,-1032
94,1.051752,5,8,9,-1,63,-1030
95,1.062933,3,6,8,2,64,-1033
96,1.074117,6,8,10,0,67,-1033
97,1.085276,4,6,9,-3,64,-1031
98,1.096461,3,3,10,-1,65,-1033
99,1.107648,1,7,9,-2,63,-1037
100,1.118846,1,5,11,-4,67,-1040
101,1.130029,3,6,10,0,62,-1036
102,1.141218,0,8,9,-3,67,-1037
103,1.1524,1,8,9,0,69,-1039
104,1.163585,4,6,10,1,65,-1031
105,1.174783,2,5,11,0,64,-1032
106,1.185968,3,6,9,0,68,-1038
107,1.197162,1,6,7,-1,60,-1031
108,1.208344,2,6,9,-2,64,-1037
109,1.219534,2,5,9,-1,63,-1034
110,1.230715,2,5,9,-1,66,-1034
111,1.241899,3,6,8,0,67,-1032
112,1.253085,3,8,10,2,65,-1036
113,1.264266,2,9,9,-1,64,-1034
114,1.275449,2,6,8,1,65,-1035
115,1.286628,2,9,10,0,65,-1028
116,1.297826,1,6,8,-5,65,-1034
117,1.309011,4,4,10,1,63,-1031
118,1.320192,2,7,9,1,64,-1031
119,1.331373,3,5,9,-1,63,-1036
120,1.342554,2,5,8,-5,66,-1035
121,1.353744,2,5,12,-2,64,-1028
122,1.364901,1,6,10,0,63,-1037
123,1.376082,4,6,10,-6,63,-1028
124,1.387263,4,6,10,-3,62,-1033
125,1.398443,2,6,10,0,67,-1033
126,1.409639,4,5,10,-4,66,-1034
127,1.420828,3,7,8,1,64,-1031
128,1.43201,3,7,8,2,66,-1033
129,1.443192,2,6,7,-3,67,-1026
130,1.454373,3,5,10,-1,64,-1030
131,1.465565,2,4,9,-3,65,-1033
132,1.476725,4,6,8,1,63,-1030
133,1.487909,3,7,11,1,63,-1026
134,1.49909,2,5,8,-1,66,-1039
135,1.510275,1,6,9,0,64,-1035
136,1.521456,2,6,8,0,64,-1034
137,1.532635,3,5,10,0,62,-1031
138,1.543816,2,3,9,-2,68,-1034
139,1.554999,3,6,12,-1,58,-1030
140,1.566185,2,5,9,-1,64,-1035
141,1.577375,2,6,9,-2,62,-1032
142,1.588559,4,6,8,-2,67,-1033
143,1.599742,2,6,9,-1,60,-1033
144,1.610929,1,7,9,0,65,-1033
145,1.622112,4,5,7,-2,67,-1028
146,1.63327,3,7,6,2,66,-1034
147,1.64445,2,5,9,-1,63,-1026
148,1.65563,3,6,7,0,62,-1032
149,1.666826,0,7,7,-2,67,-1037
150,1.678006,2,9,8,2,67,-1033
151,1.689196,3,6,10,-5,64,-1033
152,1.700378,4,5,7,0,69,-1032
153,1.711564,3,4,11,2,70,-1029
154,1.72275,3,6,8,1,65,-1031
155,1.733954,2,7,8,0,65,-1034
156,1.745139,3,3,12,-3,66,-1035
157,1.756323,1,5,10,-3,62,-1032
158,1.767508,2,6,7,0,64,-1029
159,1.778694,2,6,8,1,62,-1037
160,1.789876,1,3,9,-2,67,-1029
161,1.80108,4,7,7,-3,65,-1035
162,1.812263,3,8,10,0,71,-1038
163,1.823445,3,8,7,-3,66,-1034
164,1.834668,2,7,8,0,63,-1043
165,1.84585,2,8,10,0,71,-1038
166,1.857034,7,4,9,2,65,-1047
167,1.868215,-3,8,10,-3,62,-1046
168,1.879395,9,7,11,2,65,-1026
169,1.890576,0,6,9,0,61,-1031
170,1.901764,5,5,11,0,70,-1046
171,1.912949,4,6,9,-3,61,-1022
172,1.924134,0,8,8,0,68,-1030
173,1.935318,4,6,10,-2,62,-1034
174,1.946504,1,7,9,0,63,-1032
175,1.957762,1,6,10,1,62,-1034
176,1.968956,3,9,10,0,67,-1030
177,1.980139,2,6,8,-4,67,-1039
178,1.991326,4,7,8,-2,62,-1032
179,2.002509,1,9,9,0,62,-1034
180,2.013695,4,5,10,-1,61,-1036
181,2.024897,1,4,10,-1,66,-1035
182,2.036082,4,11,8,0,64,-1030
183,2.047282,2,6,10,0,67,-1032
184,2.058466,2,6,10,1,62,-1035
185,2.069638,1,8,8,1,66,-1030
186,2.080837,1,6,8,-2,66,-1030
187,2.092017,3,6,8,0,67,-1037
188,2.103207,2,6,7,2,61,-1032
189,2.114386,4,6,8,-1,64,-1037
190,2.125578,2,6,11,-5,61,-1034
191,2.136767,2,4,8,0,64,-1033
192,2.147949,5,9,7,1,60,-1032
193,2.159133,0,6,9,0,66,-1036
194,2.170316,2,4,9,-3,67,-1034
195,2.181502,2,4,9,0,66,-1039
196,2.192723,0,6,5,-2,66,-1030
197,2.203905,4,6,10,2,61,-1032
198,2.215084,1,7,11,-1,68,-1031
199,2.226265,4,6,8,0,68,-1037
200,2.237451,3,7,11,-2,65,-1035
201,2.248635,3,6,8,-1,65,-1032
202,2.259814,3,6,9,-1,63,-1035
203,2.270995,0,7,10,2,66,-1036
204,2.282177,3,5,10,-1,65,-1028
205,2.293357,2,8,10,0,66,-1037
206,2.304542,1,4,9,0,61,-1030
207,2.315724,3,8,9,-3,60,-1031
208,2.326907,2,6,11,-2,69,-1036
209,2.338088,2,4,10,-4,68,-1037
210,2.349272,2,7,7,1,65,-1040
211,2.360454,3,6,9,-1,64,-1027
212,2.371636,2,7,8,0,67,-1029
213,2.382839,4,6,8,0,59,-1027
214,2.394023,1,8,9,-3,67,-1035
215,2.405222,1,6,10,-3,68,-1034
216,2.416401,3,7,8,1,62,-1033
217,2.427589,1,7,9,-3,66,-1038
218,2.438779,3,7,8,4,67,-1033
219,2.449963,2,4,8,-5,69,-1037
220,2.461146,3,5,8,-3,64,-1037
221,2.472326,1,4,7,-1,61,-1026
222,2.483506,3,8,8,-3,68,-1039
223,2.494683,4,4,7,-1,65,-1040
224,2.505862,1,5,11,-1,61,-1036
225,2.517046,2,5,10,1,62,-1033
226,2.528231,3,5,9,1,65,-1032
227,2.539412,4,8,9,0,62,-1029
228,2.550605,2,6,7,-5,65,-1031
229,2.561792,3,6,9,5,66,-1030
230,2.572978,3,8,7,-1,59,-1042
231,2.584162,2,7,8,-4,66,-1033
232,2.595354,4,7,6,2,68,-1041
233,2.606542,3,7,9,-4,67,-1037
234,2.617731,2,7,9,0,67,-1036
235,2.6289,5,5,8,0,63,-1026
236,2.640084,2,7,8,-3,64,-1031
237,2.651265,4,7,9,0,65,-1030
238,2.662446,2,5,10,0,63,-1033
239,2.673635,3,3,10,-3,65,-1027
240,2.684823,2,7,10,0,65,-1041
241,2.696003,2,6,9,-1,63,-1033
242,2.707184,2,6,8,-3,66,-1022
243,2.718363,1,3,10,1,63,-1027
244,2.729562,2,6,9,1,64,-1029
245,2.740717,2,5,7,1,63,-1036
246,2.751897,3,9,10,2,64,-1032
247,2.76308,4,5,7,0,62,-1031
248,2.774263,2,7,9,1,66,-1033
249,2.785454,3,6,9,-1,63,-1031
250,2.796634,2,6,8,-1,65,-1032
251,2.807816,2,7,10,-2,60,-1035
252,2.819,2,6,9,0,66,-1032
253,2.830183,2,6,10,-1,68,-1036
254,2.84138,4,6,9,-1,63,-1033
255,2.852565,2,6,8,-2,63,-1031
256,2.863749,5,6,8,-3,69,-1034
257,2.87494,2,9,10,0,61,-1031
258,2.886126,1,7,8,0,67,-1032
259,2.897315,1,7,9,1,66,-1032
260,2.908511,2,5,11,2,65,-1027
261,2.919694,3,7,10,0,61,-1028
262,2.930879,1,8,10,2,67,-1042
263,2.942062,2,5,10,0,67,-1032
264,2.953258,3,6,10,0,65,-1031
265,2.964441,2,5,9,-3,64,-1033
266,2.975623,2,5,9,2,65,-1040
267,2.986812,3,7,9,0,64,-1031
268,2.997998,2,8,9,0,64,-1031
269,3.009193,3,6,9,-1,62,-1037
270,3.020387,3,4,11,-1,61,-1030
271,3.03157,2,6,10,2,65,-1035
272,3.042755,3,6,9,-1,66,-1032
273,3.053939,2,6,11,0,66,-1032
274,3.065085,2,6,9,2,62,-1034
275,3.076266,3,5,9,0,64,-1039
276,3.087446,3,8,8,-1,60,-1034
277,3.098626,3,7,7,0,63,-1033
278,3.109828,3,6,11,-3,66,-1033
279,3.121013,2,5,9,0,64,-1038
280,3.132197,3,6,11,1,69,-1035
281,3.14338,3,5,9,-1,65,-1033
282,3.154564,1,5,9,-4,67,-1035
283,3.16576,1,8,10,1,63,-1034
284,3.176955,2,6,7,0,64,-1034
285,3.18814,4,5,9,0,65,-1038
286,3.199327,4,5,10,0,64,-1041
287,3.210516,3,6,9,2,61,-1033
288,3.221703,2,3,10,-2,64,-1036
289,3.232894,2,6,10,2,65,-1035
290,3.244078,4,6,8,3,64,-1034
291,3.255269,1,4,9,-3,65,-1029
292,3.266453,5,6,12,-1,68,-1036
293,3.277636,1,6,11,3,65,-1029
294,3.288829,2,5,6,3,66,-1035
295,3.300014,4,7,9,-3,68,-1028
296,3.311198,2,7,11,-6,66,-1033
297,3.32238,2,9,9,-1,63,-1026
298,3.333569,3,6,8,0,65,-1031
299,3.344719,2,5,7,3,64,-1028
300,3.355899,2,5,9,0,63,-1031
301,3.367086,4,6,10,0,66,-1037
302,3.378266,0,4,12,-1,63,-1033
303,3.38946,3,7,10,-1,66,-1033
304,3.40065,3,7,9,-5,67,-1035
305,3.411832,2,6,8,3,62,-1034
306,3.423018,2,4,11,-1,66,-1029
307,3.4342,1,4,8,0,59,-1034
308,3.44539,1,6,10,-4,63,-1032
309,3.456592,1,6,10,-2,65,-1033
310,3.467777,1,6,9,-1,65,-1030
311,3.478966,4,5,9,0,63,-1034
312,3.490146,2,7,9,0,65,-1028
313,3.501339,2,8,9,-2,67,-1037
314,3.512524,3,4,9,-2,64,-1031
315,3.523707,3,7,9,-4,65,-1032
316,3.534892,1,4,11,-2,66,-1037
317,3.546075,3,5,9,0,62,-1034
318,3.557277,2,7,9,0,66,-1035
319,3.568461,3,6,9,0,64,-1029
320,3.579647,2,7,7,2,62,-1035
321,3.590832,3,6,9,-4,63,-1038
322,3.602014,3,5,8,5,62,-1033
323,3.613219,1,7,9,0,63,-1032
324,3.624404,2,6,10,0,66,-1032
325,3.635591,2,5,8,0,61,-1034
326,3.646776,3,6,8,-2,62,-1033
327,3.65796,3,8,7,0,66,-1041
328,3.669146,0,6,10,-1,65,-1036
329,3.680328,2,5,9,1,65,-1033
330,3.691513,3,7,9,0,62,-1037
331,3.702694,2,7,8,-3,66,-1033
332,3.713876,2,6,10,0,64,-1031
333,3.725095,3,6,10,-4,65,-1035
334,3.736342,0,5,9,1,63,-1031
335,3.747534,2,8,8,-2,66,-1035
336,3.758727,3,7,12,-1,64,-1034
337,3.769916,3,5,10,-1,67,-1037
338,3.781088,3,5,11,-1,62,-1037
339,3.792274,2,5,10,-5,67,-1033
340,3.803453,3,8,7,-1,68,-1032
341,3.814648,2,6,10,0,67,-1028
342,3.825835,3,5,8,0,64,-1024
343,3.837019,2,7,10,0,69,-1029
344,3.848199,4,6,9,-1,66,-1036
345,3.859388,0,7,11,-5,62,-1031
346,3.870946,7,6,8,-4,67,-1033
347,3.882611,-2,8,4,-2,66,-1035
348,3.894326,3,5,8,-3,66,-1037
349,3.905978,3,6,9,-1,63,-1028
350,3.917671,3,5,8,3,66,-1035
351,3.929333,1,6,11,0,60,-1034
352,3.941014,2,6,10,0,66,-1039
353,3.952692,3,6,10,-2,64,-1034
354,3.964356,3,7,9,-1,67,-1036
355,3.976076,2,6,8,2,63,-1035
356,3.987639,2,5,11,0,67,-1035
357,3.999194,1,4,8,-3,67,-1032
358,4.010788,1,6,9,0,62,-1034
359,4.022346,3,6,11,0,66,-1041
360,4.033901,3,4,10,-1,68,-1033
361,4.045472,2,6,10,-5,69,-1039
362,4.057002,2,6,8,0,64,-1032
363,4.06857,2,7,9,0,63,-1030
364,4.080195,4,6,8,-2,66,-1033
365,4.091844,2,6,11,1,61,-1030
366,4.10349,4,7,10,0,65,-1039
367,4.115149,2,7,7,0,65,-1030
368,4.126819,0,7,8,-3,68,-1031
369,4.138457,1,5,9,-1,66,-1039
370,4.150114,2,8,12,0,61,-1028
371,4.161807,3,7,9,1,62,-1035
372,4.173471,2,5,10,0,62,-1031
373,4.185128,3,5,9,-3,64,-1031
374,4.196698,2,7,9,2,65,-1037
375,4.208273,4,7,9,0,60,-1038
376,4.219826,1,8,11,-3,67,-1031
377,4.231405,3,7,9,2,65,-1033
378,4.242943,2,7,9,-3,65,-1034
379,4.254502,3,6,11,-1,62,-1037
380,4.266161,3,7,9,0,63,-1030
381,4.277735,2,8,10,0,63,-1027
382,4.289415,0,7,10,-1,59,-1032
383,4.301082,2,7,9,-1,67,-1031
384,4.312755,3,8,10,-1,65,-1030
385,4.324423,2,4,10,-4,67,-1039
386,4.336082,3,9,10,1,64,-1029
387,4.347777,2,4,12,-2,64,-1032
388,4.35945,4,8,9,2,64,-1031
389,4.371104,2,6,9,2,64,-1029
390,4.382758,1,6,10,0,67,-1030
391,4.394431,4,6,9,0,63,-1034
392,4.40604,3,7,8,0,64,-1026
393,4.417603,3,7,8,0,63,-1029
394,4.429175,3,6,9,-2,64,-1030
395,4.440744,1,6,6,-4,63,-1032
396,4.452289,4,7,8,2,69,-1037
397,4.463853,2,5,9,1,67,-1036
398,4.475406,2,7,9,2,65,-1030
399,4.486961,3,5,10,-1,61,-1035
400,4.498617,2,6,9,-2,64,-1033
401,4.510326,3,6,7,-1,67,-1029
402,4.521983,1,7,9,-5,65,-1028
403,4.533655,4,7,10,1,66,-1034
404,4.545358,3,6,9,-3,62,-1030
405,4.557013,3,7,8,-1,65,-1032
406,4.56868,2,6,8,-1,62,-1037
407,4.580355,3,3,10,-4,67,-1033
408,4.592007,2,6,9,0,66,-1038
409,4.603683,3,6,10,-1,64,-1030
410,4.615237,4,7,8,-1,67,-1029
411,4.626801,3,6,10,0,66,-1038
412,4.638348,3,6,8,1,63,-1030
413,4.649916,1,6,8,-1,65,-1029
414,4.661474,2,6,11,0,65,-1038
415,4.67305,2,3,11,3,66,-1035
416,4.684585,1,6,9,1,68,-1031
417,4.696144,3,5,8,-3,68,-1037
418,4.707758,3,7,8,0,62,-1029
419,4.719428,2,5,9,2,65,-1036
420,4.731089,2,6,9,-2,67,-1036
421,4.742744,5,6,10,-2,63,-1029
422,4.754385,1,3,8,-2,64,-1034
423,4.76604,3,6,8,-3,66,-1033
424,4.777715,3,7,9,0,65,-1039
425,4.789394,1,5,9,0,61,-1033
426,4.801032,2,6,8,-3,66,-1032
427,4.812747,0,5,9,0,62,-1030
428,4.824312,2,7,8,2,69,-1033
429,4.835858,3,6,7,2,66,-1027
430,4.847422,3,5,9,1,65,-1033
431,4.858971,3,6,10,2,61,-1031
432,4.870516,3,5,8,-2,61,-1030
433,4.882078,3,6,10,0,62,-1026
434,4.893662,2,6,9,4,64,-1035
435,4.905239,4,5,9,0,63,-1027
436,4.916888,3,6,7,-2,62,-1037
437,4.928539,2,5,9,0,65,-1032
438,4.940202,2,6,9,-4,65,-1032
439,4.951863,1,9,9,-1,63,-1034
440,4.963534,3,5,9,-1,66,-1029
441,4.97519,2,6,10,-4,67,-1034
442,4.986856,4,7,9,1,64,-1031
443,4.99851,3,7,9,-5,64,-1038
444,5.010208,4,7,7,1,64,-1034
445,5.021855,3,4,10,0,62,-1023
446,5.033448,2,7,10,2,64,-1034
447,5.044991,1,5,9,0,65,-1026
448,5.056533,3,7,9,-4,64,-1039
449,5.068081,1,7,7,0,65,-1026
450,5.079626,2,7,10,2,65,-1033
451,5.091212,4,5,9,-2,62,-1035
452,5.102795,2,6,10,0,63,-1033
453,5.114357,3,6,10,-4,67,-1035
454,5.126013,3,9,10,-1,66,-1035
455,5.137683,3,7,8,4,59,-1033
456,5.14934,2,7,9,0,65,-1033
457,5.161023,3,7,9,-5,62,-1031
458,5.172673,2,7,12,-3,65,-1038
459,5.184349,1,4,9,-2,62,-1034
460,5.196013,1,7,10,1,65,-1040
461,5.20766,1,5,9,-2,65,-1029
462,5.219318,3,7,11,-2,63,-1040
463,5.230862,0,5,7,-3,63,-1034
464,5.242406,3,6,9,-4,64,-1038
465,5.253958,2,7,9,1,65,-1028
466,5.265516,2,5,9,1,62,-1030
467,5.277111,4,6,8,-3,69,-1032
468,5.288674,0,8,9,-3,66,-1038
469,5.300215,2,5,8,-2,66,-1039
470,5.31175,4,6,9,1,64,-1027
471,5.323304,3,6,10,0,65,-1036
472,5.334925,4,5,10,0,62,-1030
473,5.346576,3,6,10,-3,66,-1036
474,5.358233,2,5,10,-6,67,-1034
475,5.36992,1,6,9,1,65,-1034
476,5.381573,1,7,12,-2,67,-1032
477,5.393271,1,6,9,0,65,-1037
478,5.404928,1,7,9,1,70,-1035
479,5.416587,2,5,10,-4,63,-1037
480,5.428258,4,5,9,-5,66,-1036
481,5.439911,3,7,9,-2,66,-1033
482,5.451503,2,6,8,3,61,-1030
483,5.463117,1,6,9,-3,67,-1038
484,5.474689,5,6,10,0,65,-1035
485,5.486229,2,5,9,2,65,-1032
486,5.497775,2,6,8,1,65,-1027
487,5.509351,2,5,9,-1,66,-1026
488,5.520902,4,6,8,-2,65,-1036
489,5.532458,1,6,9,0,69,-1022
490,5.544097,4,6,8,-1,69,-1038
491,5.555774,4,5,9,1,67,-1036
492,5.567431,2,6,8,0,61,-1035
493,5.579074,4,6,9,-3,67,-1034
494,5.59074,4,5,8,-3,66,-1028
495,5.602412,3,7,10,2,63,-1030
496,5.614044,3,6,8,1,67,-1024
497,5.625704,2,5,9,-4,63,-1035
498,5.637434,1,7,10,-1,64,-1033
499,5.649082,3,4,11,2,65,-1034
500,5.660637,3,7,8,-1,66,-1032
501,5.672218,3,7,11,-1,67,-1033
502,5.683755,3,9,8,-2,63,-1025
503,5.695292,3,5,9,0,66,-1035
504,5.706841,3,4,10,0,63,-1034
505,5.718383,1,6,10,-1,70,-1034
506,5.729979,3,5,7,0,67,-1030
507,5.741536,1,6,9,-3,65,-1039
508,5.753192,3,7,9,1,63,-1040
509,5.764838,1,6,10,4,60,-1032
510,5.776514,2,6,10,1,66,-1028
511,5.78816,2,6,9,-3,64,-1024
512,5.799814,2,6,8,-2,60,-1028
513,5.811462,3,7,8,1,66,-1029
514,5.823127,1,5,8,2,66,-1035
515,5.834804,4,5,9,-1,64,-1030
516,5.846446,3,7,9,-3,67,-1027
517,5.858001,0,5,8,0,63,-1039
518,5.869545,2,9,9,-5,66,-1033
519,5.881115,2,4,10,0,67,-1032
520,5.892668,0,6,8,0,61,-1032
521,5.904236,2,5,8,0,64,-1037
522,5.915782,3,8,7,-3,66,-1030
523,5.927321,0,6,7,0,62,-1036
524,5.938898,1,7,10,0,68,-1032
525,5.950533,4,6,9,1,63,-1031
526,5.962198,1,4,9,0,62,-1032
527,5.973853,2,6,9,2,64,-1028
528,5.985539,4,6,8,3,63,-1034
529,5.997194,2,6,11,1,62,-1031
530,6.008842,2,7,9,0,67,-1033
531,6.020479,3,5,8,0,63,-1036
532,6.032122,2,5,10,-6,63,-1034
533,6.043817,2,5,7,3,64,-1029
534,6.055441,2,7,8,0,66,-1039
535,6.067009,1,7,10,-1,64,-1040
536,6.078552,4,7,9,1,68,-1035
537,6.090102,1,5,10,0,67,-1034
538,6.101652,1,6,10,3,64,-1030
539,6.113245,3,6,10,-3,65,-1026
540,6.124812,1,8,9,0,65,-1032
541,6.136376,4,7,8,2,64,-1037
542,6.147942,3,7,10,-1,63,-1032
543,6.159558,2,7,8,-6,64,-1032
544,6.171214,2,5,11,-1,69,-1036
545,6.18287,3,9,9,0,63,-1029
546,6.194559,3,7,11,0,67,-1030
547,6.206214,1,7,9,-3,62,-1029
548,6.217881,1,7,10,-1,65,-1028
549,6.229551,2,9,8,0,60,-1029
550,6.241208,2,8,8,2,68,-1032
551,6.252924,3,7,10,0,65,-1029
552,6.264582,2,5,9,1,66,-1030
553,6.27615,3,5,9,0,66,-1038
554,6.287721,4,5,8,-1,68,-1028
555,6.299273,2,7,10,1,65,-1031
556,6.310849,2,6,11,-2,62,-1035
557,6.3224,2,5,10,0,67,-1030
558,6.33396,3,7,8,-3,67,-1029
559,6.345479,3,6,8,0,67,-1031
560,6.356998,3,7,9,0,65,-1030
561,6.368672,2,7,8,0,64,-1033
562,6.380328,5,8,10,-4,65,-1035
563,6.391974,3,5,9,-4,67,-1037
564,6.403637,0,8,7,-1,64,-1035
565,6.415309,2,6,8,0,65,-1037
566,6.426978,3,6,9,0,62,-1033
567,6.438621,3,8,8,0,63,-1029
568,6.450328,2,8,9,1,66,-1030
569,6.461999,4,5,10,0,66,-1031
570,6.47365,1,6,10,-1,64,-1030
571,6.485228,3,7,7,-3,62,-1034
572,6.496766,3,6,10,-4,66,-1033
573,6.508319,1,6,9,-5,65,-1034
574,6.519899,0,8,7,0,59,-1039
575,6.53145,2,6,9,1,66,-1031
576,6.543026,3,6,9,-2,65,-1035
577,6.554567,3,5,8,0,65,-1031
578,6.566242,1,8,7,3,62,-1025
579,6.577887,1,6,9,1,62,-1030
580,6.58957,3,5,10,0,63,-1028
581,6.601259,3,3,10,-2,68,-1033
582,6.612922,3,5,8,0,69,-1031
583,6.624569,4,7,8,0,67,-1036
584,6.636222,2,5,9,-1,65,-1030
585,6.647868,3,8,9,-3,63,-1029
586,6.65953,2,7,9,-3,63,-1043
587,6.671194,3,7,8,-3,65,-1035
588,6.682847,1,6,10,0,63,-1030
589,6.694491,4,5,10,0,69,-1033
590,6.706168,3,5,10,0,66,-1026
591,6.717841,2,5,9,-1,66,-1037
592,6.729511,2,7,9,0,68,-1038
593,6.741172,1,7,7,0,63,-1036
594,6.752841,2,5,11,-1,69,-1035
595,6.764481,3,6,8,-3,62,-1036
596,6.776145,2,8,9,1,66,-1032
597,6.787828,4,8,8,0,62,-1028
598,6.799411,2,7,7,0,64,-1030
599,6.810958,3,7,8,0,62,-1028
600,6.822505,2,5,8,1,67,-1037
601,6.834073,3,6,9,2,64,-1030
602,6.845625,2,5,9,1,64,-1034
603,6.857178,2,7,10,-4,64,-1032
604,6.868751,3,6,7,0,64,-1025
605,6.880311,2,7,10,-5,62,-1035
606,6.891996,4,4,10,-3,67,-1032
607,6.903653,2,7,8,0,66,-1033
608,6.915313,5,5,10,-2,65,-1028
609,6.926987,2,6,9,1,67,-1034
610,6.938658,4,5,9,3,65,-1029
611,6.950331,2,8,10,0,63,-1034
612,6.961981,2,5,8,3,65,-1037
613,6.973659,1,6,9,3,60,-1034
614,6.985351,2,6,8,0,66,-1030
615,6.997001,2,6,10,-5,63,-1031
616,7.00856,3,7,10,0,67,-1032
617,7.020104,3,6,9,-2,65,-1037
618,7.031656,2,9,10,-2,65,-1030
619,7.043205,4,6,12,-3,67,-1041
620,7.054794,3,6,9,-3,66,-1030
621,7.066344,3,7,7,1,67,-1035
622,7.077992,2,8,9,2,65,-1035
623,7.089561,4,4,11,0,65,-1035
624,7.101218,3,7,8,-2,62,-1034
625,7.112891,3,4,8,-1,64,-1029
626,7.124554,2,5,10,-3,64,-1028
627,7.136207,3,8,9,-1,67,-1028
628,7.147866,1,7,10,-1,66,-1035
629,7.159521,4,7,9,-2,63,-1041
630,7.171173,3,7,8,0,64,-1031
631,7.182837,2,4,11,-3,68,-1034
632,7.19452,2,6,9,-3,67,-1031
633,7.206184,2,6,10,0,68,-1041
634,7.217721,3,2,8,-1,66,-1034
635,7.229311,3,7,9,-1,67,-1033
636,7.240872,2,7,11,-2,66,-1026
637,7.252416,5,4,9,-2,64,-1030
638,7.26396,3,6,10,0,66,-1038
639,7.2755,4,5,10,-5,65,-1035
640,7.287063,4,5,11,0,67,-1031
641,7.29873,4,5,8,1,68,-1033
642,7.310468,2,9,11,0,60,-1031
643,7.322066,3,6,7,1,63,-1031
644,7.333622,1,8,10,-2,64,-1029
645,7.345182,2,5,12,-1,63,-1032
646,7.356755,1,5,11,0,65,-1037
647,7.368305,4,7,10,7,68,-1037
648,7.379862,0,7,8,1,64,-1039
649,7.391451,4,5,10,0,66,-1026
650,7.403099,3,7,9,1,63,-1035
651,7.414749,1,6,10,0,65,-1033
652,7.426488,2,7,10,0,68,-1044
653,7.438166,2,6,9,0,64,-1030
654,7.44979,2,7,11,-2,63,-1032
655,7.461444,1,7,9,-2,64,-1028
656,7.473115,2,7,9,-1,66,-1029
657,7.484765,3,6,10,0,64,-1032
658,7.496402,3,5,10,0,65,-1034
659,7.508067,2,6,8,0,64,-1031
660,7.519758,2,4,7,-2,65,-1030
661,7.531397,2,5,10,-2,70,-1030
662,7.543044,3,7,10,1,66,-1031
663,7.554712,3,6,10,-2,64,-1038
664,7.566372,3,6,9,0,65,-1029
665,7.578039,1,6,11,0,63,-1034
666,7.589717,4,7,12,-1,69,-1034
667,7.601399,2,8,10,-3,67,-1042
668,7.613034,4,5,10,2,63,-1034
669,7.624691,3,7,9,0,64,-1033
670,7.636252,2,7,10,-1,65,-1034
671,7.64783,0,9,9,0,63,-1030
672,7.659373,2,7,10,0,68,-1034
673,7.670916,3,7,12,-1,64,-1033
674,7.682489,2,6,9,1,62,-1037
675,7.694051,5,5,9,-1,66,-1032
676,7.705604,2,6,11,5,67,-1033
677,7.717158,1,7,11,-2,63,-1033
678,7.72877,1,7,9,-2,63,-1025
679,7.74041,2,4,7,-2,66,-1031
680,7.752067,2,6,10,-1,63,-1031
681,7.763773,5,7,8,-2,65,-1026
682,7.775417,1,8,10,-2,63,-1037
683,7.787068,0,7,10,-3,65,-1028
684,7.798741,2,6,9,-1,65,-1030
685,7.810395,2,6,9,-1,65,-1024
686,7.82206,3,5,7,-1,67,-1033
687,7.833726,0,8,8,0,69,-1030
688,7.845332,2,5,8,0,66,-1033
689,7.856905,2,4,10,-3,68,-1027
690,7.868473,3,5,8,-5,61,-1032
691,7.880028,2,7,9,-2,65,-1031
692,7.891597,2,6,9,1,65,-1036
693,7.90314,0,7,10,-4,68,-1033
694,7.914718,4,8,10,3,69,-1037
695,7.926277,0,5,10,-3,67,-1034
696,7.937922,3,7,10,0,67,-1032
697,7.949586,3,6,7,0,67,-1021
698,7.961281,3,8,8,0,64,-1027
699,7.972942,4,7,9,-4,67,-1025
700,7.984608,2,6,9,-1,66,-1030
701,7.996266,2,7,10,-2,65,-1030
702,8.00792,2,4,10,-3,67,-1035
703,8.019578,3,6,9,-1,60,-1032
704,8.031243,4,7,9,0,65,-1029
705,8.042909,4,6,9,3,63,-1035
706,8.054501,2,7,10,-2,65,-1040
707,8.066098,4,5,9,-2,66,-1034
708,8.077645,1,5,9,1,64,-1030
709,8.08922,4,6,8,0,64,-1039
710,8.100771,0,5,9,2,63,-1036
711,8.112321,1,5,10,0,65,-1044
712,8.123872,3,6,10,-1,68,-1035
713,8.135491,2,7,12,-2,65,-1036
714,8.147145,2,6,10,-1,66,-1041
715,8.158796,2,6,10,0,65,-1038
716,8.170434,3,5,10,2,66,-1025
717,8.182093,0,8,10,-4,63,-1032
718,8.193792,2,7,8,1,63,-1033
719,8.205444,2,7,6,3,68,-1031
720,8.217118,2,7,8,1,65,-1031
721,8.228778,2,6,8,1,65,-1035
722,8.240445,2,7,11,-2,66,-1029
723,8.252109,3,5,8,-1,64,-1027
724,8.263662,5,6,11,-3,64,-1032
725,8.275219,2,7,8,0,64,-1032
726,8.286778,2,8,9,0,64,-1034
727,8.298327,2,7,9,0,62,-1033
728,8.309886,3,6,10,-1,62,-1032
729,8.321501,2,7,8,-2,66,-1032
730,8.33306,3,5,7,4,65,-1032
731,8.344631,2,7,11,-1,67,-1030
732,8.356255,1,5,10,-1,65,-1033
733,8.367921,3,6,7,0,64,-1039
734,8.379586,3,9,12,0,67,-1039
735,8.391302,1,5,9,-2,67,-1033
736,8.402977,1,5,8,0,64,-1037
737,8.414628,1,8,10,0,64,-1038
738,8.426336,3,5,11,-4,65,-1034
739,8.438015,2,7,7,1,66,-1031
740,8.449703,2,6,9,-2,69,-1035
741,8.461367,2,9,10,-4,63,-1028
742,8.473027,2,8,9,1,68,-1034
743,8.484677,1,8,11,-4,70,-1031
744,8.496316,3,7,10,0,64,-1034
745,8.507962,1,8,9,2,63,-1038
746,8.519618,2,7,12,-2,63,-1032
747,8.531282,3,6,9,0,65,-1034
748,8.542929,2,7,8,-3,67,-1035
749,8.554571,1,7,8,-4,65,-1031
750,8.566134,2,5,8,-2,67,-1030
751,8.577705,2,4,8,5,65,-1038
752,8.589236,2,5,9,1,67,-1029
753,8.600751,3,5,9,0,64,-1036
754,8.6123,3,7,10,-2,61,-1040
755,8.62387,2,7,8,0,67,-1025
756,8.635414,4,7,7,0,66,-1032
757,8.646954,1,10,11,-2,65,-1038
758,8.658511,4,4,11,-1,63,-1038
759,8.670184,4,8,9,-3,66,-1030
760,8.681843,4,5,10,-2,66,-1035
761,8.693714,2,5,6,0,65,-1031
762,8.705418,3,5,8,1,67,-1032
763,8.717083,3,3,10,2,65,-1031
764,8.728753,4,7,10,-1,64,-1031
765,8.740416,3,5,8,-1,69,-1030
766,8.752061,1,7,12,2,67,-1030
767,8.763721,3,6,8,0,70,-1035
768,8.775386,0,8,10,-1,66,-1028
769,8.786939,3,6,10,4,66,-1031
770,8.798511,3,8,8,-5,62,-1035
771,8.810099,2,7,10,-1,65,-1032
772,8.821658,3,5,8,-3,64,-1030
773,8.833274,2,6,8,2,66,-1033
774,8.844827,2,6,10,0,64,-1036
775,8.856387,2,8,7,0,65,-1036
776,8.867939,2,5,11,-3,65,-1037
777,8.879572,3,7,10,2,66,-1037
778,8.891224,4,7,8,-2,67,-1034
779,8.902908,4,6,8,0,67,-1030
780,8.914581,3,7,9,-4,65,-1038
781,8.926221,3,6,10,0,66,-1034
782,8.937878,3,4,10,0,63,-1040
783,8.949571,3,6,8,0,66,-1031
784,8.961232,1,7,10,0,62,-1033
785,8.972922,1,5,9,-2,65,-1031
786,8.984594,1,7,9,-2,64,-1034
787,8.996153,5,6,9,-2,67,-1034
788,9.007705,4,6,9,0,64,-1031
789,9.01927,2,6,13,-3,63,-1030
790,9.030825,3,6,8,-3,59,-1037
791,9.042375,4,6,8,-3,63,-1033
792,9.053944,2,7,9,2,61,-1034
793,9.065472,2,5,9,-2,64,-1033
794,9.077006,1,7,9,-1,64,-1038
795,9.088646,3,3,9,-1,69,-1037
796,9.100314,1,5,7,0,62,-1035
797,9.111969,5,5,10,2,64,-1035
798,9.123617,3,7,10,-1,64,-1031
799,9.135275,3,7,8,-3,64,-1031
800,9.146938,2,8,9,1,63,-1033
801,9.158668,3,6,9,-2,62,-1032
802,9.170325,2,6,11,-1,65,-1035
803,9.181976,4,6,10,1,67,-1036
804,9.193536,1,6,9,-1,64,-1032
805,9.2051,2,9,7,0,69,-1031
806,9.216645,3,10,9,-1,68,-1034
807,9.228196,3,5,9,3,68,-1032
808,9.23979,4,6,8,0,60,-1032
809,9.251336,3,4,10,-3,64,-1030
810,9.26288,1,6,9,-2,64,-1040
811,9.274425,3,7,9,0,65,-1040
812,9.285979,2,7,11,1,63,-1028
813,9.297608,2,4,9,0,65,-1040
814,9.309303,4,8,9,-3,64,-1034
815,9.320968,3,6,10,0,62,-1032
816,9.332615,2,5,8,-1,65,-1031
817,9.344264,2,6,8,2,65,-1032
818,9.355928,3,7,9,0,66,-1032
819,9.367575,3,7,9,-2,64,-1030
820,9.379223,2,6,8,-1,62,-1028
821,9.390883,3,8,11,-6,64,-1030
822,9.402549,2,6,9,3,65,-1033
823,9.414127,4,7,7,1,63,-1031
824,9.425706,3,6,11,0,64,-1033
825,9.437238,2,6,9,-5,70,-1034
826,9.448803,2,6,10,0,61,-1031
827,9.460352,3,6,9,-4,65,-1029
828,9.47192,1,7,8,0,63,-1029
829,9.483456,2,7,6,2,63,-1033
830,9.495005,1,6,8,0,64,-1035
831,9.506625,4,7,9,1,66,-1028
832,9.518329,1,7,10,3,66,-1035
833,9.529997,3,5,11,1,66,-1035
834,9.54166,3,6,10,0,66,-1025
835,9.553345,4,6,8,-3,68,-1030
836,9.565011,2,7,9,1,66,-1031
837,9.576649,3,6,10,3,66,-1034
838,9.588324,1,6,8,-1,66,-1036
839,9.599976,1,7,9,0,70,-1029
840,9.611566,2,6,6,0,65,-1038
841,9.623115,3,8,9,-1,64,-1037
842,9.634682,2,7,9,-3,65,-1032
843,9.646225,2,5,10,-2,63,-1034
844,9.657778,3,7,7,2,64,-1039
845,9.669349,1,7,9,0,62,-1034
846,9.6809,3,7,9,2,64,-1032
847,9.692445,3,3,11,2,67,-1040
848,9.704039,3,5,8,1,70,-1035
849,9.71566,2,4,9,-2,66,-1041
850,9.72739,3,6,9,-3,66,-1031
851,9.73917,3,8,8,-3,67,-1029
852,9.750825,3,9,10,1,66,-1030
853,9.762484,4,6,11,-1,61,-1034
854,9.774167,1,6,9,4,65,-1033
855,9.785788,0,5,10,2,65,-1035
856,9.797456,2,6,8,-1,67,-1035
857,9.809153,3,7,7,1,66,-1037
858,9.820872,3,4,10,-1,61,-1029
859,9.832443,2,7,9,0,66,-1028
860,9.843992,3,4,7,-5,64,-1035
861,9.855564,1,8,10,0,64,-1035
862,9.867104,2,4,8,-5,63,-1037
863,9.87868,2,3,11,-3,64,-1032
864,9.890228,2,8,10,-1,62,-1034
865,9.901794,1,6,8,-1,63,-1037
866,9.913375,3,4,9,1,68,-1039
867,9.925072,2,8,10,1,63,-1033
868,9.936769,3,6,11,-3,65,-1035
869,9.948411,1,8,8,1,63,-1042
870,9.960055,4,6,7,0,66,-1036
871,9.971723,1,8,7,-1,73,-1031
872,9.983373,1,6,11,0,66,-1034
873,9.995016,2,8,9,-7,64,-1032
874,10.006666,2,8,10,-1,65,-1029
875,10.018309,1,4,8,-1,60,-1036
876,10.029877,3,6,9,0,62,-1036
877,10.041465,3,5,6,0,65,-1030
878,10.052995,3,7,7,-2,62,-1033
879,10.064536,1,6,7,-1,65,-1036
880,10.076078,3,6,10,0,64,-1030
881,10.087626,2,6,9,-2,69,-1034
882,10.099196,3,7,11,0,67,-1027
883,10.110746,2,6,9,4,67,-1043
884,10.122327,3,5,9,-2,66,-1036
885,10.134025,2,7,11,1,67,-1029
886,10.14568,1,7,9,-6,64,-1030
887,10.157364,2,5,9,2,68,-1034
888,10.169021,1,7,9,0,61,-1043
889,10.18067,1,5,11,-1,64,-1028
890,10.192321,3,6,10,-2,64,-1029
891,10.203961,3,5,9,1,65,-1034
892,10.215632,0,7,7,0,63,-1035
893,10.227293,3,5,10,-1,62,-1032
894,10.238841,1,5,9,-1,67,-1033
895,10.250375,3,5,10,-1,65,-1031
896,10.261943,2,6,6,0,66,-1032
897,10.273505,3,4,9,-3,68,-1032
898,10.285082,3,6,8,0,64,-1035
899,10.296618,1,5,9,2,67,-1029
900,10.308164,4,7,8,0,62,-1036
901,10.319722,4,4,9,0,60,-1035
902,10.331335,1,5,10,0,60,-1032
903,10.34298,2,6,8,1,62,-1037
904,10.354626,1,6,9,0,64,-1031
905,10.366323,2,6,10,-4,66,-1034
906,10.377969,3,4,10,0,70,-1035
907,10.389645,2,7,9,-1,66,-1031
908,10.401276,2,7,9,2,63,-1036
909,10.41292,2,8,10,-5,68,-1031
910,10.424576,3,6,5,0,62,-1037
911,10.436244,2,6,9,0,68,-1041
912,10.447837,2,6,10,-2,64,-1036
913,10.459382,2,6,10,2,62,-1033
914,10.470922,1,8,8,-1,63,-1033
915,10.482469,2,6,9,0,66,-1032
916,10.494018,2,7,11,-1,60,-1032
917,10.50559,3,7,11,-1,66,-1034
918,10.517139,3,7,10,0,69,-1029
919,10.528685,3,8,11,0,64,-1034
920,10.540301,1,4,10,-1,67,-1031
921,10.551948,1,6,10,-1,59,-1038
922,10.563596,3,5,8,0,65,-1034
923,10.575266,3,8,8,1,68,-1029
924,10.586914,3,5,9,0,63,-1032
925,10.59856,3,6,8,0,66,-1032
926,10.610226,1,7,9,-2,65,-1035
927,10.621902,2,6,8,-1,64,-1033
928,10.633547,2,6,10,-1,61,-1035
929,10.645222,1,5,11,0,63,-1030
930,10.656759,2,7,11,1,68,-1031
931,10.668308,4,7,7,1,66,-1035
932,10.679865,1,7,8,0,63,-1029
933,10.691412,2,8,7,0,68,-1034
934,10.702963,1,9,8,-3,64,-1032
935,10.714517,1,5,10,0,61,-1036
936,10.726112,3,6,8,2,68,-1031
937,10.737682,1,7,8,0,67,-1030
938,10.749282,3,6,8,-5,64,-1034
939,10.760945,2,6,10,-2,65,-1030
940,10.772586,4,5,11,6,68,-1036
941,10.784245,3,5,9,1,62,-1031
942,10.795901,1,4,9,0,65,-1031
943,10.807554,2,7,9,-1,64,-1036
944,10.819203,3,8,9,-4,65,-1039
945,10.830841,3,7,9,0,66,-1031
946,10.842499,1,6,8,2,69,-1032
947,10.854173,5,6,7,-1,63,-1031
948,10.865757,1,5,8,-3,65,-1034
949,10.877306,3,4,9,-1,64,-1036
950,10.888878,3,6,10,-1,65,-1038
951,10.900443,2,6,9,1,67,-1032
952,10.911993,2,7,11,0,64,-1032
953,10.923554,1,4,9,1,64,-1030
954,10.935136,4,7,8,3,64,-1027
955,10.946704,1,4,8,0,62,-1031
956,10.958311,1,5,9,-1,66,-1035
957,10.969974,5,4,10,-1,62,-1026
958,10.981659,2,5,10,-3,67,-1034
959,10.993296,2,6,8,0,65,-1032
960,11.004951,2,5,7,-2,60,-1033
961,11.016613,2,5,11,0,65,-1026
962,11.028263,1,6,7,0,66,-1036
963,11.039916,2,7,9,-3,64,-1031
964,11.05158,4,7,9,0,64,-1036
965,11.063241,3,7,8,0,67,-1033
966,11.074791,4,6,9,-2,68,-1034
967,11.086341,5,8,10,0,60,-1033
968,11.0979,1,5,9,-2,67,-1031
969,11.109489,3,6,10,0,63,-1027
970,11.121055,2,7,9,-2,63,-1028
971,11.132626,2,7,10,0,66,-1032
972,11.144174,1,7,9,0,65,-1036
973,11.155771,3,6,10,-2,66,-1031
974,11.167393,0,7,9,0,68,-1032
975,11.179062,3,6,10,0,65,-1035
976,11.190711,2,5,12,-2,62,-1035
977,11.202367,2,6,8,4,66,-1035
978,11.214054,4,5,10,0,61,-1036
979,11.225706,1,6,9,-5,64,-1032
980,11.237357,3,8,9,-1,63,-1038
981,11.249022,2,7,9,-1,60,-1031
982,11.260683,2,9,10,1,66,-1037
983,11.272345,2,8,9,0,66,-1034
984,11.283901,1,8,9,1,63,-1028
985,11.295466,1,3,9,2,65,-1029
986,11.307024,3,7,11,-1,65,-1032
987,11.318576,4,7,6,-1,67,-1034
988,11.330143,4,7,10,-4,65,-1036
989,11.341702,2,6,11,2,66,-1028
990,11.353235,3,6,9,-2,64,-1033
991,11.364817,1,6,11,-2,65,-1032
992,11.376443,2,5,6,-2,65,-1037
993,11.388116,0,9,9,0,65,-1028
994,11.399782,4,6,10,-1,61,-1034
995,11.411442,2,7,10,-1,63,-1031
996,11.423087,3,5,9,2,64,-1032
997,11.434731,3,7,6,0,68,-1030
998,11.446384,3,5,9,-4,70,-1036
999,11.458071,3,6,10,-1,66,-1036
1000,11.469731,3,6,11,0,65,-1029
1001,11.481397,5,5,9,-1,63,-1029
1002,11.492971,3,5,10,0,64,-1029
1003,11.50453,4,5,10,4,64,-1033
1004,11.516078,4,6,10,-1,64,-1028
1005,11.527616,3,5,8,-3,69,-1031
1006,11.539161,1,6,9,-3,64,-1029
1007,11.550718,1,6,10,-3,64,-1031
1008,11.56226,3,7,9,-1,62,-1035
1009,11.573836,3,7,9,-3,59,-1034
1010,11.585456,5,7,8,3,66,-1036
1011,11.597135,1,7,9,-1,65,-1030
1012,11.608804,3,7,10,-2,62,-1026
1013,11.620451,2,8,9,-1,64,-1038
1014,11.632101,2,6,8,0,61,-1031
1015,11.64374,2,6,9,-1,64,-1031
1016,11.655408,2,6,7,0,67,-1029
1017,11.667054,3,7,8,-3,62,-1027
1018,11.678694,2,7,6,0,68,-1032
1019,11.690353,2,6,9,0,66,-1033
1020,11.701915,2,8,11,0,70,-1029
1021,11.713473,3,6,9,0,67,-1038
1022,11.724992,2,6,9,-3,61,-1032
1023,11.736541,2,8,10,-2,63,-1035
1024,11.748086,2,8,8,0,61,-1026
1025,11.759654,2,6,10,0,66,-1033
1026,11.7712,2,6,7,1,65,-1032
1027,11.782779,1,5,8,0,62,-1035
1028,11.794399,2,6,9,-3,64,-1029
1029,11.806071,3,8,9,-2,65,-1032
1030,11.817724,4,6,11,2,69,-1037
1031,11.829404,1,7,9,-2,67,-1038
1032,11.84102,3,5,8,2,66,-1036
1033,11.85268,3,8,9,0,63,-1037
1034,11.864342,3,7,10,1,65,-1040
1035,11.875983,2,7,10,-3,59,-1029
1036,11.887638,2,5,8,-3,66,-1034
1037,11.899292,3,4,11,2,67,-1034
1038,11.910843,3,8,9,-2,58,-1028
1039,11.922411,1,7,9,-4,66,-1036
1040,11.933952,4,5,10,-3,67,-1034
1041,11.945465,1,7,8,-6,64,-1029
1042,11.956993,1,4,7,-1,64,-1030
1043,11.968539,4,7,8,-2,62,-1029
1044,11.98008,4,7,10,4,64,-1035
1045,11.991628,3,7,10,-3,64,-1034
1046,12.003243,1,7,9,-1,65,-1027
1047,12.014892,2,3,9,-2,66,-1029
1048,12.026546,5,6,9,2,65,-1029
1049,12.038214,3,6,9,-1,62,-1034
1050,12.049863,1,7,7,-2,62,-1028
1051,12.061527,3,6,11,0,63,-1033
1052,12.073178,4,5,9,0,65,-1034
1053,12.084875,3,5,8,0,67,-1032
1054,12.096524,1,5,8,-1,66,-1030
1055,12.108172,3,6,8,-3,64,-1036
1056,12.119747,3,6,10,3,67,-1030
1057,12.131311,2,7,8,-2,64,-1031
1058,12.142864,1,5,8,3,66,-1037
1059,12.154432,2,4,11,0,65,-1029
1060,12.165953,2,7,9,3,63,-1034
1061,12.177473,3,6,8,2,65,-1029
1062,12.188991,2,7,8,-4,62,-1025
1063,12.200558,3,7,8,0,65,-1038
1064,12.21218,4,4,8,-3,63,-1035
1065,12.223849,1,6,11,-1,66,-1036
1066,12.235498,3,6,10,3,62,-1030
1067,12.247149,3,8,7,-1,64,-1029
1068,12.258784,2,7,11,0,64,-1036
1069,12.270425,3,7,9,0,65,-1025
1070,12.282056,1,6,8,-1,66,-1039
1071,12.293726,2,6,10,1,66,-1027
1072,12.305411,2,6,10,0,64,-1031
1073,12.317065,2,6,11,-2,65,-1031
1074,12.328617,0,6,9,4,65,-1034
1075,12.340187,2,5,7,-2,63,-1027
1076,12.351736,3,6,10,-3,61,-1031
1077,12.363309,2,6,9,-2,64,-1035
1078,12.374853,2,7,8,-3,64,-1028
1079,12.386431,2,7,8,1,64,-1026
1080,12.397958,3,7,8,-3,65,-1030
1081,12.409488,3,8,9,-3,61,-1029
1082,12.421114,3,7,10,2,66,-1031
1083,12.432765,2,6,11,-3,63,-1033
1084,12.444411,4,6,9,0,65,-1036
1085,12.456068,2,8,10,-2,64,-1034
1086,12.467732,2,8,9,0,67,-1038
1087,12.479384,3,7,9,-2,64,-1032
1088,12.49105,1,5,10,-5,69,-1033
1089,12.502714,2,8,9,-3,66,-1024
1090,12.514387,1,8,9,-2,65,-1034
1091,12.526047,2,7,8,-1,62,-1029
1092,12.537719,3,4,10,3,63,-1031
1093,12.549459,3,6,10,0,64,-1030
1094,12.56115,2,6,6,-4,63,-1037
1095,12.572769,1,9,9,0,65,-1034
1096,12.584415,3,6,9,0,67,-1033
1097,12.596057,1,6,11,0,64,-1034
1098,12.607706,3,6,7,0,68,-1035
1099,12.619387,3,5,9,0,63,-1031
1100,12.631034,2,5,7,0,69,-1033
1101,12.642689,2,6,10,-4,66,-1027
1102,12.654354,3,6,8,3,63,-1032
1103,12.66604,1,5,9,-5,63,-1040
1104,12.67777,2,5,8,0,64,-1034
1105,12.68944,3,9,8,0,67,-1033
1106,12.701097,4,6,9,-2,63,-1031
1107,12.712762,3,5,9,-3,65,-1028
1108,12.724426,3,5,9,-3,64,-1036
1109,12.736072,1,9,7,0,67,-1029
1110,12.747716,1,7,8,-1,64,-1029
1111,12.759384,2,7,8,1,68,-1028
1112,12.771029,2,5,10,-1,67,-1035
1113,12.782679,4,7,8,-1,64,-1035
1114,12.794336,3,8,9,0,68,-1035
1115,12.806003,3,8,10,-2,63,-1039
1116,12.817662,2,7,9,-2,63,-1033
1117,12.8293,2,6,7,-3,66,-1032
1118,12.841006,1,8,7,-4,67,-1034
1119,12.852664,4,6,9,-3,62,-1035
1120,12.864326,2,7,8,0,63,-1030
1121,12.875972,3,6,9,0,63,-1030
1122,12.887639,3,7,8,0,64,-1029
1123,12.899279,1,5,9,-2,68,-1030
1124,12.910919,1,5,10,0,67,-1031
1125,12.922559,2,6,9,-2,65,-1033
1126,12.934248,3,5,10,0,67,-1034
1127,12.945918,3,4,10,-1,68,-1033
1128,12.957566,2,6,7,-1,61,-1034
1129,12.969237,3,4,10,1,65,-1036
1130,12.980892,3,4,10,0,64,-1029
1131,12.99254,2,6,9,-1,68,-1035
1132,13.004183,3,5,8,0,62,-1039
1133,13.015821,1,6,7,0,65,-1027
1134,13.02746,3,5,11,-4,67,-1035
1135,13.039134,4,6,9,-1,66,-1041
1136,13.050786,3,5,9,-1,68,-1031
1137,13.062436,3,7,9,-3,64,-1035
1138,13.074083,3,5,10,1,65,-1026
1139,13.085753,3,6,9,0,62,-1035
1140,13.09742,4,5,10,2,64,-1028
1141,13.109061,4,5,11,-1,62,-1038
1142,13.120705,4,7,7,0,61,-1032
1143,13.132365,2,5,10,0,63,-1030
1144,13.144053,3,7,12,-2,64,-1034
1145,13.155701,2,7,10,0,63,-1030
1146,13.167356,3,6,10,-3,66,-1032
1147,13.17902,3,6,8,-1,64,-1037
1148,13.190672,3,7,9,0,64,-1032
1149,13.202309,4,6,8,-3,63,-1034
1150,13.213961,3,7,9,-3,64,-1031
1151,13.225655,2,6,9,3,64,-1039
1152,13.237301,3,6,7,-4,68,-1036
1153,13.248963,4,5,10,-7,63,-1040
1154,13.260646,1,4,9,2,64,-1034
1155,13.272196,3,6,9,-1,63,-1036
1156,13.283749,3,7,8,1,64,-1025
1157,13.295318,3,7,11,0,64,-1033
1158,13.306877,2,7,7,-3,64,-1031
1159,13.318427,2,7,9,-3,66,-1031
1160,13.329996,0,7,8,-1,65,-1030
1161,13.341549,3,7,9,-1,67,-1030
1162,13.353141,3,6,10,-3,61,-1031
1163,13.364777,1,7,9,0,67,-1031
1164,13.376436,3,9,9,0,62,-1033
1165,13.38808,2,6,9,0,62,-1034
1166,13.399725,2,8,11,-4,66,-1035
1167,13.411392,1,8,9,-6,67,-1030
1168,13.42305,1,6,9,0,66,-1033
1169,13.434703,3,7,9,0,65,-1033
1170,13.446351,1,5,8,0,66,-1036
1171,13.458056,2,7,9,0,69,-1035
1172,13.469713,3,9,9,0,70,-1031
1173,13.481405,3,6,10,0,65,-1032
1174,13.493066,3,5,10,-1,62,-1028
1175,13.504738,2,5,8,-6,63,-1031
1176,13.516409,4,7,9,1,63,-1037
1177,13.528062,2,7,10,0,62,-1032
1178,13.539712,2,5,9,0,65,-1034
1179,13.551379,2,7,8,-3,64,-1033
1180,13.563056,4,8,6,-2,65,-1034
1181,13.574705,3,7,7,3,65,-1031
1182,13.586352,4,7,8,-2,66,-1032
1183,13.598049,3,4,9,-1,65,-1030
1184,13.60973,3,7,8,0,66,-1025
1185,13.621408,3,6,7,0,65,-1032
1186,13.63307,3,6,8,0,66,-1036
1187,13.64475,2,5,9,4,66,-1033
1188,13.656394,2,6,7,0,66,-1027
1189,13.668063,1,6,8,1,66,-1036
1190,13.679732,1,6,7,-2,65,-1033
1191,13.691294,1,6,10,-6,67,-1030
1192,13.702844,2,4,10,-1,65,-1033
1193,13.714393,0,7,9,-3,63,-1034
1194,13.726017,1,4,9,0,61,-1030
1195,13.737615,2,4,10,-1,63,-1031
1196,13.749158,3,7,6,-7,68,-1033
1197,13.760699,5,5,8,-2,65,-1027
1198,13.772257,3,5,7,2,61,-1041
1199,13.7839,1,6,10,-2,64,-1035
1200,13.795571,2,7,10,0,66,-1030
1201,13.807251,3,8,7,0,65,-1025
1202,13.818922,3,8,9,-4,65,-1036
1203,13.83057,2,7,9,-1,65,-1032
1204,13.842224,4,4,9,5,64,-1036
1205,13.853923,3,8,8,0,66,-1039
1206,13.865575,1,7,9,-3,65,-1029
1207,13.87726,4,6,9,-5,66,-1034
1208,13.888914,3,5,9,0,64,-1031
1209,13.900477,4,5,7,-1,60,-1037
1210,13.912026,1,6,9,0,66,-1032
1211,13.923595,2,7,6,0,62,-1029
1212,13.935156,0,8,10,-4,65,-1029
1213,13.946704,4,7,7,1,61,-1031
1214,13.958273,3,7,9,-3,63,-1036
1215,13.969834,4,5,8,-3,66,-1033
1216,13.981422,2,4,11,0,66,-1036
1217,13.993093,3,6,9,0,65,-1036
1218,14.004767,2,5,10,0,66,-1030
1219,14.016438,1,6,10,-1,63,-1038
1220,14.028089,3,6,8,-3,65,-1036
1221,14.03974,3,7,11,-1,65,-1026
1222,14.051386,3,6,10,2,64,-1037
1223,14.063051,4,6,8,-1,65,-1026
1224,14.074717,2,4,9,-2,67,-1037
1225,14.086374,2,7,11,0,60,-1032
1226,14.098067,5,6,9,-3,62,-1036
1227,14.10972,4,5,9,-2,64,-1028
1228,14.121399,3,4,8,0,63,-1039
1229,14.133025,4,6,8,-1,66,-1032
1230,14.144692,2,4,9,0,63,-1030
1231,14.156345,3,9,11,0,62,-1030
1232,14.167995,3,7,9,0,66,-1029
1233,14.179643,2,5,9,0,65,-1033
1234,14.191343,6,7,11,-5,61,-1037
1235,14.202996,0,9,9,-2,66,-1030
1236,14.214671,4,7,9,1,63,-1030
1237,14.226337,2,7,7,-2,66,-1033
1238,14.237994,2,5,9,0,66,-1031
1239,14.24967,3,7,10,0,63,-1031
1240,14.261336,3,6,9,-2,64,-1033
1241,14.273011,3,5,12,0,63,-1036
1242,14.284652,2,6,9,-1,66,-1038
1243,14.296393,2,6,9,0,68,-1039
1244,14.308068,0,7,9,2,66,-1033
1245,14.319621,4,7,10,4,68,-1033
1246,14.331211,2,5,7,0,66,-1035
1247,14.34282,1,7,11,-1,67,-1032
1248,14.354415,2,7,9,-3,64,-1027
1249,14.365967,3,6,10,-4,63,-1033
1250,14.377565,4,8,11,-2,63,-1033
1251,14.389133,1,8,8,0,60,-1034
1252,14.400695,2,5,9,-2,64,-1033
1253,14.412379,0,6,8,-3,66,-1037
1254,14.424052,4,7,9,0,64,-1037
1255,14.435719,5,6,8,-5,66,-1037
1256,14.447373,3,8,9,0,65,-1035
1257,14.459024,2,6,8,-1,62,-1028
1258,14.470691,2,9,10,-2,65,-1031
1259,14.482345,4,6,10,-2,67,-1027
1260,14.49405,2,4,8,2,60,-1033
1261,14.505737,4,4,10,0,62,-1030
1262,14.517406,1,7,8,2,64,-1029
1263,14.52908,2,6,9,0,63,-1037
1264,14.540749,4,6,9,0,65,-1031
1265,14.552394,3,6,9,-4,65,-1028
1266,14.564058,3,6,8,1,62,-1033
1267,14.575723,2,7,10,0,63,-1037
1268,14.587369,2,5,9,0,64,-1031
1269,14.599016,2,4,9,-3,63,-1030
1270,14.610677,3,8,10,2,64,-1035
1271,14.622341,3,6,10,2,65,-1035
1272,14.634018,4,5,10,0,64,-1031
1273,14.645694,2,6,10,2,67,-1038
1274,14.657395,2,7,8,-2,65,-1039
1275,14.669022,3,5,11,-3,63,-1032
1276,14.680676,2,6,10,0,67,-1031
1277,14.69236,4,3,10,-2,65,-1034
1278,14.704013,2,4,10,0,61,-1039
1279,14.715656,2,6,11,3,68,-1034
1280,14.72729,3,8,9,-2,66,-1034
1281,14.738832,1,8,8,0,65,-1026
1282,14.750373,2,6,10,-3,66,-1032
1283,14.761949,2,6,7,-2,64,-1031
1284,14.773474,2,6,8,-3,61,-1032
1285,14.785,3,8,9,3,68,-1039
1286,14.796562,1,10,10,-1,65,-1027
1287,14.80811,6,6,9,0,66,-1036
1288,14.819696,0,6,9,-2,63,-1030
1289,14.831327,1,6,10,2,65,-1037
1290,14.842996,3,7,9,2,63,-1037
1291,14.854668,3,5,9,-4,67,-1032
1292,14.866314,5,8,11,-7,65,-1026
1293,14.877992,4,3,9,-2,65,-1031
1294,14.889659,1,4,9,2,64,-1031
1295,14.901325,2,6,8,0,65,-1038
1296,14.912993,3,5,9,3,63,-1035
1297,14.924656,4,6,10,0,64,-1035
1298,14.936306,3,6,11,0,65,-1036
1299,14.947948,1,5,11,0,65,-1030
1300,14.959598,2,7,12,-3,61,-1034
1301,14.971262,3,7,8,0,58,-1029
1302,14.982901,4,9,10,0,65,-1033
1303,14.994546,3,7,9,-6,64,-1040
1304,15.006213,1,6,7,-5,66,-1030
1305,15.017903,4,6,9,-1,71,-1031
1306,15.029542,1,6,9,0,71,-1031
1307,15.041211,2,5,10,3,67,-1037
1308,15.052753,1,5,12,0,64,-1037
1309,15.064328,3,7,8,0,67,-1036
1310,15.075876,2,6,9,-2,62,-1036
1311,15.087444,2,7,8,0,63,-1029
1312,15.098993,0,6,11,-4,69,-1030
1313,15.110542,2,3,10,0,66,-1032
1314,15.122093,1,7,8,3,65,-1034
1315,15.133669,3,4,8,3,67,-1030
1316,15.145285,1,7,8,-2,69,-1031
1317,15.156931,2,4,11,0,62,-1037
1318,15.168585,2,6,8,-5,65,-1032
1319,15.180256,5,5,9,0,65,-1036
1320,15.191897,3,4,8,-1,62,-1032
1321,15.203543,2,7,11,-3,63,-1035
1322,15.215193,1,7,10,2,62,-1031
1323,15.226854,2,6,9,1,66,-1030
1324,15.238531,2,6,8,3,63,-1033
1325,15.250181,4,7,8,0,64,-1031
1326,15.261859,4,6,9,1,64,-1034
1327,15.273517,2,7,10,0,62,-1038
1328,15.285274,2,8,10,3,70,-1035
1329,15.296932,5,6,10,3,62,-1034
1330,15.308574,3,8,11,-1,65,-1034
1331,15.320224,3,7,9,0,61,-1033
1332,15.331903,1,5,9,0,64,-1031
1333,15.343615,2,5,7,2,63,-1028
1334,15.355275,2,6,10,-1,64,-1035
1335,15.366851,3,6,8,0,62,-1035
1336,15.378404,3,7,7,1,61,-1033
1337,15.389978,4,7,9,-2,65,-1024
1338,15.401543,3,10,9,-1,66,-1026
1339,15.41311,3,8,8,0,66,-1033
1340,15.424655,2,5,10,4,68,-1029
1341,15.436222,1,4,8,-3,64,-1034
1342,15.447767,3,5,9,2,67,-1034
1343,15.459462,3,7,9,0,65,-1032
1344,15.471114,2,5,9,-1,65,-1033
1345,15.482787,2,4,9,2,63,-1033
1346,15.494443,2,5,7,0,61,-1037
1347,15.506095,2,9,7,0,64,-1033
1348,15.517788,2,7,10,0,66,-1035
1349,15.529445,3,6,9,1,66,-1038
1350,15.541091,2,8,9,0,67,-1031
1351,15.55275,2,7,7,0,68,-1026
1352,15.564302,3,6,9,-2,67,-1033
1353,15.575849,3,8,9,0,62,-1035
1354,15.587389,3,6,11,-2,64,-1033
1355,15.59893,3,8,9,3,65,-1036
1356,15.610477,2,6,8,0,64,-1035
1357,15.622032,2,7,9,-2,61,-1040
1358,15.63363,3,6,10,-3,68,-1033
1359,15.645187,2,5,11,-2,67,-1033
1360,15.656761,2,6,9,0,67,-1031
1361,15.668472,3,7,10,-2,67,-1032
1362,15.680169,1,6,8,-1,63,-1032
1363,15.691807,2,5,12,0,63,-1027
1364,15.703451,3,4,9,0,66,-1033
1365,15.715105,2,5,9,0,65,-1035
1366,15.726831,2,6,10,0,65,-1028
1367,15.738611,3,6,11,-4,66,-1035
1368,15.750323,2,7,9,-1,65,-1032
1369,15.762123,3,6,11,-4,65,-1033
1370,15.773814,3,7,9,-4,64,-1033
1371,15.785398,4,8,8,-2,65,-1034
1372,15.796993,3,6,9,-2,68,-1036
1373,15.808536,2,7,8,0,68,-1033
1374,15.820081,3,5,11,-1,62,-1035
1375,15.831647,1,7,6,1,64,-1028
1376,15.843193,3,5,9,1,64,-1026
1377,15.854739,3,5,11,-5,63,-1037
1378,15.866309,2,6,9,-1,67,-1027
1379,15.877942,3,7,7,1,67,-1032
1380,15.8896,1,8,10,-6,66,-1035
1381,15.901283,3,5,9,0,66,-1031
1382,15.91295,4,6,8,-4,65,-1031
1383,15.924589,3,5,8,4,65,-1035
1384,15.936236,2,7,10,0,63,-1029
1385,15.947924,1,10,7,-3,67,-1029
1386,15.959558,3,8,8,-2,64,-1034
1387,15.971218,3,6,10,2,61,-1031
1388,15.982877,2,6,9,-3,64,-1030
1389,15.99443,2,7,10,-2,61,-1032
1390,16.005993,2,10,8,2,67,-1035
1391,16.017548,2,6,8,0,66,-1025
1392,16.029126,1,5,7,0,65,-1037
1393,16.040666,4,9,8,1,62,-1038
1394,16.052209,2,6,8,-3,68,-1035
1395,16.063761,3,4,10,1,64,-1037
1396,16.075313,2,4,10,-1,68,-1033
1397,16.086933,3,6,9,0,64,-1037
1398,16.098585,1,6,9,0,64,-1029
1399,16.11023,1,4,10,-2,66,-1029
1400,16.121924,2,5,7,1,66,-1033
1401,16.133574,2,8,10,-1,69,-1036
1402,16.145221,3,8,10,-1,65,-1044
1403,16.156898,2,5,9,3,65,-1031
1404,16.168562,3,8,10,1,62,-1032
1405,16.180224,2,7,11,-3,61,-1033
1406,16.191882,2,5,7,-3,65,-1035
1407,16.203464,3,7,9,0,64,-1029
1408,16.21502,3,8,7,-2,60,-1035
1409,16.226558,2,6,9,-1,66,-1036
1410,16.238104,2,7,10,0,60,-1029
1411,16.249658,4,7,9,-1,62,-1034
1412,16.261243,2,4,8,0,66,-1032
1413,16.272791,2,6,8,-1,62,-1034
1414,16.284397,3,5,10,-4,68,-1036
1415,16.296066,1,9,7,0,67,-1040
1416,16.307721,4,5,9,0,69,-1033
1417,16.319371,2,5,10,0,62,-1031
1418,16.331007,1,9,9,4,64,-1032
1419,16.342654,4,6,8,1,63,-1031
1420,16.354321,3,4,10,-1,67,-1031
1421,16.365971,2,7,9,-1,64,-1035
1422,16.377645,4,7,9,2,61,-1032
1423,16.389337,2,8,10,-3,67,-1031
1424,16.401006,3,7,8,-1,65,-1035
1425,16.41255,3,6,9,1,60,-1029
1426,16.424152,1,6,10,-1,65,-1039
1427,16.435702,3,6,10,-2,67,-1027
1428,16.447268,2,8,10,-1,67,-1028
1429,16.458801,1,5,7,-1,64,-1027
1430,16.470341,3,6,10,2,65,-1032
1431,16.481891,2,8,8,1,63,-1031
1432,16.493469,3,6,8,0,63,-1030
1433,16.50509,2,7,7,2,65,-1027
1434,16.51676,3,7,10,-4,64,-1036
1435,16.528432,3,4,9,5,64,-1032
1436,16.54008,4,4,10,0,62,-1024
1437,16.551727,0,4,10,1,67,-1032
1438,16.563382,2,6,8,0,66,-1028
1439,16.575078,1,4,7,-1,66,-1036
1440,16.586729,2,6,8,-3,61,-1034
1441,16.598392,2,5,9,-1,62,-1032
1442,16.610042,3,7,8,0,66,-1036
1443,16.621596,2,7,8,-2,62,-1031
1444,16.633147,3,6,10,0,63,-1037
1445,16.644684,1,8,8,-1,62,-1031
1446,16.656259,3,6,9,0,69,-1038
1447,16.667803,2,9,8,0,64,-1031
1448,16.679343,5,6,11,1,64,-1038
1449,16.690882,2,7,10,0,64,-1029
1450,16.702424,4,7,10,-3,66,-1039
1451,16.714075,3,4,11,-4,62,-1035
1452,16.725727,2,5,10,2,64,-1029
1453,16.737392,5,5,10,-6,68,-1030
1454,16.749018,2,4,10,-1,63,-1034
1455,16.760743,1,4,8,2,64,-1034
1456,16.77238,2,7,8,-1,63,-1023
1457,16.784027,0,4,9,4,64,-1036
1458,16.795719,2,5,7,-4,64,-1037
1459,16.807373,3,7,9,-1,61,-1034
1460,16.819019,4,5,7,-4,63,-1030
1461,16.830685,2,5,7,-1,63,-1032
1462,16.842352,4,4,7,-4,63,-1030
1463,16.854021,3,8,9,-2,61,-1032
1464,16.865705,1,6,10,-3,68,-1036
1465,16.877354,0,6,9,-4,66,-1028
1466,16.889019,3,7,10,0,68,-1035
1467,16.90069,4,7,11,0,63,-1039
1468,16.912383,3,6,7,0,67,-1038
1469,16.924029,2,7,9,-4,62,-1030
1470,16.935674,2,7,8,0,65,-1036
1471,16.947365,4,6,10,0,64,-1035
1472,16.959018,2,5,10,1,64,-1031
1473,16.970662,2,4,9,-1,64,-1032
1474,16.982305,1,5,8,-3,61,-1043
1475,16.993985,2,5,8,0,62,-1034
1476,17.005676,2,7,9,-2,67,-1038
1477,17.017327,2,4,7,1,66,-1036
1478,17.028935,3,6,8,-1,64,-1030
1479,17.040485,2,5,8,-1,63,-1029
1480,17.052062,0,9,8,-3,63,-1032
1481,17.063599,3,5,9,0,65,-1027
1482,17.075138,1,6,8,0,67,-1040
1483,17.086681,3,6,8,2,67,-1033
1484,17.098229,1,6,10,0,64,-1035
1485,17.109797,3,5,11,0,67,-1035
1486,17.121379,0,4,9,-3,65,-1034
1487,17.133021,4,6,11,0,61,-1042
1488,17.144686,2,6,10,-2,64,-1026
1489,17.156351,1,5,10,3,67,-1039
1490,17.167996,1,6,9,1,66,-1031
1491,17.179635,3,6,8,0,62,-1037
1492,17.191276,3,5,9,0,67,-1037
1493,17.202922,2,6,9,-5,64,-1031
1494,17.214588,3,5,9,-2,65,-1032
1495,17.226248,3,4,10,1,66,-1031
1496,17.23794,3,7,10,-1,64,-1029
1497,17.249509,4,7,7,1,62,-1034
1498,17.261078,2,5,9,-4,63,-1034
1499,17.272626,1,6,11,-7,66,-1027
1500,17.284195,3,6,9,-1,60,-1040
1501,17.295734,4,6,12,-1,62,-1037
1502,17.307284,2,4,8,0,59,-1030
1503,17.318959,3,5,9,-1,62,-1034
1504,17.330518,2,5,9,-1,67,-1031
1505,17.34216,2,7,9,1,66,-1037
1506,17.353792,2,8,10,0,64,-1032
1507,17.365442,3,5,8,0,63,-1033
1508,17.377146,3,7,8,1,63,-1033
1509,17.388762,2,4,7,1,69,-1032
1510,17.400407,3,6,12,-3,65,-1034
1511,17.412048,2,8,9,-4,67,-1029
1512,17.423709,3,5,9,1,60,-1036
1513,17.43537,1,6,10,0,62,-1037
1514,17.447015,1,7,8,0,64,-1035
1515,17.458568,4,6,10,-2,65,-1036
1516,17.470125,3,5,8,-2,64,-1033
1517,17.481725,3,6,8,1,63,-1031
1518,17.493277,3,7,10,-1,66,-1028
1519,17.50483,2,7,9,0,71,-1031
1520,17.516363,3,8,8,1,67,-1029
1521,17.527895,3,8,10,0,63,-1032
1522,17.539465,2,5,12,-1,66,-1030
1523,17.55122,4,7,11,-1,67,-1034
1524,17.562881,1,6,8,-1,67,-1026
1525,17.57453,2,5,9,3,60,-1029
1526,17.586202,3,6,9,1,61,-1031
1527,17.597882,2,5,8,-4,67,-1029
1528,17.609534,1,6,7,0,67,-1035
1529,17.621184,2,6,10,-2,67,-1031
1530,17.63283,0,9,10,-2,67,-1031
1531,17.644489,3,6,8,1,64,-1032
1532,17.656149,0,6,10,2,65,-1036
1533,17.667795,3,7,8,-1,65,-1034
1534,17.679432,1,5,8,1,61,-1031
1535,17.691114,3,5,9,-2,60,-1031
1536,17.702771,1,7,10,0,59,-1041
1537,17.714421,0,6,9,0,65,-1034
1538,17.726067,2,6,8,-1,62,-1029
1539,17.737791,2,6,9,-1,61,-1028
1540,17.74945,1,8,10,2,66,-1034
1541,17.760991,3,6,11,1,64,-1029
1542,17.772549,1,5,9,-2,69,-1032
1543,17.78409,3,5,13,2,65,-1033
1544,17.795634,1,7,7,-1,66,-1036
1545,17.807203,0,8,10,0,65,-1029
1546,17.818747,1,6,10,2,63,-1042
1547,17.830303,1,5,9,0,65,-1032
1548,17.841858,3,7,10,0,66,-1033
1549,17.853418,3,6,8,-3,61,-1039
1550,17.865024,2,6,9,1,66,-1040
1551,17.876667,3,9,11,-2,62,-1033
1552,17.888316,2,7,8,0,66,-1032
1553,17.899989,4,5,9,-3,65,-1032
1554,17.911642,3,8,12,-3,65,-1035
1555,17.9233,2,7,10,-2,61,-1037
1556,17.934945,4,5,8,1,64,-1037
1557,17.946594,3,7,9,0,65,-1033
1558,17.958304,0,6,9,-2,68,-1035
1559,17.969973,3,6,10,-2,63,-1036
1560,17.981539,2,7,8,-1,63,-1024
1561,17.993108,3,7,11,3,67,-1032
1562,18.004651,2,5,8,-1,65,-1027
1563,18.016194,2,9,9,1,66,-1027
1564,18.02774,3,5,9,-1,63,-1034
1565,18.039295,2,7,7,2,60,-1037
1566,18.050887,2,8,8,-3,66,-1034
1567,18.062472,4,7,10,-1,60,-1040
1568,18.074091,0,6,9,-2,63,-1034
1569,18.085827,3,5,7,1,65,-1031
1570,18.097492,3,5,7,0,64,-1033
1571,18.109155,1,5,9,0,66,-1032
1572,18.120824,2,6,8,-3,70,-1030
1573,18.132462,3,5,8,0,67,-1030
1574,18.144108,2,5,10,-2,67,-1039
1575,18.155791,4,5,8,-1,65,-1026
1576,18.167445,2,7,9,-3,62,-1030
1577,18.179089,4,5,9,0,66,-1039
1578,18.190756,2,7,10,-3,64,-1030
1579,18.202427,3,7,11,0,65,-1033
1580,18.214057,1,6,6,4,62,-1022
1581,18.225705,3,7,10,-1,63,-1032
1582,18.237406,2,5,10,0,61,-1035
1583,18.249076,4,6,7,-1,64,-1028
1584,18.260741,2,5,9,1,63,-1034
1585,18.27248,4,5,10,-2,68,-1033
1586,18.284138,3,5,10,-4,65,-1035
1587,18.295694,2,6,8,1,64,-1033
1588,18.30725,2,5,10,0,67,-1032
1589,18.318788,2,7,10,0,66,-1034
1590,18.33033,3,7,8,-5,61,-1028
1591,18.34198,3,6,9,-2,64,-1033
1592,18.353531,3,6,9,-5,63,-1031
1593,18.36507,3,3,9,0,64,-1030
1594,18.376614,2,8,8,0,67,-1029
1595,18.388267,2,8,9,0,63,-1035
1596,18.399936,2,10,7,-1,63,-1035
1597,18.411591,3,7,8,0,64,-1033
1598,18.423263,3,6,8,-2,66,-1034
1599,18.43494,3,6,8,1,64,-1033
1600,18.446593,2,7,6,4,60,-1031
1601,18.45824,3,9,8,-1,62,-1036
1602,18.469928,1,8,10,0,64,-1030
1603,18.481596,3,7,8,-2,63,-1036
1604,18.49326,4,5,10,-3,66,-1041
1605,18.504813,2,7,11,-3,65,-1032
1606,18.516368,2,5,9,0,69,-1034
1607,18.527917,-1,3,10,0,62,-1028
1608,18.539461,2,6,8,-6,62,-1034
1609,18.551006,2,6,10,2,63,-1027
1610,18.562551,1,6,7,3,65,-1030
1611,18.574128,3,6,8,-1,66,-1031
1612,18.585707,1,6,10,0,62,-1037
1613,18.600277,4,4,8,-2,64,-1029
1614,18.611973,4,7,11,-1,64,-1030
1615,18.623609,3,6,8,0,64,-1030
1616,18.635253,3,7,8,-2,62,-1029
1617,18.646921,1,4,9,0,66,-1041
1618,18.658566,1,5,8,-2,70,-1026
1619,18.670218,0,7,8,-3,61,-1029
1620,18.681864,3,4,9,-2,65,-1029
1621,18.693543,3,5,9,0,64,-1029
1622,18.705124,1,7,9,1,63,-1030
1623,18.716664,2,7,11,0,65,-1039
1624,18.728282,3,5,10,-1,66,-1031
1625,18.739829,1,6,8,0,66,-1033
1626,18.751388,1,8,8,-1,63,-1032
1627,18.762921,3,7,12,1,64,-1029
1628,18.77446,2,5,11,2,66,-1034
1629,18.786012,3,4,9,-1,62,-1032
1630,18.797583,4,6,7,0,65,-1034
1631,18.809275,3,7,6,-1,65,-1028
1632,18.820971,3,6,8,0,64,-1033
1633,18.832618,2,7,9,0,69,-1031
1634,18.844261,0,5,8,-1,60,-1037
1635,18.85593,1,6,10,-1,61,-1040
1636,18.86758,3,6,8,0,65,-1029
1637,18.879227,3,6,8,-1,65,-1029
1638,18.890882,1,7,8,-1,66,-1029
1639,18.90255,1,7,9,-2,66,-1032
1640,18.914202,5,3,8,-2,64,-1039
1641,18.92585,3,6,9,1,65,-1033
1642,18.937546,2,5,9,-1,66,-1039
1643,18.949195,2,8,9,0,62,-1035
1644,18.960869,2,6,11,-1,67,-1033
1645,18.972517,0,6,10,-1,64,-1027
1646,18.984187,1,7,10,-2,69,-1031
1647,18.995868,1,7,9,0,61,-1032
1648,19.007515,2,5,9,2,66,-1034
1649,19.019181,2,7,9,0,60,-1028
1650,19.030833,1,5,8,0,62,-1025
1651,19.042481,4,7,9,0,66,-1030
1652,19.054172,3,7,9,-2,66,-1029
1653,19.065839,5,6,10,-2,63,-1026
1654,19.077515,1,6,9,0,65,-1031
1655,19.089193,3,7,9,-4,64,-1034
1656,19.100865,4,6,8,1,60,-1036
1657,19.112428,0,7,9,1,71,-1034
1658,19.123974,2,5,10,0,59,-1035
1659,19.135543,1,7,11,0,65,-1040
1660,19.147076,4,6,9,1,63,-1029
1661,19.158625,2,5,8,-2,65,-1034
1662,19.170195,2,7,8,0,63,-1030
1663,19.181712,2,6,8,-3,68,-1036
1664,19.193252,1,7,8,0,66,-1037
1665,19.204808,3,5,8,0,66,-1033
1666,19.216505,2,6,7,-4,63,-1028
1667,19.228194,3,5,10,-2,63,-1028
1668,19.239848,3,8,10,-3,59,-1032
1669,19.251497,2,7,9,4,69,-1037
1670,19.263136,2,8,10,0,66,-1038
1671,19.274778,4,5,8,-2,65,-1032
1672,19.286445,3,7,10,-4,64,-1029
1673,19.298106,2,6,9,1,65,-1037
1674,19.309791,3,6,10,-3,64,-1033
1675,19.321468,0,7,11,0,69,-1029
1676,19.333129,4,4,10,0,66,-1040
1677,19.344765,3,3,8,-2,61,-1029
1678,19.356415,4,4,9,0,62,-1033
1679,19.368113,2,7,8,-2,62,-1028
1680,19.379759,3,6,10,-1,66,-1040
1681,19.391404,3,6,9,2,62,-1030
1682,19.403079,1,6,8,-1,64,-1032
1683,19.414804,1,6,8,1,62,-1030
1684,19.426472,4,6,8,2,65,-1028
1685,19.43806,0,6,9,-1,67,-1035
1686,19.449609,3,5,9,-1,62,-1026
1687,19.461163,2,7,10,-3,65,-1031
1688,19.472706,3,7,10,-3,70,-1035
1689,19.484243,0,6,11,-2,66,-1029
1690,19.495809,2,5,8,-1,65,-1028
1691,19.507343,4,7,11,2,64,-1033
1692,19.518899,2,5,10,2,59,-1035
1693,19.530516,3,5,9,-1,65,-1033
1694,19.542184,0,8,10,-1,63,-1037
1695,19.553839,2,9,9,-4,64,-1032
1696,19.565566,4,6,10,1,64,-1030
1697,19.57722,0,7,8,-7,66,-1033
1698,19.588888,4,5,9,0,61,-1034
1699,19.600539,3,7,9,-2,68,-1032
1700,19.61218,3,8,9,-2,65,-1033
1701,19.623836,2,4,9,0,63,-1041
1702,19.635511,2,4,10,5,66,-1036
1703,19.647079,4,5,10,2,67,-1036
1704,19.658651,1,8,7,0,62,-1038
1705,19.670203,2,6,9,-1,64,-1036
1706,19.681719,0,9,9,-2,63,-1038
1707,19.693235,3,7,9,-1,63,-1028
1708,19.704771,2,7,12,0,67,-1031
1709,19.716322,4,6,6,-1,69,-1034
1710,19.727875,2,6,8,-2,66,-1032
1711,19.739505,2,6,10,2,65,-1035
1712,19.75116,3,6,9,2,63,-1033
1713,19.762799,4,6,8,1,66,-1038
1714,19.774447,4,5,10,0,62,-1030
1715,19.786127,1,4,10,-1,65,-1031
1716,19.797789,2,3,9,0,64,-1033
1717,19.809463,1,7,10,-2,65,-1030
1718,19.821148,2,5,8,-2,70,-1040
1719,19.832776,0,6,11,0,66,-1026
1720,19.844425,3,10,9,2,67,-1037
1721,19.855984,2,3,12,-2,65,-1032
1722,19.86755,3,5,9,-3,61,-1032
1723,19.879088,3,6,8,-2,67,-1028
1724,19.890628,4,5,9,0,67,-1031
1725,19.902205,4,9,12,2,63,-1030
1726,19.913722,1,6,9,-1,64,-1035
1727,19.92527,4,6,9,-2,65,-1029
1728,19.936842,1,4,8,-3,61,-1034
1729,19.9485,3,8,10,-5,68,-1037
1730,19.960149,1,6,9,0,64,-1031
1731,19.9718,4,3,10,-1,67,-1034
1732,19.983438,2,5,7,-1,65,-1028
1733,19.995081,2,5,9,0,63,-1030
1734,20.006726,2,6,10,-3,66,-1031
1735,20.018378,1,8,9,2,62,-1034
1736,20.030046,4,8,10,-4,64,-1035
1737,20.041703,2,6,8,4,65,-1032
1738,20.05335,3,4,11,4,62,-1033
1739,20.065025,3,9,8,0,65,-1027
1740,20.076667,2,6,9,-4,64,-1036
1741,20.088313,3,5,8,-2,64,-1031
1742,20.099969,2,7,10,1,62,-1034
1743,20.111629,2,3,10,0,70,-1039
1744,20.123273,1,6,8,0,65,-1036
1745,20.134915,1,6,8,-4,68,-1031
1746,20.146589,1,7,10,0,64,-1035
1747,20.158249,2,8,9,-3,65,-1032
1748,20.169914,4,6,8,-8,61,-1025
1749,20.181541,3,6,7,-3,64,-1035
1750,20.19319,3,6,9,-1,65,-1033
1751,20.204889,3,7,8,4,66,-1035
1752,20.216539,3,7,8,-2,60,-1036
1753,20.22818,2,4,9,1,65,-1044
1754,20.239819,3,7,9,1,68,-1032
1755,20.2515,3,8,11,0,65,-1036
1756,20.263152,3,5,8,0,63,-1032
1757,20.274801,4,7,8,2,64,-1031
1758,20.286443,3,5,8,1,66,-1029
1759,20.29809,0,7,9,0,63,-1035
1760,20.309803,2,5,7,-2,64,-1025
1761,20.321453,2,6,8,-1,63,-1033
1762,20.333096,1,7,10,-1,67,-1028
1763,20.344768,4,4,9,0,68,-1034
1764,20.356423,3,5,7,0,60,-1033
1765,20.368061,4,4,9,0,65,-1036
1766,20.379621,2,6,9,0,65,-1034
1767,20.391248,3,6,8,-2,67,-1042
1768,20.402856,2,7,9,0,62,-1032
1769,20.414407,1,5,8,0,68,-1027
1770,20.425987,1,5,8,0,62,-1033
1771,20.437536,1,7,10,-3,64,-1040
1772,20.44911,2,7,10,0,63,-1038
1773,20.460667,3,6,6,4,65,-1034
1774,20.4723,1,6,11,0,60,-1026
1775,20.483953,2,6,9,2,62,-1033
1776,20.495638,4,7,7,-4,65,-1033
1777,20.507295,1,7,9,0,63,-1034
1778,20.518949,3,6,10,-3,67,-1034
1779,20.530587,1,6,9,1,64,-1029
1780,20.542236,2,6,10,1,67,-1033
1781,20.553935,3,5,10,0,64,-1036
1782,20.565596,1,8,10,0,67,-1035
1783,20.577265,3,7,9,-2,65,-1033
1784,20.588879,2,6,10,-2,60,-1032
1785,20.600419,2,6,8,-1,63,-1033
1786,20.611969,2,3,9,-3,64,-1032
1787,20.623518,3,5,11,2,66,-1028
1788,20.635058,2,6,11,0,68,-1033
1789,20.646658,2,5,9,0,64,-1031
1790,20.658233,3,7,9,-3,67,-1027
1791,20.669795,1,7,7,-2,70,-1029
1792,20.681501,3,7,8,1,68,-1031
1793,20.69319,2,8,10,0,64,-1036
1794,20.704842,0,6,7,-2,65,-1033
1795,20.716509,2,5,8,-1,66,-1030
1796,20.728164,3,5,9,1,64,-1031
1797,20.739814,3,9,7,0,63,-1039
1798,20.751466,1,7,10,-3,65,-1034
1799,20.763103,2,5,8,-3,66,-1034
1800,20.774785,1,4,9,0,69,-1035
1801,20.786434,2,5,10,-2,64,-1034
1802,20.797961,3,4,10,2,68,-1031
1803,20.809525,4,7,11,-2,65,-1036
1804,20.821069,3,8,10,0,66,-1025
1805,20.832617,3,7,9,-3,66,-1035
1806,20.844166,5,5,9,0,60,-1033
1807,20.855743,2,6,12,-2,66,-1037
1808,20.867292,3,6,9,-3,65,-1034
1809,20.878887,2,7,6,-2,65,-1033
1810,20.890503,1,6,10,1,67,-1034
1811,20.902188,2,6,11,4,64,-1028
1812,20.913845,3,5,8,0,66,-1035
1813,20.925538,2,6,11,2,62,-1028
1814,20.937194,2,5,8,0,63,-1030
1815,20.948842,4,8,9,1,64,-1032
1816,20.960487,1,7,9,2,61,-1035
1817,20.972138,2,5,10,0,64,-1033
1818,20.983802,2,7,10,0,65,-1032
1819,20.995452,3,6,10,0,65,-1035
1820,21.007103,2,6,7,0,65,-1027
1821,21.018746,2,5,9,0,64,-1032
1822,21.030405,3,7,12,-1,63,-1027
1823,21.042078,1,8,8,0,67,-1030
1824,21.05373,3,6,9,-5,65,-1039
1825,21.065413,0,7,9,-1,65,-1031
1826,21.077085,2,8,8,0,62,-1041
1827,21.088788,2,5,9,-4,64,-1036
1828,21.100453,4,7,11,-1,67,-1037
1829,21.112101,2,8,8,0,61,-1031
1830,21.123748,2,8,8,1,63,-1030
1831,21.135415,3,8,8,4,64,-1031
1832,21.147076,2,7,10,0,64,-1028
1833,21.158721,1,7,9,0,68,-1027
1834,21.170373,3,7,9,-1,63,-1031
1835,21.182055,4,7,10,1,65,-1030
1836,21.19381,3,6,9,-3,70,-1030
1837,21.205463,1,6,10,-1,66,-1029
1838,21.217138,2,5,9,-2,65,-1031
1839,21.22881,3,7,9,0,63,-1030
1840,21.240459,2,6,11,-3,65,-1032
1841,21.252105,2,6,8,0,64,-1033
1842,21.263753,1,5,11,-2,66,-1031
1843,21.275418,3,7,7,0,65,-1028
1844,21.287081,2,5,8,-2,63,-1034
1845,21.298736,3,6,8,-3,63,-1031
1846,21.310384,5,6,11,0,65,-1033
1847,21.322068,2,7,10,2,64,-1039
1848,21.333721,2,6,11,1,67,-1036
1849,21.345395,3,7,10,1,63,-1033
1850,21.357065,4,6,7,-1,62,-1033
1851,21.368709,1,7,9,1,68,-1034
1852,21.380362,2,6,9,-1,63,-1032
1853,21.392009,3,6,8,1,66,-1028
1854,21.403669,4,8,9,-1,65,-1039
1855,21.415412,3,6,8,0,65,-1031
1856,21.427075,3,5,9,-1,68,-1037
1857,21.438726,4,5,8,2,63,-1034
1858,21.450375,4,7,9,1,64,-1029
1859,21.462066,3,6,8,2,64,-1029
1860,21.473722,2,6,9,1,61,-1031
1861,21.485416,3,5,7,-1,62,-1031
1862,21.497084,1,7,10,-2,65,-1031
1863,21.508832,0,5,7,-1,64,-1037
1864,21.520503,4,5,11,-6,68,-1033
1865,21.532066,2,7,8,0,65,-1036
1866,21.543641,3,6,9,-2,64,-1031
1867,21.55518,3,6,10,0,63,-1029
1868,21.566727,5,6,8,0,64,-1038
1869,21.578284,5,4,10,-3,64,-1031
1870,21.58984,4,5,8,0,65,-1036
1871,21.601387,4,7,9,-1,65,-1035
1872,21.612945,3,5,10,-2,63,-1033
1873,21.62459,3,5,9,0,64,-1031
1874,21.636242,3,5,8,-3,61,-1040
1875,21.647893,2,4,8,-2,62,-1025
1876,21.659531,2,7,9,-2,65,-1033
1877,21.671169,3,6,8,-1,64,-1037
1878,21.682897,3,6,10,-1,63,-1036
1879,21.694537,2,7,10,0,69,-1027
1880,21.706188,2,4,8,0,64,-1034
1881,21.717869,2,7,8,-1,62,-1033
1882,21.729665,3,5,9,-1,64,-1030
1883,21.741406,1,5,11,0,66,-1037
1884,21.752998,3,7,9,-2,60,-1036
1885,21.764552,1,7,10,3,66,-1035
1886,21.776105,1,5,9,-3,66,-1034
1887,21.787693,2,7,9,3,65,-1028
1888,21.799232,5,6,9,-2,66,-1023
1889,21.810792,2,5,9,1,60,-1036
1890,21.822389,0,7,8,0,61,-1031
1891,21.833952,1,7,9,-1,69,-1031
1892,21.845547,2,5,10,0,63,-1034
1893,21.857124,3,5,8,0,65,-1036
1894,21.868683,3,7,9,0,64,-1037
1895,21.880221,1,11,8,-5,66,-1033
1896,21.891758,1,7,10,1,63,-1037
1897,21.903305,2,7,6,0,70,-1033
1898,21.914851,2,3,7,-2,65,-1036
1899,21.926402,2,5,9,-2,66,-1039
1900,21.938049,2,7,10,0,71,-1039
1901,21.949738,1,2,10,1,65,-1036
1902,21.961407,3,6,9,0,65,-1036
1903,21.973062,3,8,7,-3,62,-1033
1904,21.984766,2,7,10,0,63,-1030
1905,21.996406,3,7,7,1,62,-1031
1906,22.008055,2,7,9,-2,63,-1040
1907,22.019734,4,6,9,-4,67,-1030
1908,22.031389,2,6,9,-5,62,-1033
1909,22.043081,2,5,10,-1,63,-1036
1910,22.054662,3,6,9,0,62,-1033
1911,22.06621,2,5,10,1,67,-1034
1912,22.077759,4,7,10,6,64,-1032
1913,22.089307,2,7,9,-2,63,-1033
1914,22.100872,2,5,7,-5,66,-1038
1915,22.11242,2,6,10,-1,64,-1036
1916,22.123962,0,6,9,-4,64,-1028
1917,22.135531,1,5,9,0,65,-1034
1918,22.147153,3,6,11,-1,68,-1034
1919,22.158837,1,6,12,0,65,-1029
1920,22.17054,4,5,9,0,67,-1035
1921,22.182199,3,6,8,-4,70,-1037
1922,22.193872,3,8,9,2,67,-1030
1923,22.205531,2,6,10,-4,66,-1033
1924,22.217187,1,7,10,1,69,-1038
1925,22.228882,3,5,10,2,65,-1033
1926,22.24054,3,6,8,-2,62,-1032
1927,22.252219,2,6,11,-2,64,-1028
1928,22.263802,4,6,10,1,59,-1039
1929,22.275348,1,6,8,-3,63,-1025
1930,22.286917,3,5,8,-1,65,-1037
1931,22.298466,2,5,8,2,63,-1031
1932,22.31006,2,5,10,-4,68,-1037
1933,22.321611,3,6,12,0,64,-1039
1934,22.333217,2,6,9,0,67,-1026
1935,22.344759,1,6,9,0,63,-1032
1936,22.356412,1,6,8,0,62,-1035
1937,22.368057,2,4,7,3,66,-1036
1938,22.379703,3,6,9,-1,67,-1035
1939,22.391373,2,4,9,-1,64,-1035
1940,22.403018,4,7,8,-2,65,-1026
1941,22.414667,0,6,6,-1,67,-1034
1942,22.426312,3,5,8,-2,64,-1033
1943,22.438028,3,5,8,-1,69,-1026
1944,22.449704,3,5,9,0,66,-1034
1945,22.461377,2,4,10,-4,64,-1024
1946,22.472982,3,7,9,-3,61,-1036
1947,22.484527,6,5,10,-2,66,-1041
1948,22.496084,2,7,9,-2,66,-1034
1949,22.507627,1,7,9,2,64,-1030
1950,22.519169,0,7,10,3,66,-1033
1951,22.53077,3,7,10,0,66,-1035
1952,22.542337,1,7,9,-5,67,-1034
1953,22.553903,3,7,11,0,69,-1038
1954,22.565645,3,7,9,0,66,-1034
1955,22.577278,2,4,8,5,60,-1034
1956,22.588938,2,5,10,1,67,-1034
1957,22.600607,3,6,10,0,62,-1027
1958,22.612275,3,5,9,-3,64,-1028
1959,22.623925,3,5,11,-3,65,-1030
1960,22.635576,2,8,8,-3,65,-1029
1961,22.647239,2,7,10,-1,67,-1033
1962,22.658913,2,6,7,0,64,-1038
1963,22.670604,2,5,9,-1,67,-1039
1964,22.68229,2,9,10,-3,63,-1029
1965,22.693946,3,5,6,0,64,-1030
1966,22.705626,1,4,9,-2,65,-1034
1967,22.717284,2,3,8,-1,65,-1033
1968,22.72894,3,7,7,1,62,-1030
1969,22.740601,3,7,8,-1,62,-1038
1970,22.752268,3,5,10,1,62,-1033
1971,22.763986,2,5,8,0,64,-1037
1972,22.775661,2,6,9,3,64,-1033
1973,22.787213,1,6,8,0,64,-1031
1974,22.798761,3,7,9,1,68,-1038
1975,22.810306,3,5,9,4,64,-1033
1976,22.821875,1,6,8,-1,70,-1029
1977,22.833421,3,7,9,4,64,-1032
1978,22.844988,2,5,7,0,68,-1035
1979,22.856537,3,5,9,-1,64,-1032
1980,22.868117,1,6,8,1,67,-1036
1981,22.879811,1,5,9,1,65,-1033
1982,22.891467,1,4,10,-1,65,-1035
1983,22.90316,3,7,8,0,63,-1037
1984,22.914812,2,5,7,-2,60,-1030
1985,22.926465,0,8,11,-1,66,-1036
1986,22.938142,2,5,11,0,65,-1030
1987,22.949792,1,6,8,-2,65,-1029
1988,22.961446,2,8,9,0,67,-1033
1989,22.973112,2,7,10,-1,66,-1033
1990,22.984763,3,7,11,-2,65,-1030
1991,22.996429,1,6,9,-2,70,-1033
1992,23.008077,3,6,8,0,67,-1032
1993,23.019714,3,6,12,0,65,-1033
1994,23.031358,2,7,9,0,66,-1034
1995,23.043025,2,6,8,1,61,-1034
1996,23.054681,2,6,10,0,65,-1033
1997,23.066331,3,8,9,-2,67,-1033
1998,23.078036,3,6,8,-2,64,-1040
1999,23.089699,1,4,10,3,67,-1026
