sample,t_s,gyro_x,gyro_y,gyro_z,accel_x,accel_y,accel_z
0,1.5e-05,0,-1,2,1031,2,-1539
1,0.01122,1,0,0,1026,2,-1544
2,0.022409,1,2,1,1028,-1,-1542
3,0.033626,1,-1,2,1028,0,-1544
4,0.044815,1,-1,2,1030,0,-1542
5,0.056002,-2,0,2,1031,-2,-1538
6,0.0672,0,1,0,1031,1,-1540
7,0.078397,1,2,0,1031,2,-1540
8,0.089579,-1,1,0,1030,0,-1546
9,0.100768,1,1,-1,1030,-2,-1544
10,0.111951,0,1,-1,1031,3,-1538
11,0.123137,1,-1,0,1027,-1,-1543
12,0.134328,2,-2,2,1030,2,-1543
13,0.145515,-2,-1,1,1031,1,-1539
14,0.156703,0,0,1,1031,6,-1542
15,0.167888,0,0,1,1030,-1,-1536
16,0.179075,1,0,1,1028,1,-1542
17,0.190273,0,-1,0,1029,0,-1537
18,0.201454,-1,0,2,1031,-1,-1544
19,0.212636,0,0,-1,1031,-5,-1539
20,0.223818,-1,0,1,1029,1,-1540
21,0.235009,-1,-1,2,1033,4,-1544
22,0.246187,0,-2,-1,1031,-3,-1536
23,0.257373,-1,1,0,1030,0,-1546
24,0.268556,-1,3,2,1029,0,-1542
25,0.279741,0,0,2,1027,2,-1548
26,0.290947,-2,2,1,1028,-2,-1547
27,0.302129,2,1,1,1028,-2,-1541
28,0.313318,-1,1,0,1026,0,-1541
29,0.324505,0,0,2,1035,2,-1541
30,0.335691,0,1,-1,1031,-2,-1538
31,0.346832,1,1,0,1029,0,-1543
32,0.358012,2,-1,3,1028,1,-1543
33,0.369194,0,-2,1,1028,-2,-1547
34,0.380377,1,1,1,1023,1,-1544
35,0.39156,1,1,1,1028,1,-1545
36,0.402757,0,0,0,1032,0,-1538
37,0.413945,0,-1,3,1030,3,-1542
38,0.425131,0,0,1,1028,0,-1544
39,0.436322,1,-2,4,1032,3,-1549
40,0.447508,0,-2,2,1029,2,-1547
41,0.458697,0,3,1,1031,0,-1544
42,0.469881,0,-1,4,1032,1,-1541
43,0.481063,0,2,0,1033,-2,-1536
44,0.492251,0,-2,0,1030,0,-1544
45,0.50344,0,1,1,1028,0,-1540
46,0.514647,-1,0,2,1029,1,-1538
47,0.525832,-1,2,1,1031,1,-1545
48,0.537014,2,0,1,1032,2,-1542
49,0.548209,0,0,1,1029,-3,-1540
50,0.559392,1,-1,-2,1029,1,-1539
51,0.570582,0,2,1,1032,0,-1544
52,0.581764,0,-1,3,1031,5,-1539
53,0.592946,1,2,-1,1030,2,-1540
54,0.604128,-1,0,2,1029,0,-1545
55,0.615318,2,0,0,1028,0,-1553
56,0.626462,0,-1,2,1027,-1,-1544
57,0.637643,1,1,3,1027,-1,-1545
58,0.648823,0,1,2,1030,2,-1545
59,0.660005,0,3,2,1031,-2,-1543
60,0.671199,0,1,1,1028,0,-1545
61,0.682388,0,0,2,1029,-1,-1540
62,0.69357,0,1,2,1031,3,-1544
63,0.704752,-1,1,1,1030,2,-1538
64,0.715932,0,0,2,1027,0,-1541
65,0.727129,0,-1,0,1031,2,-1544
66,0.738278,-2,0,2,1023,2,-1548
67,0.749462,1,0,-1,1029,4,-1544
68,0.760642,-1,-1,0,1029,0,-1545
69,0.771825,1,1,0,1030,0,-1547
70,0.783015,0,-2,1,1032,0,-1541
71,0.794197,2,-2,0,1030,0,-1536
72,0.80538,1,-1,2,1026,-1,-1537
73,0.816563,0,1,1,1024,0,-1547
74,0.827748,2,0,-1,1029,1,-1547
75,0.838943,1,0,3,1027,3,-1541
76,0.850125,0,2,0,1028,-2,-1544
77,0.861318,2,-1,2,1031,0,-1540
78,0.872511,-2,-2,2,1028,-1,-1546
79,0.883696,1,0,-2,1033,1,-1541
80,0.894889,0,1,0,1030,0,-1546
81,0.906073,2,1,1,1031,1,-1541
82,0.917254,0,0,2,1028,2,-1545
83,0.928436,0,-1,1,1027,0,-1543
84,0.939622,0,0,0,1030,0,-1543
85,0.950807,-1,1,2,1031,-2,-1542
86,0.961992,-1,-1,1,1031,0,-1543
87,0.973176,0,0,0,1029,0,-1545
88,0.98438,-2,0,1,1032,-2,-1542
89,0.995566,0,-1,1,1029,0,-1544
90,1.006759,-1,-1,2,1030,-1,-1548
91,1.017941,1,2,1,1030,0,-1543
92,1.029128,1,0,1,1031,0,-1534
93,1.040317,-1,-1,2,1025,1,-1539
94,1.051501,0,2,1,1027,0,-1543
95,1.062647,-1,0,-1,1030,0,-1546
96,1.073831,0,0,2,1031,1,-1540
97,1.085012,1,-1,1,1030,1,-1542
98,1.096208,1,1,-1,1030,0,-1540
99,1.107393,0,1,0,1032,0,-1544
100,1.118584,0,3,2,1025,0,-1540
101,1.129768,1,3,1,1028,4,-1545
102,1.140953,0,-2,0,1031,-6,-1537
103,1.152136,1,0,1,1030,-2,-1547
104,1.163322,-1,1,2,1029,0,-1537
105,1.174505,2,1,1,1028,0,-1540
106,1.185687,0,1,0,1031,0,-1539
107,1.196869,0,3,3,1032,-1,-1546
108,1.208056,-1,-1,-1,1029,-3,-1541
109,1.219204,-1,-1,2,1026,0,-1543
110,1.23039,0,1,2,1030,0,-1535
111,1.241572,2,0,2,1031,2,-1539
112,1.252755,1,0,1,1028,1,-1541
113,1.263937,0,0,0,1028,0,-1541
114,1.275128,0,0,0,1031,0,-1542
115,1.286279,1,2,1,1030,2,-1545
116,1.297461,0,1,3,1026,0,-1537
117,1.308641,0,0,1,1026,0,-1543
118,1.319827,0,0,0,1030,0,-1541
119,1.331017,1,0,0,1031,0,-1540
120,1.342201,2,0,1,1027,0,-1542
121,1.353385,1,1,0,1033,0,-1542
122,1.364567,1,1,1,1029,0,-1542
123,1.375749,2,1,1,1032,1,-1546
124,1.386945,2,0,3,1031,2,-1540
125,1.398127,1,3,1,1028,1,-1542
126,1.409312,-1,0,-1,1032,0,-1540
127,1.420503,-1,0,0,1027,1,-1545
128,1.431683,-1,-1,1,1031,1,-1546
129,1.442833,0,0,1,1028,0,-1538
130,1.454012,3,-1,2,1031,0,-1535
131,1.465194,1,1,1,1031,-2,-1539
132,1.476378,0,3,1,1024,0,-1542
133,1.487562,0,0,1,1030,-2,-1541
134,1.498758,0,-1,0,1030,4,-1542
135,1.509946,0,1,3,1029,1,-1538
136,1.52113,1,-1,1,1029,-2,-1541
137,1.532314,0,2,0,1030,2,-1534
138,1.543498,2,-1,1,1027,-2,-1545
139,1.554648,1,0,1,1028,0,-1540
140,1.56583,1,0,1,1031,-3,-1539
141,1.577013,-1,1,0,1031,-1,-1545
142,1.588209,1,-1,2,1031,3,-1552
143,1.599392,1,1,2,1029,1,-1541
144,1.610585,1,1,0,1031,-1,-1541
145,1.621769,0,0,1,1030,0,-1548
146,1.632954,1,2,2,1030,1,-1542
147,1.644139,-1,1,0,1032,0,-1550
148,1.655325,0,2,3,1031,2,-1539
149,1.666511,0,2,1,1031,0,-1543
150,1.677693,0,-2,1,1028,0,-1534
151,1.688878,1,0,2,1031,3,-1546
152,1.700061,0,-2,0,1031,1,-1543
153,1.71125,0,3,-1,1029,-3,-1541
154,1.722441,1,1,2,1032,-1,-1544
155,1.733624,1,-1,-1,1032,-1,-1544
156,1.744811,1,-1,2,1030,-3,-1541
157,1.755997,0,1,3,1026,0,-1542
158,1.7672,1,0,1,1027,0,-1540
159,1.778393,0,-1,1,1029,1,-1541
160,1.789577,0,1,0,1032,0,-1548
161,1.800758,0,0,2,1030,-1,-1542
162,1.81194,0,1,0,1030,0,-1545
163,1.823142,1,1,2,1030,1,-1543
164,1.834328,0,1,0,1028,-1,-1539
165,1.845511,1,1,0,1031,1,-1543
166,1.856696,3,1,1,1028,0,-1543
167,1.867878,0,-1,2,1027,-2,-1537
168,1.87908,-1,1,2,1031,2,-1549
169,1.890274,-1,-1,0,1027,0,-1545
170,1.901457,0,0,1,1026,4,-1541
171,1.912637,0,1,0,1032,1,-1541
172,1.923819,0,-1,0,1035,0,-1541
173,1.935014,-2,1,2,1033,0,-1541
174,1.946197,1,-1,3,1028,3,-1538
175,1.957379,-1,0,0,1028,0,-1544
176,1.968563,1,-2,1,1027,0,-1537
177,1.979746,1,-1,1,1031,1,-1549
178,1.990942,0,1,2,1024,3,-1545
179,2.002123,1,-1,0,1030,4,-1545
180,2.013304,0,0,0,1031,-1,-1539
181,2.02449,0,1,1,1031,0,-1541
182,2.035685,0,0,1,1029,0,-1540
183,2.046955,1,0,1,1027,1,-1541
184,2.058253,0,2,0,1029,1,-1540
185,2.069444,0,-1,0,1028,0,-1539
186,2.080637,0,1,1,1033,-1,-1543
187,2.091822,2,2,2,1028,-1,-1543
188,2.103018,1,0,3,1031,1,-1542
189,2.114206,0,-1,1,1027,0,-1543
190,2.12539,-1,-1,2,1030,1,-1544
191,2.136574,0,0,0,1030,2,-1546
192,2.14776,2,-2,-1,1028,-1,-1544
193,2.158948,0,2,-1,1030,-1,-1542
194,2.170132,0,0,0,1028,-1,-1544
195,2.181318,1,0,0,1031,-1,-1546
196,2.192504,0,1,3,1030,1,-1543
197,2.203689,0,2,3,1028,2,-1540
198,2.214879,0,0,0,1024,-1,-1538
199,2.226086,-1,0,4,1030,0,-1545
200,2.237275,0,1,0,1031,0,-1548
201,2.248461,1,1,2,1030,1,-1547
202,2.259645,1,-1,2,1030,2,-1541
203,2.270836,0,0,1,1028,1,-1540
204,2.282021,0,1,1,1030,-1,-1539
205,2.293205,0,2,-1,1027,1,-1548
206,2.30439,0,2,0,1027,-2,-1535
207,2.315574,-1,-2,2,1031,4,-1544
208,2.326762,0,1,1,1031,0,-1543
209,2.337947,0,1,0,1028,0,-1542
210,2.349131,1,1,0,1026,0,-1541
211,2.360312,0,0,2,1031,4,-1542
212,2.371495,0,1,-1,1033,3,-1546
213,2.38265,0,-2,2,1030,0,-1539
214,2.393834,2,0,0,1031,-1,-1541
215,2.405028,-1,0,0,1031,0,-1540
216,2.416216,0,0,1,1030,-1,-1540
217,2.427413,3,0,-1,1031,-2,-1542
218,2.438603,1,0,-1,1031,1,-1547
219,2.449787,0,2,5,1026,0,-1547
220,2.460978,0,2,-2,1033,4,-1548
221,2.472164,0,1,0,1031,0,-1545
222,2.483349,1,0,0,1031,0,-1536
223,2.494536,-1,1,1,1027,0,-1542
224,2.505717,1,1,-1,1033,-2,-1536
225,2.516901,0,1,1,1031,0,-1548
226,2.528083,0,-1,0,1029,0,-1544
227,2.539266,1,0,2,1030,-1,-1542
228,2.550469,1,2,1,1030,0,-1537
229,2.561656,1,0,0,1031,-1,-1539
230,2.572842,-1,0,2,1029,-3,-1537
231,2.584042,1,1,0,1031,-1,-1540
232,2.595202,1,0,3,1031,0,-1538
233,2.606394,-1,-1,1,1031,0,-1545
234,2.617576,3,-1,0,1032,1,-1541
235,2.628757,2,3,-1,1029,0,-1541
236,2.639937,1,2,2,1031,-4,-1538
237,2.651129,1,-1,0,1026,-3,-1542
238,2.662278,1,0,3,1031,-1,-1539
239,2.673463,0,0,-1,1030,-1,-1543
240,2.684644,1,0,1,1034,1,-1544
241,2.695824,1,2,0,1032,0,-1539
242,2.707013,1,0,0,1032,1,-1545
243,2.718195,2,1,0,1028,3,-1544
244,2.729377,1,-1,1,1030,0,-1545
245,2.740561,1,2,1,1032,-1,-1537
246,2.751742,1,2,1,1028,-1,-1543
247,2.762941,2,3,2,1028,-1,-1541
248,2.774124,2,1,0,1027,-2,-1539
249,2.785312,0,2,-1,1025,0,-1535
250,2.796497,2,1,2,1027,0,-1548
251,2.807678,0,2,0,1031,4,-1546
252,2.818836,4,3,0,1030,3,-1543
253,2.830017,1,2,2,1034,-1,-1541
254,2.841199,2,3,1,1033,1,-1547
255,2.852381,0,4,1,1031,-3,-1544
256,2.863564,2,4,3,1030,-2,-1542
257,2.874758,3,5,1,1034,-3,-1543
258,2.88594,-1,5,2,1035,-4,-1543
259,2.897122,0,3,3,1036,-1,-1546
260,2.908302,1,5,1,1034,-7,-1542
261,2.919483,-1,6,-2,1033,-1,-1536
262,2.930657,3,6,-1,1028,0,-1540
263,2.941861,-1,3,1,1028,-5,-1545
264,2.95305,1,5,-1,1028,2,-1534
265,2.964214,-2,6,2,1030,-6,-1541
266,2.975436,3,5,1,1031,2,-1536
267,2.986663,0,8,2,1034,-2,-1540
268,2.997853,-1,6,1,1029,0,-1542
269,3.009047,1,4,2,1029,1,-1540
270,3.020231,0,6,2,1034,3,-1539
271,3.031417,1,4,1,1035,6,-1528
272,3.042606,1,3,1,1037,0,-1549
273,3.053788,-2,6,2,1032,0,-1544
274,3.064975,0,2,1,1033,-3,-1524
275,3.076157,5,3,0,1033,1,-1540
276,3.087347,-1,2,2,1032,-5,-1545
277,3.098537,-2,0,2,1032,-4,-1539
278,3.109725,1,0,2,1033,-1,-1543
279,3.120915,0,0,0,1042,-5,-1552
280,3.132098,0,-2,1,1048,1,-1537
281,3.143289,0,-4,2,1040,-1,-1538
282,3.154471,0,-1,-3,1029,1,-1548
283,3.165656,1,1,1,1016,0,-1547
284,3.176854,1,3,-1,1022,-1,-1536
285,3.188036,2,-1,1,1028,-5,-1542
286,3.19921,-2,0,0,1035,-2,-1539
287,3.2104,0,1,-1,1037,-1,-1542
288,3.221586,1,2,1,1031,1,-1545
289,3.232798,-1,1,0,1034,1,-1545
290,3.243981,-1,4,0,1028,4,-1542
291,3.255166,0,1,2,1026,1,-1541
292,3.266356,-1,0,0,1029,6,-1548
293,3.277544,-1,1,2,1037,2,-1528
294,3.288729,5,-1,0,1034,2,-1542
295,3.299924,-2,2,1,1039,-3,-1545
296,3.311111,-1,0,0,1031,-2,-1536
297,3.322277,0,-1,1,1025,1,-1543
298,3.333468,0,2,4,1026,-3,-1547
299,3.344652,0,0,2,1031,0,-1536
300,3.355839,-1,2,1,1036,-1,-1547
301,3.36702,0,0,1,1041,-7,-1550
302,3.378204,-1,-2,2,1035,-1,-1540
303,3.38939,1,1,2,1033,0,-1541
304,3.400572,1,3,-1,1027,0,-1543
305,3.411756,-1,-1,1,1028,-3,-1536
306,3.42295,1,-2,3,1030,1,-1540
307,3.434133,-1,-2,1,1031,1,-1550
308,3.445317,0,2,1,1040,0,-1537
309,3.456501,1,-2,0,1038,1,-1536
310,3.467686,2,0,0,1037,-1,-1544
311,3.478832,2,3,1,1031,1,-1552
312,3.490015,1,2,2,1028,1,-1539
313,3.501195,1,0,3,1029,1,-1542
314,3.512377,1,1,1,1032,0,-1535
315,3.523558,1,1,1,1039,0,-1532
316,3.534759,0,2,-1,1036,-2,-1543
317,3.545943,2,1,0,1033,1,-1540
318,3.557126,-2,1,1,1030,-2,-1539
319,3.568305,1,0,1,1033,-1,-1540
320,3.5795,0,1,2,1029,-1,-1539
321,3.590652,-2,-1,0,1033,-3,-1534
322,3.601837,2,-1,1,1032,-2,-1542
323,3.613027,1,0,2,1031,0,-1554
324,3.624218,-2,-1,1,1032,0,-1543
325,3.635408,-1,-1,3,1030,0,-1548
326,3.646603,-1,0,1,1028,1,-1545
327,3.657797,1,0,2,1030,1,-1539
328,3.668982,-1,-1,3,1036,0,-1534
329,3.680167,-1,2,0,1041,-1,-1549
330,3.691353,-1,1,0,1034,-1,-1538
331,3.702541,1,2,1,1031,0,-1537
332,3.713725,1,0,2,1028,2,-1546
333,3.724911,-2,1,1,1031,-3,-1541
334,3.736094,1,-1,2,1032,-2,-1542
335,3.747286,2,0,1,1033,-1,-1536
336,3.758479,0,1,2,1038,-1,-1538
337,3.769661,1,0,-1,1033,2,-1535
338,3.780852,0,0,2,1036,1,-1544
339,3.792034,-1,1,1,1033,-3,-1547
340,3.803219,0,-1,1,1031,-2,-1543
341,3.814419,0,1,3,1030,-4,-1549
342,3.825603,1,0,1,1032,-2,-1545
343,3.836789,-2,0,-1,1037,1,-1536
344,3.847978,0,-1,-2,1036,-3,-1540
345,3.859166,-1,-3,0,1030,1,-1539
346,3.870361,1,1,1,1034,0,-1542
347,3.881543,-2,0,1,1026,-2,-1541
348,3.892723,1,0,1,1029,3,-1539
349,3.903904,1,0,3,1034,2,-1546
350,3.915091,0,2,4,1034,-1,-1540
351,3.92628,-1,2,0,1037,0,-1536
352,3.937477,0,0,1,1031,-2,-1542
353,3.94866,-1,0,2,1033,0,-1540
354,3.959844,1,0,1,1031,1,-1542
355,3.971018,0,-1,0,1029,0,-1542
356,3.982263,1,-2,0,1031,0,-1539
357,3.993853,0,1,-1,1035,0,-1543
358,4.005573,3,1,1,1031,0,-1535
359,4.017306,0,0,1,1034,0,-1540
360,4.028972,1,-1,1,1034,-2,-1536
361,4.04066,-1,0,1,1031,-2,-1549
362,4.052323,1,-1,2,1033,-3,-1538
363,4.063981,-1,-1,1,1031,-5,-1544
364,4.075628,0,1,1,1032,0,-1545
365,4.087314,-1,3,0,1036,-4,-1540
366,4.098998,1,0,2,1035,2,-1537
367,4.11056,0,0,2,1034,-5,-1538
368,4.122124,0,1,1,1030,0,-1537
369,4.133666,1,-3,0,1031,0,-1540
370,4.145214,-1,-2,0,1031,2,-1540
371,4.156763,-1,1,-1,1033,-1,-1539
372,4.168316,1,1,1,1033,0,-1542
373,4.179865,0,-2,0,1032,-3,-1539
374,4.191442,0,0,0,1034,-4,-1537
375,4.203145,0,0,2,1031,2,-1543
376,4.214832,0,2,0,1034,2,-1541
377,4.226491,2,3,0,1033,-6,-1539
378,4.23814,1,1,-2,1031,-2,-1547
379,4.249806,2,1,2,1033,1,-1545
380,4.261459,1,0,2,1035,3,-1545
381,4.273118,0,-1,0,1032,4,-1541
382,4.284776,1,0,1,1032,-1,-1544
383,4.29645,0,-1,2,1033,-2,-1541
384,4.308145,0,-1,2,1029,-2,-1540
385,4.319745,0,-1,2,1035,0,-1546
386,4.331282,0,0,2,1032,0,-1546
387,4.342872,-1,-1,0,1031,0,-1541
388,4.354434,-2,0,3,1028,0,-1540
389,4.36598,4,-1,1,1031,1,-1548
390,4.37753,-2,-1,2,1033,0,-1538
391,4.389127,-1,-1,0,1037,0,-1540
392,4.400687,-1,0,1,1033,1,-1543
393,4.412311,0,2,1,1035,1,-1538
394,4.423966,2,0,0,1031,0,-1546
395,4.435608,1,-2,3,1031,-5,-1538
396,4.447264,-1,1,2,1032,-3,-1542
397,4.45896,-1,1,0,1032,0,-1545
398,4.470583,1,0,1,1032,0,-1542
399,4.482227,1,0,0,1031,0,-1537
400,4.493898,1,-1,2,1031,0,-1541
401,4.505571,-2,1,0,1031,0,-1547
402,4.51725,1,0,2,1030,0,-1545
403,4.528821,0,2,1,1032,-1,-1549
404,4.540387,-2,1,1,1034,-4,-1539
405,4.551986,0,1,1,1033,3,-1544
406,4.56353,1,1,2,1029,1,-1539
407,4.575125,1,-1,0,1031,0,-1541
408,4.586687,1,1,1,1031,2,-1539
409,4.598232,3,0,2,1029,0,-1546
410,4.609798,1,-2,1,1031,0,-1547
411,4.621461,-2,-2,0,1034,-3,-1543
412,4.633142,1,-1,0,1032,0,-1547
413,4.644801,0,0,1,1036,0,-1544
414,4.656463,0,2,3,1038,2,-1535
415,4.668133,0,-1,1,1033,-1,-1541
416,4.679834,-1,0,2,1028,-3,-1546
417,4.691522,0,-3,0,1030,-1,-1537
418,4.70317,1,0,-1,1029,-1,-1547
419,4.714866,0,-1,2,1031,-2,-1541
420,4.72654,1,0,2,1032,0,-1553
421,4.738093,0,-1,-1,1031,-1,-1540
422,4.749637,2,-2,0,1028,0,-1543
423,4.761232,-1,-1,0,1034,1,-1540
424,4.77278,1,-1,0,1035,0,-1546
425,4.784322,1,1,0,1032,4,-1546
426,4.795872,-1,0,1,1035,0,-1545
427,4.807424,-1,-1,1,1037,0,-1543
428,4.81899,1,1,4,1031,-2,-1541
429,4.830698,-2,-1,0,1031,0,-1540
430,4.842389,0,-1,-1,1032,0,-1540
431,4.854038,0,1,3,1031,-5,-1552
432,4.865693,2,-1,1,1034,0,-1538
433,4.877337,0,-4,2,1035,0,-1539
434,4.889006,2,0,2,1031,-3,-1548
435,4.900658,0,-2,3,1032,0,-1543
436,4.912309,0,0,-1,1034,-2,-1543
437,4.923978,1,-2,0,1030,-4,-1540
438,4.935603,0,0,1,1033,0,-1547
439,4.947166,0,1,1,1027,-3,-1550
440,4.958744,1,0,2,1036,-2,-1546
441,4.970311,2,0,1,1029,-1,-1545
442,4.98186,0,1,0,1029,3,-1547
443,4.993401,1,2,1,1031,2,-1542
444,5.004941,1,2,1,1033,0,-1536
445,5.016497,1,1,2,1031,-1,-1550
446,5.028043,1,0,0,1032,-2,-1543
447,5.039679,0,1,1,1034,3,-1540
448,5.051354,0,0,1,1031,0,-1536
449,5.063014,0,1,2,1033,0,-1547
450,5.074704,-2,0,0,1034,-3,-1537
451,5.086327,0,0,0,1030,0,-1541
452,5.097974,1,0,0,1031,5,-1544
453,5.10965,0,0,1,1034,-1,-1543
454,5.121316,1,0,1,1031,1,-1546
455,5.132976,-2,1,2,1032,-2,-1542
456,5.144644,-1,1,0,1031,0,-1542
457,5.156213,-1,0,-1,1031,4,-1540
458,5.167757,-1,0,1,1035,5,-1541
459,5.179339,-1,0,-2,1034,0,-1548
460,5.190914,2,-2,2,1034,1,-1547
461,5.20249,2,1,0,1032,0,-1543
462,5.214027,0,-2,0,1034,1,-1540
463,5.225579,-1,-1,2,1029,0,-1550
464,5.237136,-1,1,2,1032,-1,-1547
465,5.248757,0,0,1,1028,-1,-1535
466,5.26042,2,1,0,1031,-1,-1540
467,5.272062,1,0,0,1032,-2,-1541
468,5.28373,0,-1,1,1034,1,-1548
469,5.295407,1,0,1,1030,4,-1536
470,5.307078,-1,2,4,1028,2,-1545
471,5.318731,1,1,2,1033,0,-1543
472,5.330403,0,1,1,1031,-1,-1539
473,5.342055,1,2,1,1033,0,-1546
474,5.353708,1,0,0,1032,3,-1536
475,5.365273,0,1,-1,1033,-2,-1544
476,5.376847,-1,0,1,1031,-1,-1541
477,5.388411,0,0,0,1035,1,-1543
478,5.399986,0,-2,2,1031,-2,-1542
479,5.411527,-1,-1,1,1031,-3,-1545
480,5.423118,0,1,1,1033,-3,-1543
481,5.434681,1,0,0,1034,-3,-1543
482,5.446246,0,-2,0,1036,-4,-1544
483,5.457879,-2,-1,-1,1033,1,-1544
484,5.469537,0,-2,0,1031,-3,-1540
485,5.481187,1,1,1,1032,-1,-1539
486,5.492861,1,2,2,1031,-3,-1546
487,5.504515,-1,-1,1,1034,-1,-1537
488,5.516167,-1,-1,0,1030,0,-1538
489,5.527856,1,1,2,1029,0,-1545
490,5.539557,1,0,1,1033,-3,-1542
491,5.551241,-1,1,-1,1033,2,-1536
492,5.56291,1,-1,1,1033,0,-1538
493,5.574491,1,2,-2,1033,-1,-1544
494,5.586031,1,1,0,1032,-2,-1547
495,5.597582,-1,0,1,1032,-1,-1542
496,5.609129,-1,-2,1,1036,2,-1543
497,5.620671,-1,0,-2,1035,-2,-1541
498,5.632216,1,1,2,1031,2,-1550
499,5.643758,-1,-1,0,1036,1,-1546
500,5.655357,-1,0,0,1035,-3,-1541
501,5.667004,-1,1,2,1034,1,-1539
502,5.678703,0,1,2,1033,0,-1535
503,5.690328,0,0,1,1031,0,-1539
504,5.701978,1,0,0,1027,0,-1542
505,5.713649,-1,0,1,1034,0,-1539
506,5.725297,1,0,3,1031,0,-1544
507,5.736943,1,0,1,1031,0,-1542
508,5.748601,0,1,1,1033,0,-1548
509,5.760283,3,-2,3,1031,-1,-1539
510,5.771937,-1,0,1,1034,0,-1540
511,5.783601,0,0,0,1031,0,-1539
512,5.795294,0,1,1,1033,-3,-1539
513,5.806968,-1,3,1,1034,-2,-1547
514,5.818584,1,1,2,1031,0,-1546
515,5.830228,0,0,-1,1029,0,-1545
516,5.841893,1,0,1,1034,0,-1543
517,5.853545,0,1,2,1033,1,-1546
518,5.865293,-1,0,1,1029,-1,-1543
519,5.876968,2,-2,2,1033,-2,-1543
520,5.888524,-1,0,0,1032,-1,-1545
521,5.900101,1,1,3,1033,0,-1542
522,5.911658,0,-1,2,1032,0,-1541
523,5.923232,-2,2,1,1032,0,-1539
524,5.934792,1,0,1,1030,-2,-1545
525,5.946312,3,-1,2,1036,-3,-1535
526,5.95786,-1,2,0,1032,0,-1544
527,5.969415,0,2,0,1031,0,-1542
528,5.981032,2,1,0,1035,-2,-1538
529,5.992684,-1,-1,0,1039,0,-1542
530,6.004331,0,-1,2,1031,0,-1536
531,6.01599,1,-2,2,1032,-5,-1544
532,6.027609,1,1,-1,1034,0,-1541
533,6.039294,1,-1,0,1031,0,-1542
534,6.050971,0,0,1,1031,0,-1543
535,6.062651,2,0,2,1031,-1,-1541
536,6.074339,0,-1,0,1034,-4,-1543
537,6.08604,2,1,2,1032,-5,-1539
538,6.097611,1,1,3,1031,0,-1544
539,6.109159,1,-1,0,1031,0,-1545
540,6.120715,-1,0,0,1032,0,-1546
541,6.132276,2,-1,1,1031,-2,-1543
542,6.143821,-1,0,-2,1033,-4,-1537
543,6.155403,1,-1,3,1032,0,-1543
544,6.166993,0,2,-1,1031,1,-1541
545,6.178573,-2,0,0,1030,-2,-1543
546,6.190188,1,0,2,1031,-3,-1544
547,6.201852,2,1,1,1034,0,-1538
548,6.213505,1,0,2,1034,3,-1537
549,6.225166,1,0,0,1033,0,-1540
550,6.236841,-1,0,0,1031,-1,-1545
551,6.248492,0,-1,1,1034,2,-1543
552,6.260143,-2,0,0,1031,-2,-1540
553,6.271806,0,0,0,1036,0,-1544
554,6.283488,0,0,2,1033,1,-1542
555,6.295151,1,2,2,1033,0,-1541
556,6.306736,2,0,0,1032,0,-1542
557,6.318305,0,-1,3,1032,0,-1540
558,6.329857,0,1,2,1032,-2,-1536
559,6.341402,2,3,2,1029,-4,-1535
560,6.352945,-1,0,0,1034,-2,-1547
561,6.3645,0,1,2,1033,0,-1542
562,6.376076,-1,-1,2,1031,-3,-1543
563,6.387653,-2,1,0,1031,0,-1545
564,6.399286,2,-1,-1,1034,-2,-1542
565,6.41096,0,0,1,1031,-1,-1541
566,6.422585,1,1,1,1035,2,-1542
567,6.434252,-1,0,-1,1034,1,-1536
568,6.445908,-1,1,1,1030,0,-1545
569,6.457555,1,1,4,1030,-2,-1547
570,6.469205,1,0,1,1031,0,-1546
571,6.480873,0,1,-1,1032,-1,-1540
572,6.492522,-1,-1,1,1034,0,-1541
573,6.504098,1,0,0,1031,-1,-1538
574,6.51566,-1,-1,1,1031,0,-1539
575,6.527244,1,1,4,1034,3,-1541
576,6.538801,0,1,1,1032,0,-1542
577,6.550361,0,-1,0,1031,-1,-1542
578,6.561906,0,1,2,1030,0,-1546
579,6.57345,0,0,1,1033,-3,-1543
580,6.584995,-1,1,0,1032,-1,-1544
581,6.596551,0,-2,1,1031,0,-1543
582,6.608191,2,0,0,1031,0,-1542
583,6.619898,1,0,0,1032,0,-1549
584,6.631554,0,0,1,1031,-3,-1536
585,6.643227,1,-2,2,1033,-2,-1537
586,6.654908,0,0,0,1033,0,-1538
587,6.66659,1,-1,0,1032,2,-1547
588,6.678236,0,0,3,1029,1,-1541
589,6.689912,2,1,1,1032,0,-1546
590,6.701581,-1,-2,1,1035,0,-1542
591,6.713238,0,-3,1,1034,0,-1541
592,6.724824,-1,-1,0,1026,-1,-1544
593,6.736385,1,1,2,1029,0,-1542
594,6.747964,1,0,3,1033,1,-1544
595,6.759519,3,-2,3,1034,-2,-1539
596,6.771038,0,-1,1,1032,1,-1545
597,6.782555,1,0,1,1033,1,-1547
598,6.794102,1,2,2,1037,2,-1544
599,6.805663,0,0,1,1034,0,-1540
600,6.817278,-1,0,2,1029,-2,-1546
601,6.828932,-1,-1,2,1031,-2,-1543
602,6.840576,-2,-1,0,1030,1,-1547
603,6.85223,1,1,0,1031,1,-1544
604,6.863901,1,-1,1,1031,3,-1542
605,6.875575,-1,0,0,1031,0,-1540
606,6.887255,1,2,-1,1032,0,-1541
607,6.898951,-1,-2,2,1034,-1,-1546
608,6.91065,2,1,0,1032,4,-1546
609,6.922305,0,2,1,1029,1,-1541
610,6.933862,2,-2,-1,1031,-1,-1542
611,6.945411,1,-2,1,1032,3,-1549
612,6.956962,-1,1,0,1033,0,-1540
613,6.968514,1,1,0,1033,0,-1534
614,6.980113,1,1,1,1032,-2,-1540
615,6.991695,0,2,2,1036,2,-1539
616,7.003264,0,-1,3,1032,1,-1541
617,7.01481,0,2,2,1030,0,-1543
618,7.026452,2,2,2,1028,-1,-1541
619,7.038099,-1,0,0,1034,-2,-1541
620,7.049747,-1,0,1,1035,-4,-1548
621,7.061429,0,0,0,1032,0,-1541
622,7.073202,3,1,1,1028,0,-1540
623,7.084879,1,1,1,1033,-1,-1544
624,7.09653,0,1,2,1032,0,-1538
625,7.108185,-1,0,4,1032,-1,-1545
626,7.119894,-1,-1,-1,1032,-5,-1540
627,7.131599,-1,2,-1,1031,-2,-1543
628,7.143162,1,2,0,1031,-1,-1543
629,7.154728,-1,0,1,1031,0,-1545
630,7.166268,-2,0,1,1033,1,-1537
631,7.177812,-1,1,1,1030,-3,-1544
632,7.189358,0,0,3,1033,1,-1539
633,7.200897,1,0,2,1033,-2,-1538
634,7.212439,1,0,0,1031,-1,-1545
635,7.224001,1,0,4,1033,2,-1545
636,7.235606,0,0,-1,1034,-3,-1550
637,7.247273,0,0,-2,1031,-3,-1543
638,7.258959,-1,-1,-1,1035,-1,-1538
639,7.270655,0,1,0,1032,1,-1543
640,7.282326,-1,-1,0,1033,-2,-1539
641,7.293987,1,-1,0,1034,-3,-1540
642,7.305647,0,-1,2,1038,1,-1535
643,7.317291,2,0,1,1034,1,-1542
644,7.328936,0,0,2,1033,3,-1542
645,7.340602,0,2,2,1031,0,-1538
646,7.352288,2,1,0,1034,0,-1543
647,7.36394,0,-2,2,1031,2,-1542
648,7.37563,1,-1,2,1035,0,-1542
649,7.387284,0,0,0,1031,-1,-1533
650,7.39896,0,0,1,1035,3,-1553
651,7.410636,0,-1,0,1032,-5,-1537
652,7.422304,-1,0,0,1032,-1,-1541
653,7.433965,0,4,3,1035,3,-1535
654,7.44564,0,1,2,1031,0,-1543
655,7.457289,-1,0,1,1030,0,-1542
656,7.468937,-1,0,1,1033,0,-1540
657,7.480605,1,0,1,1034,0,-1541
658,7.492269,0,-1,2,1031,1,-1537
659,7.503919,-2,2,2,1030,0,-1533
660,7.51562,0,-1,1,1031,0,-1546
661,7.527279,0,-2,1,1031,0,-1548
662,7.538986,1,-2,1,1036,0,-1541
663,7.550654,-1,1,1,1032,-3,-1539
664,7.562316,1,0,0,1030,-1,-1543
665,7.573981,1,-1,1,1035,0,-1543
666,7.58564,0,-1,2,1035,0,-1547
667,7.597285,0,2,2,1032,-1,-1542
668,7.608933,2,-1,2,1033,4,-1543
669,7.620574,2,1,2,1027,1,-1546
670,7.632225,0,0,0,1031,2,-1548
671,7.643948,1,0,-1,1034,-1,-1544
672,7.655619,0,1,1,1032,-1,-1545
673,7.667286,-2,-1,1,1029,0,-1532
674,7.678984,-1,1,2,1030,2,-1541
675,7.69064,2,2,3,1034,-1,-1547
676,7.702312,0,-1,1,1034,-3,-1539
677,7.713966,1,-1,2,1035,0,-1540
678,7.725645,-2,1,2,1028,0,-1540
679,7.737291,1,1,2,1031,1,-1542
680,7.748957,-2,0,-1,1034,0,-1545
681,7.760616,0,0,0,1034,-2,-1543
682,7.772271,0,0,-1,1034,1,-1542
683,7.783919,2,0,1,1031,-2,-1533
684,7.795594,0,1,0,1034,-3,-1541
685,7.80726,-1,0,1,1034,0,-1540
686,7.818915,-2,0,-1,1029,-3,-1540
687,7.830592,-1,1,1,1034,-3,-1542
688,7.84226,1,2,-2,1031,-1,-1543
689,7.85394,1,-1,2,1031,0,-1533
690,7.865611,1,-2,1,1034,0,-1540
691,7.877265,1,2,2,1029,0,-1540
692,7.888913,1,-1,1,1033,1,-1540
693,7.900564,-1,1,-3,1036,3,-1544
694,7.912257,2,0,1,1032,-4,-1544
695,7.92391,1,1,3,1036,1,-1542
696,7.935597,-1,-2,1,1032,0,-1540
697,7.947278,3,1,2,1034,0,-1541
698,7.958957,0,1,1,1030,0,-1543
699,7.970678,1,-2,-1,1032,0,-1537
700,7.982233,0,1,2,1035,0,-1545
701,7.99379,-1,1,1,1032,0,-1538
702,8.005343,-1,1,2,1028,0,-1546
703,8.016917,-1,1,1,1036,-8,-1538
704,8.028466,1,1,1,1031,0,-1546
705,8.040056,2,-1,-1,1030,-1,-1544
706,8.05187,1,2,0,1036,-5,-1552
707,8.063574,0,1,2,1033,1,-1547
708,8.075321,0,0,1,1031,-1,-1541
709,8.087049,-1,-1,1,1031,-2,-1547
710,8.098722,1,-1,1,1034,0,-1541
711,8.1104,-1,-1,0,1035,0,-1537
712,8.122049,-1,1,-1,1029,0,-1545
713,8.133703,2,-1,3,1033,0,-1541
714,8.145374,-1,0,0,1032,0,-1539
715,8.157022,1,1,1,1033,0,-1546
716,8.168685,1,1,1,1032,0,-1543
717,8.180386,2,1,1,1032,-2,-1541
718,8.191968,1,1,2,1031,-2,-1540
719,8.203528,-1,1,2,1029,0,-1538
720,8.215091,1,1,1,1037,-5,-1543
721,8.226643,0,2,2,1034,-1,-1532
722,8.238189,-1,0,1,1031,-1,-1538
723,8.249731,-1,-1,1,1029,-1,-1537
724,8.26131,0,-1,1,1031,-3,-1543
725,8.272874,0,-1,0,1032,0,-1544
726,8.284511,2,-1,2,1032,2,-1546
727,8.29617,1,1,0,1034,-1,-1540
728,8.307841,1,1,0,1031,1,-1544
729,8.31951,1,0,-1,1035,0,-1546
730,8.331169,1,0,1,1032,2,-1539
731,8.342849,0,1,0,1031,-3,-1543
732,8.354517,0,-1,2,1033,-2,-1540
733,8.36617,-1,0,3,1032,-1,-1541
734,8.377851,-1,-1,1,1033,-2,-1540
735,8.389473,0,0,0,1034,0,-1539
736,8.401059,1,0,-2,1031,0,-1538
737,8.412608,0,1,0,1032,0,-1533
738,8.424156,0,0,-1,1031,2,-1547
739,8.435711,1,2,-1,1032,3,-1550
740,8.447305,-1,0,1,1036,-3,-1544
741,8.458893,-1,-1,0,1032,2,-1538
742,8.470485,-2,0,-1,1033,0,-1540
743,8.482077,0,0,1,1036,-1,-1543
744,8.493691,0,0,0,1031,0,-1543
745,8.50536,2,-3,1,1034,0,-1535
746,8.517018,-1,-1,2,1033,0,-1540
747,8.528671,0,-1,-1,1035,1,-1544
748,8.540337,0,2,2,1031,0,-1541
749,8.552021,0,0,1,1034,2,-1543
750,8.56367,-2,1,1,1031,1,-1535
751,8.575376,2,3,-1,1032,1,-1549
752,8.587026,1,-1,1,1032,-1,-1544
753,8.598544,0,0,1,1032,0,-1541
754,8.610095,0,0,1,1034,1,-1543
755,8.62165,2,-1,2,1033,1,-1536
756,8.633207,1,0,1,1033,1,-1547
757,8.64475,0,0,2,1031,0,-1542
758,8.656291,-1,0,1,1031,2,-1543
759,8.667839,0,1,1,1034,-5,-1543
760,8.679403,2,1,3,1035,-2,-1543
761,8.690982,-1,-1,0,1032,-2,-1546
762,8.702687,2,0,1,1035,0,-1546
763,8.714379,1,-3,1,1033,0,-1540
764,8.726029,-1,0,2,1035,-2,-1535
765,8.737684,0,0,0,1031,0,-1545
766,8.749391,0,1,-3,1031,0,-1539
767,8.761037,-1,1,-1,1029,-3,-1542
768,8.772683,0,-1,0,1031,-1,-1541
769,8.784354,0,0,2,1030,1,-1541
770,8.796021,0,1,1,1033,0,-1541
771,8.807717,0,1,-1,1034,1,-1547
772,8.819288,1,-2,1,1034,0,-1545
773,8.830865,-1,-1,1,1032,-3,-1542
774,8.842434,1,-1,3,1031,2,-1538
775,8.853993,2,1,-1,1032,0,-1543
776,8.865577,-2,0,2,1031,-3,-1534
777,8.877124,0,1,0,1033,1,-1546
778,8.888667,-1,1,0,1036,-1,-1543
779,8.900245,0,3,-1,1032,-1,-1543
780,8.911873,1,-1,1,1030,0,-1543
781,8.923535,0,0,2,1035,0,-1542
782,8.935244,-1,1,1,1031,0,-1539
783,8.946894,2,1,1,1033,4,-1542
784,8.958596,-1,-1,0,1031,0,-1550
785,8.970262,-1,-2,-1,1030,-2,-1538
786,8.981904,0,0,1,1032,-2,-1540
787,8.993556,0,0,2,1032,4,-1541
788,9.005237,1,-2,-1,1031,-2,-1541
789,9.01689,-2,1,1,1031,0,-1541
790,9.028463,0,-1,1,1033,0,-1547
791,9.040006,-1,0,1,1033,2,-1546
792,9.051519,1,-1,0,1031,0,-1541
793,9.063045,1,0,3,1030,1,-1544
794,9.074604,0,1,1,1030,1,-1539
795,9.086149,1,0,0,1031,-3,-1538
796,9.097692,1,0,0,1027,-2,-1547
797,9.109246,1,0,2,1035,0,-1544
798,9.120901,1,0,0,1032,-4,-1540
799,9.132552,1,0,2,1029,-2,-1550
800,9.144228,-1,2,0,1034,0,-1541
801,9.155891,1,0,2,1032,0,-1548
802,9.16754,0,0,2,1035,-3,-1538
803,9.179216,0,0,1,1034,0,-1534
804,9.190892,2,1,2,1029,0,-1540
805,9.202583,1,0,1,1033,-3,-1542
806,9.214254,2,0,1,1036,3,-1542
807,9.225913,0,-1,0,1032,0,-1542
808,9.237469,1,0,-1,1031,-1,-1543
809,9.249017,0,1,1,1033,-4,-1540
810,9.260581,0,1,0,1028,1,-1543
811,9.272144,2,1,4,1031,-4,-1541
812,9.283709,0,-1,2,1033,-4,-1544
813,9.29528,2,2,1,1032,-3,-1538
814,9.3068,1,1,-1,1032,5,-1541
815,9.318318,-1,0,3,1031,0,-1540
816,9.329997,1,1,0,1034,-1,-1539
817,9.341646,0,-1,-1,1030,1,-1543
818,9.353301,-1,0,0,1035,0,-1544
819,9.364949,1,-1,0,1031,-3,-1544
820,9.376615,1,-1,1,1034,0,-1543
821,9.388264,1,-1,1,1033,0,-1542
822,9.399901,-1,-3,1,1033,-3,-1542
823,9.411551,0,-1,0,1035,0,-1544
824,9.423253,0,1,1,1035,-3,-1539
825,9.434823,0,0,-2,1032,0,-1540
826,9.446395,-1,-2,2,1035,0,-1541
827,9.457957,0,0,2,1027,1,-1543
828,9.469508,0,0,0,1033,0,-1546
829,9.481081,1,-2,0,1034,1,-1539
830,9.492645,2,0,1,1030,0,-1543
831,9.504222,2,0,1,1031,-1,-1543
832,9.51579,0,1,2,1031,-2,-1541
833,9.527367,-1,1,2,1032,0,-1543
834,9.539027,0,1,2,1034,0,-1546
835,9.550732,1,2,-1,1031,0,-1541
836,9.562385,-1,1,4,1033,0,-1541
837,9.574054,-2,2,1,1033,0,-1537
838,9.585729,2,1,0,1032,0,-1545
839,9.597373,0,-1,0,1030,0,-1539
840,9.60902,0,0,0,1032,-2,-1543
841,9.620676,0,-1,1,1033,0,-1542
842,9.632342,1,-1,2,1029,-2,-1540
843,9.64401,-1,0,1,1035,-3,-1542
844,9.655659,0,-1,2,1030,0,-1541
845,9.667369,0,-1,1,1033,-1,-1544
846,9.679029,1,1,-1,1032,0,-1544
847,9.690709,2,0,1,1030,-1,-1542
848,9.702384,-1,-1,0,1032,-1,-1541
849,9.714039,0,0,3,1033,0,-1549
850,9.725742,-1,2,1,1031,0,-1540
851,9.737412,0,0,0,1036,0,-1542
852,9.74896,-1,-2,1,1035,-1,-1543
853,9.760505,-1,1,0,1035,3,-1546
854,9.772047,-1,1,3,1034,0,-1528
855,9.783603,1,0,1,1031,0,-1538
856,9.795202,1,-1,0,1029,-2,-1544
857,9.806777,1,0,0,1029,0,-1545
858,9.818317,-2,0,0,1031,-2,-1541
859,9.829866,1,2,0,1034,-1,-1536
860,9.841492,2,1,2,1030,-2,-1543
861,9.853145,1,0,1,1031,2,-1540
862,9.864845,-1,-1,3,1031,-1,-1547
863,9.876504,0,3,0,1035,0,-1537
864,9.888152,-1,1,0,1036,-4,-1545
865,9.899805,1,0,1,1031,0,-1536
866,9.91148,1,0,1,1031,2,-1542
867,9.923133,1,-1,2,1029,-4,-1538
868,9.934831,-2,1,1,1031,-1,-1538
869,9.946511,1,-1,-1,1036,3,-1541
870,9.95809,0,-1,1,1032,-3,-1541
871,9.969644,-1,0,1,1034,-1,-1540
872,9.981194,0,-1,0,1030,-5,-1547
873,9.992751,0,0,1,1031,-2,-1543
874,10.004322,0,0,1,1032,-1,-1548
875,10.015873,1,0,1,1031,0,-1545
876,10.027447,1,0,0,1035,-6,-1542
877,10.039039,-1,2,0,1035,2,-1545
878,10.05075,-2,0,0,1029,-1,-1539
879,10.062441,0,0,0,1027,-2,-1545
880,10.074119,0,0,1,1032,1,-1546
881,10.085769,1,1,0,1031,0,-1535
882,10.097416,0,3,0,1031,-3,-1544
883,10.109092,-1,0,1,1033,0,-1538
884,10.120751,0,1,1,1030,0,-1542
885,10.132402,2,-2,0,1038,2,-1547
886,10.144044,0,2,0,1031,2,-1543
887,10.155598,0,0,2,1032,2,-1547
888,10.167193,1,-3,2,1035,-1,-1540
889,10.178739,-1,1,1,1031,0,-1540
890,10.190306,1,0,4,1030,2,-1547
891,10.201853,0,0,0,1028,2,-1539
892,10.213398,-2,0,0,1033,-1,-1545
893,10.224947,-1,-1,-1,1034,0,-1534
894,10.236573,1,0,-2,1031,1,-1542
895,10.248237,2,-1,2,1030,-1,-1542
896,10.259896,1,2,2,1031,-2,-1546
897,10.271541,0,2,0,1034,0,-1541
898,10.283214,1,0,2,1028,-3,-1545
899,10.294887,1,1,0,1030,-2,-1537
900,10.306578,0,-2,1,1029,-4,-1550
901,10.318256,0,-1,2,1031,1,-1544
902,10.329908,-1,-1,2,1032,0,-1534
903,10.341567,1,0,2,1031,-1,-1541
904,10.353254,-1,1,0,1034,-5,-1545
905,10.364828,1,-2,0,1034,4,-1544
906,10.376373,1,-1,4,1032,0,-1544
907,10.387945,0,-1,0,1036,2,-1531
908,10.399526,0,-1,4,1034,-1,-1536
909,10.411086,0,1,3,1032,-2,-1540
910,10.422637,-1,0,1,1031,-1,-1543
911,10.434183,1,2,2,1035,1,-1535
912,10.445741,0,0,1,1028,2,-1541
913,10.457371,0,-1,-1,1035,-3,-1540
914,10.46902,1,1,1,1030,-3,-1544
915,10.48067,0,1,1,1031,-1,-1540
916,10.49231,0,1,1,1030,-1,-1539
917,10.503955,0,1,-1,1033,0,-1546
918,10.515623,1,0,-1,1030,-1,-1543
919,10.527278,-1,0,0,1032,0,-1537
920,10.538957,0,1,0,1034,-1,-1545
921,10.550641,1,0,2,1033,-2,-1539
922,10.562319,1,-1,2,1032,1,-1545
923,10.573929,0,0,2,1031,-1,-1537
924,10.58549,2,2,1,1033,1,-1543
925,10.597068,-1,-2,1,1032,1,-1539
926,10.608639,1,1,0,1033,-2,-1538
927,10.620186,2,-1,4,1031,1,-1541
928,10.631779,0,-1,0,1029,0,-1544
929,10.643333,1,0,1,1028,-3,-1543
930,10.654886,-1,0,1,1029,-1,-1553
931,10.66651,-2,1,2,1030,1,-1542
932,10.678159,1,-1,0,1035,0,-1541
933,10.689833,2,1,2,1029,0,-1548
934,10.701508,-1,1,1,1032,-3,-1542
935,10.713154,1,0,0,1034,2,-1538
936,10.724804,1,3,1,1036,0,-1551
937,10.736478,-1,0,2,1032,0,-1539
938,10.748125,1,-1,1,1033,0,-1543
939,10.759797,0,0,1,1034,-3,-1546
940,10.771459,0,-2,1,1031,-6,-1546
941,10.783059,0,2,1,1035,1,-1541
942,10.794616,1,1,0,1031,1,-1547
943,10.806182,0,2,1,1031,0,-1543
944,10.817726,1,-2,1,1035,0,-1543
945,10.829283,-2,0,2,1030,1,-1540
946,10.840834,0,2,0,1033,0,-1540
947,10.852378,1,0,0,1030,-3,-1544
948,10.863932,1,-2,2,1036,1,-1542
949,10.875634,0,4,1,1029,2,-1540
950,10.887297,2,1,0,1032,0,-1539
951,10.898996,-2,1,-1,1033,2,-1541
952,10.910657,1,1,2,1035,0,-1543
953,10.922327,-2,0,2,1036,0,-1543
954,10.933985,-1,1,-1,1031,0,-1540
955,10.945637,2,0,1,1032,-2,-1545
956,10.957292,2,0,0,1032,-2,-1547
957,10.968978,1,-3,1,1028,3,-1539
958,10.980635,-1,-3,-2,1031,0,-1545
959,10.992285,-1,-2,0,1030,-1,-1542
960,11.003957,2,2,1,1030,1,-1545
961,11.015623,2,-3,0,1027,0,-1542
962,11.027289,-1,0,3,1030,2,-1544
963,11.038995,0,0,1,1031,0,-1539
964,11.050675,1,1,3,1033,0,-1536
965,11.062331,-1,2,1,1031,0,-1545
966,11.073996,0,1,-1,1035,-2,-1538
967,11.085547,1,0,-1,1031,-3,-1540
968,11.097098,0,-1,2,1036,0,-1543
969,11.108694,2,-3,1,1031,-3,-1532
970,11.120239,1,-1,0,1037,-1,-1542
971,11.131803,0,1,2,1029,3,-1538
972,11.143349,-1,0,-1,1034,0,-1548
973,11.154929,1,-2,1,1031,-3,-1542
974,11.166501,1,-2,3,1031,-3,-1547
975,11.178121,-1,-1,1,1033,0,-1544
976,11.189777,1,0,1,1031,2,-1550
977,11.201417,1,0,0,1032,0,-1537
978,11.213094,0,1,0,1035,-1,-1542
979,11.224747,0,1,2,1031,-5,-1545
980,11.236388,0,0,1,1031,0,-1539
981,11.248031,0,0,0,1034,0,-1537
982,11.259704,2,-2,3,1027,-4,-1543
983,11.271376,0,1,-1,1031,0,-1539
984,11.283045,1,2,2,1032,-2,-1535
985,11.294614,1,-1,2,1031,1,-1539
986,11.30616,-1,0,2,1029,0,-1543
987,11.317705,0,3,2,1031,-2,-1545
988,11.329286,0,-2,2,1035,0,-1542
989,11.340861,-1,1,1,1034,1,-1544
990,11.352431,-1,2,2,1034,-2,-1542
991,11.363971,1,-1,4,1031,-2,-1543
992,11.375542,2,1,1,1033,3,-1539
993,11.387167,1,1,2,1034,2,-1547
994,11.398848,-1,-1,2,1033,-1,-1540
995,11.410497,0,1,2,1032,2,-1541
996,11.42217,0,0,-1,1031,0,-1543
997,11.433843,3,0,0,1033,-1,-1543
998,11.445492,2,0,0,1033,-3,-1552
999,11.45714,0,0,3,1030,3,-1538
1000,11.468785,1,0,2,1031,0,-1539
1001,11.480472,0,-1,1,1030,-4,-1540
1002,11.492126,1,0,0,1033,0,-1544
1003,11.503691,0,1,1,1030,-5,-1540
1004,11.515298,-1,-3,1,1033,3,-1538
1005,11.526844,2,-1,3,1034,0,-1538
1006,11.538389,0,-1,1,1033,-2,-1538
1007,11.549935,0,-1,2,1033,-1,-1546
1008,11.561481,-1,0,0,1029,0,-1547
1009,11.573044,1,-1,2,1034,0,-1545
1010,11.584607,0,0,0,1032,1,-1540
1011,11.596247,0,0,-1,1032,0,-1537
1012,11.607905,1,-1,2,1030,0,-1540
1013,11.619602,1,2,1,1034,4,-1549
1014,11.631267,1,-1,2,1035,2,-1543
1015,11.642982,1,1,0,1031,-3,-1541
1016,11.654636,0,2,0,1034,0,-1541
1017,11.666328,0,0,2,1032,-3,-1540
1018,11.67799,0,1,0,1031,-3,-1548
1019,11.689656,-1,-1,1,1031,2,-1536
1020,11.701313,0,-1,3,1031,0,-1538
1021,11.712921,2,0,0,1032,3,-1540
1022,11.724464,-1,0,2,1031,2,-1542
1023,11.736003,0,-1,0,1034,-1,-1540
1024,11.747526,-2,1,1,1032,1,-1541
1025,11.759046,-2,1,2,1030,1,-1543
1026,11.770593,1,0,1,1031,2,-1537
1027,11.782135,1,2,0,1035,0,-1535
1028,11.7937,0,0,2,1033,-2,-1539
1029,11.805366,1,-1,3,1029,-3,-1543
1030,11.817014,2,-1,-1,1036,2,-1539
1031,11.828662,0,0,2,1035,-1,-1542
1032,11.840307,-1,0,2,1035,1,-1542
1033,11.851961,1,1,1,1034,-1,-1551
1034,11.86362,-2,1,1,1031,-3,-1540
1035,11.875271,-1,0,1,1033,1,-1539
1036,11.886915,0,0,2,1033,-2,-1547
1037,11.898587,1,-2,0,1036,2,-1535
1038,11.910241,1,1,0,1033,-1,-1537
1039,11.921893,1,0,3,1031,0,-1541
1040,11.933534,0,1,2,1031,0,-1548
1041,11.945178,1,-2,0,1029,2,-1542
1042,11.956849,1,-1,2,1029,0,-1543
1043,11.968493,1,0,1,1032,4,-1543
1044,11.980139,-1,-2,1,1033,-3,-1542
1045,11.991804,0,0,0,1030,-3,-1537
1046,12.00351,1,0,2,1032,-3,-1544
1047,12.015056,0,1,2,1032,-6,-1544
1048,12.026619,-1,0,1,1032,3,-1544
1049,12.038177,-1,-1,2,1032,-4,-1544
1050,12.049725,0,-1,2,1028,0,-1537
1051,12.061298,1,-2,1,1028,1,-1544
1052,12.072836,1,0,0,1032,1,-1540
1053,12.084399,-1,1,1,1031,-2,-1548
1054,12.095945,0,1,0,1031,2,-1541
1055,12.107597,0,-2,2,1031,0,-1538
1056,12.119257,0,2,-2,1030,-2,-1536
1057,12.130931,-1,0,-2,1030,2,-1541
1058,12.14259,1,1,1,1032,0,-1537
1059,12.154248,0,1,3,1031,-1,-1543
1060,12.165928,-2,-1,0,1034,0,-1542
1061,12.177601,1,2,1,1030,-1,-1540
1062,12.189255,0,0,1,1033,1,-1545
1063,12.200911,0,-1,1,1029,3,-1546
1064,12.21259,1,-1,1,1033,-1,-1542
1065,12.224175,0,1,1,1030,0,-1543
1066,12.235755,1,1,2,1033,0,-1538
1067,12.247285,0,-1,1,1029,3,-1544
1068,12.258807,0,-2,-1,1032,-3,-1539
1069,12.270357,-1,-1,1,1032,0,-1542
1070,12.281899,-1,-2,3,1034,-2,-1542
1071,12.293441,-1,2,0,1034,2,-1538
1072,12.305028,0,-2,-1,1032,-1,-1544
1073,12.316653,-1,-1,1,1032,-5,-1544
1074,12.328327,1,2,3,1029,0,-1542
1075,12.339976,1,1,3,1030,1,-1542
1076,12.351625,0,0,1,1027,0,-1546
1077,12.363287,0,2,0,1033,2,-1547
1078,12.374978,1,1,2,1029,4,-1544
1079,12.386637,-2,1,1,1034,0,-1545
1080,12.398324,0,0,0,1032,-1,-1540
1081,12.409986,0,-1,1,1035,0,-1542
1082,12.421642,0,-2,0,1034,3,-1536
1083,12.433193,0,-2,2,1033,2,-1540
1084,12.444763,2,1,2,1034,0,-1540
1085,12.456316,3,-1,-1,1034,0,-1542
1086,12.467861,0,1,-2,1032,0,-1538
1087,12.479421,0,-2,2,1031,0,-1534
1088,12.490976,0,0,1,1031,-1,-1544
1089,12.502562,1,-2,1,1032,2,-1538
1090,12.514127,-1,1,-1,1028,0,-1544
1091,12.525745,0,1,1,1034,3,-1542
1092,12.537425,0,0,0,1030,-1,-1544
1093,12.549091,0,1,2,1033,-4,-1543
1094,12.560736,0,-1,3,1032,1,-1542
1095,12.572387,-2,0,3,1036,2,-1538
1096,12.584026,0,-1,1,1029,-1,-1537
1097,12.59568,0,-1,2,1031,-2,-1543
1098,12.607359,-1,1,0,1029,1,-1539
1099,12.619024,0,2,2,1030,-1,-1542
1100,12.630716,1,1,2,1035,0,-1542
1101,12.642314,1,-1,1,1036,-2,-1541
1102,12.653865,-1,-1,2,1032,-2,-1541
1103,12.665417,1,0,1,1032,-2,-1543
1104,12.676967,-1,0,2,1032,-2,-1538
1105,12.688535,1,-1,1,1031,0,-1544
1106,12.700079,1,0,2,1031,1,-1542
1107,12.711649,-1,0,3,1028,0,-1547
1108,12.723214,1,0,1,1033,-3,-1537
1109,12.734875,0,1,1,1031,0,-1545
1110,12.746589,1,0,3,1033,0,-1549
1111,12.75824,2,1,1,1032,-6,-1536
1112,12.769878,0,-1,2,1031,0,-1548
1113,12.78153,1,0,0,1032,1,-1540
1114,12.793227,0,1,2,1034,2,-1538
1115,12.804876,1,0,-1,1030,0,-1546
1116,12.816569,-1,0,2,1031,-3,-1547
1117,12.828241,1,0,1,1032,4,-1545
1118,12.839906,1,0,0,1032,-2,-1545
1119,12.851458,0,-2,0,1034,-4,-1539
1120,12.863058,1,2,1,1028,0,-1537
1121,12.874608,0,0,0,1031,-2,-1537
1122,12.886152,1,1,1,1032,-1,-1540
1123,12.897699,1,0,2,1033,0,-1541
1124,12.909294,0,1,2,1031,-3,-1543
1125,12.920842,-1,0,1,1034,-2,-1543
1126,12.932466,0,-1,1,1031,0,-1541
1127,12.944091,0,1,1,1032,0,-1536
1128,12.955765,0,1,1,1032,-1,-1535
1129,12.967523,2,-2,2,1033,-2,-1538
1130,12.97919,0,-1,0,1031,-1,-1542
1131,12.990857,-1,0,1,1031,-3,-1542
1132,13.002515,0,1,-1,1032,3,-1543
1133,13.014165,0,0,-1,1035,-2,-1544
1134,13.025847,1,1,3,1032,0,-1547
1135,13.037515,1,2,0,1033,0,-1541
1136,13.04923,1,0,0,1035,3,-1543
1137,13.060817,-1,0,0,1034,-4,-1539
1138,13.07243,0,3,0,1031,1,-1546
1139,13.083997,1,0,1,1033,0,-1543
1140,13.095546,-2,0,0,1032,-2,-1536
1141,13.107104,0,0,1,1031,1,-1542
1142,13.118678,1,0,1,1033,1,-1543
1143,13.130223,2,2,2,1034,-1,-1540
1144,13.141782,0,0,1,1031,-2,-1536
1145,13.153326,2,1,-2,1036,0,-1547
1146,13.16487,0,0,0,1035,1,-1539
1147,13.176417,-1,0,2,1033,0,-1539
1148,13.188029,1,-1,0,1031,-2,-1550
1149,13.199583,0,0,0,1035,0,-1540
1150,13.211187,1,1,0,1031,0,-1539
1151,13.22283,0,-1,2,1035,0,-1543
1152,13.234379,0,1,1,1035,0,-1543
1153,13.246026,1,1,1,1032,0,-1542
1154,13.257699,0,1,1,1031,0,-1539
1155,13.269369,2,0,2,1030,-1,-1544
1156,13.281078,0,0,2,1035,-4,-1545
1157,13.292732,0,1,3,1033,1,-1542
1158,13.304382,1,1,0,1033,0,-1545
1159,13.316051,-1,2,1,1032,-3,-1544
1160,13.327734,0,2,2,1032,-1,-1541
1161,13.339358,1,0,1,1031,2,-1543
1162,13.351051,0,1,0,1032,-3,-1545
1163,13.362726,0,-1,0,1033,2,-1540
1164,13.374379,1,-1,-1,1032,-1,-1546
1165,13.386043,2,0,0,1034,-2,-1537
1166,13.397707,0,1,2,1032,1,-1542
1167,13.409356,1,1,0,1032,0,-1544
1168,13.420999,0,1,-2,1031,0,-1545
1169,13.43266,0,2,1,1036,1,-1540
1170,13.444304,0,2,0,1034,4,-1535
1171,13.455954,-1,1,2,1031,-4,-1542
1172,13.467639,-2,2,1,1029,-2,-1542
1173,13.479367,1,-1,1,1033,-2,-1541
1174,13.49103,-1,-1,1,1034,-1,-1539
1175,13.502717,1,2,0,1030,1,-1548
1176,13.514373,2,0,2,1033,1,-1543
1177,13.526034,2,0,0,1032,2,-1538
1178,13.537685,0,1,0,1033,1,-1543
1179,13.549354,0,1,0,1032,0,-1543
1180,13.561059,0,-1,0,1031,1,-1544
1181,13.572678,1,-2,0,1031,-1,-1541
1182,13.584242,1,2,1,1033,0,-1542
1183,13.595793,-1,0,0,1031,0,-1538
1184,13.607335,1,0,0,1031,-3,-1547
1185,13.618912,1,3,0,1032,-1,-1540
1186,13.630463,-2,1,2,1033,0,-1544
1187,13.642008,1,0,0,1032,3,-1547
1188,13.653583,2,1,-1,1031,0,-1543
1189,13.665188,0,-1,-2,1029,0,-1540
1190,13.676879,-1,-1,2,1029,2,-1544
1191,13.688545,-1,-1,0,1032,0,-1538
1192,13.700227,2,0,2,1030,-1,-1538
1193,13.71188,0,0,2,1031,0,-1542
1194,13.723552,0,1,0,1026,0,-1546
1195,13.735228,0,0,1,1032,-4,-1542
1196,13.746888,0,1,0,1032,0,-1539
1197,13.758581,-1,-2,-1,1038,0,-1545
1198,13.770245,-1,0,-1,1033,0,-1540
1199,13.781903,0,0,1,1029,2,-1543
1200,13.793459,0,-2,3,1032,-2,-1542
1201,13.805037,3,0,3,1036,0,-1541
1202,13.816579,1,0,2,1029,-5,-1546
1203,13.828123,-1,1,1,1032,3,-1541
1204,13.839681,1,1,0,1034,0,-1540
1205,13.851274,2,1,3,1031,-4,-1541
1206,13.86281,0,2,-2,1033,0,-1539
1207,13.874402,2,0,2,1032,0,-1541
1208,13.886032,2,0,3,1029,0,-1540
1209,13.897726,-1,2,2,1030,0,-1545
1210,13.909366,1,-1,1,1034,4,-1546
1211,13.921039,-2,1,1,1034,0,-1546
1212,13.932714,2,-1,1,1035,1,-1548
1213,13.944351,0,0,2,1031,-1,-1542
1214,13.955995,-2,1,2,1031,-1,-1545
1215,13.967624,0,0,-1,1028,0,-1546
1216,13.979389,0,1,-1,1029,-2,-1541
1217,13.991129,-1,-2,2,1032,1,-1538
1218,14.002827,0,-1,0,1032,0,-1538
1219,14.014522,1,1,2,1029,-1,-1544
1220,14.026175,1,2,2,1031,2,-1538
1221,14.037885,1,1,1,1029,0,-1540
1222,14.049875,2,-2,0,1034,-2,-1540
1223,14.061641,-1,2,1,1033,0,-1538
1224,14.073331,1,0,1,1036,-1,-1544
1225,14.084999,1,-2,3,1035,1,-1544
1226,14.096594,1,-1,-1,1033,-1,-1543
1227,14.108147,1,0,1,1031,0,-1540
1228,14.119703,1,3,1,1032,2,-1544
1229,14.13129,-1,0,1,1035,0,-1547
1230,14.142849,0,-2,1,1031,2,-1543
1231,14.15443,1,-1,1,1029,0,-1542
1232,14.165973,-1,-1,2,1034,0,-1534
1233,14.177528,0,1,2,1032,0,-1536
1234,14.189093,-1,1,3,1036,0,-1547
1235,14.200775,2,-1,0,1030,1,-1545
1236,14.212456,2,-2,1,1033,-1,-1533
1237,14.224111,2,-2,0,1034,-2,-1539
1238,14.235767,-1,0,0,1033,-3,-1542
1239,14.247425,-2,1,1,1031,1,-1536
1240,14.259102,1,0,-1,1031,2,-1538
1241,14.270752,0,2,0,1034,2,-1547
1242,14.282402,0,1,3,1036,0,-1538
1243,14.294134,0,2,1,1028,1,-1539
1244,14.305808,0,-1,2,1031,0,-1543
1245,14.317363,-1,-2,2,1030,1,-1538
1246,14.328912,1,2,0,1032,0,-1542
1247,14.340475,1,1,2,1029,-1,-1538
1248,14.352037,0,-2,2,1030,3,-1541
1249,14.363597,0,3,2,1032,-5,-1546
1250,14.375162,0,0,1,1035,0,-1548
1251,14.386737,1,-1,1,1033,3,-1540
1252,14.398321,0,0,1,1033,2,-1543
1253,14.409995,1,-1,0,1035,0,-1547
1254,14.421645,0,2,1,1032,-2,-1540
1255,14.433327,1,0,0,1036,-2,-1541
1256,14.444974,1,0,1,1033,1,-1544
1257,14.456626,-1,1,0,1032,0,-1540
1258,14.4683,1,-1,0,1033,-1,-1547
1259,14.47996,0,1,0,1033,-3,-1538
1260,14.491617,1,0,0,1032,-2,-1543
1261,14.503285,0,0,0,1031,0,-1544
1262,14.514966,0,1,1,1031,-1,-1544
1263,14.526556,1,0,1,1034,0,-1539
1264,14.538102,-1,0,0,1033,1,-1538
1265,14.549655,-2,1,1,1034,-2,-1540
1266,14.561204,0,-1,1,1030,0,-1539
1267,14.572772,2,1,3,1031,-3,-1548
1268,14.584338,0,0,2,1032,-3,-1546
1269,14.595907,0,-1,1,1032,0,-1549
1270,14.607476,1,0,-1,1033,0,-1544
1271,14.619093,2,-1,1,1033,-2,-1542
1272,14.630758,0,0,0,1029,-2,-1543
1273,14.642412,-2,2,1,1030,-2,-1544
1274,14.654064,1,3,-1,1034,2,-1539
1275,14.665758,1,0,0,1034,0,-1545
1276,14.677415,0,2,2,1035,-2,-1541
1277,14.689088,0,2,3,1032,0,-1547
1278,14.700745,1,1,1,1033,0,-1542
1279,14.712411,1,0,0,1031,0,-1541
1280,14.724092,1,1,1,1036,-1,-1540
1281,14.735658,0,0,2,1032,-1,-1547
1282,14.747225,0,1,0,1026,0,-1543
1283,14.758821,0,-1,2,1032,1,-1541
1284,14.770401,1,-1,0,1031,0,-1541
1285,14.781944,1,1,0,1037,3,-1541
1286,14.793496,1,-2,2,1030,0,-1540
1287,14.805042,0,-1,1,1032,0,-1538
1288,14.816598,0,0,1,1033,-1,-1541
1289,14.828238,2,-2,1,1029,-1,-1541
1290,14.83988,2,0,3,1033,-1,-1545
1291,14.851555,0,0,1,1033,4,-1547
1292,14.863225,1,1,1,1031,2,-1543
1293,14.874849,0,1,1,1029,0,-1543
1294,14.886502,1,1,1,1034,-4,-1543
1295,14.898167,1,1,0,1029,-2,-1546
1296,14.90983,0,-2,1,1031,0,-1548
1297,14.921487,-1,-1,1,1031,0,-1538
1298,14.933145,0,-1,0,1029,-2,-1544
1299,14.94471,1,-1,2,1031,1,-1547
1300,14.95628,0,-2,3,1030,-7,-1545
1301,14.967835,-1,-1,1,1029,-2,-1544
1302,14.979413,2,0,0,1028,0,-1548
1303,14.990976,2,0,0,1031,-2,-1545
1304,15.002557,1,0,0,1030,2,-1542
1305,15.014137,0,3,3,1032,0,-1545
1306,15.025699,1,0,0,1033,-2,-1545
1307,15.037417,-2,2,0,1035,-3,-1551
1308,15.049075,-1,1,0,1031,-2,-1537
1309,15.060732,2,-2,2,1030,-1,-1544
1310,15.072462,2,0,1,1038,-4,-1543
1311,15.08411,0,-1,0,1034,0,-1547
1312,15.095772,0,2,-1,1033,0,-1545
1313,15.107474,1,1,1,1035,0,-1540
1314,15.119096,2,3,0,1032,-2,-1541
1315,15.130797,3,-1,2,1037,2,-1540
1316,15.142474,1,1,2,1031,-3,-1544
1317,15.154035,1,2,1,1032,0,-1546
1318,15.165595,1,-2,1,1030,-1,-1545
1319,15.177151,0,-1,0,1029,-2,-1541
1320,15.18869,1,-1,1,1030,-3,-1531
1321,15.200235,1,0,0,1033,0,-1544
1322,15.211786,1,0,-1,1031,0,-1545
1323,15.223334,1,-1,-1,1031,-5,-1544
1324,15.23493,-1,1,2,1034,-2,-1542
1325,15.246586,0,3,1,1031,2,-1540
1326,15.258225,0,1,1,1031,0,-1539
1327,15.269874,-1,0,1,1032,-3,-1547
1328,15.281546,0,-2,1,1035,-5,-1537
1329,15.293201,2,-1,1,1032,-1,-1547
1330,15.304852,0,-1,1,1030,-5,-1542
1331,15.3165,1,2,0,1031,0,-1542
1332,15.328162,0,1,1,1033,1,-1542
1333,15.339858,0,0,2,1034,0,-1544
1334,15.351532,0,0,1,1031,-4,-1548
1335,15.363215,2,1,1,1034,-2,-1542
1336,15.374843,2,-2,3,1034,-2,-1540
1337,15.386497,1,1,2,1035,-2,-1546
1338,15.39816,-2,-1,1,1031,0,-1543
1339,15.409843,0,-1,1,1034,-1,-1543
1340,15.421486,0,0,3,1030,1,-1546
1341,15.433142,-2,-1,1,1033,0,-1536
1342,15.444836,2,2,-1,1031,-2,-1540
1343,15.456483,-2,1,2,1032,0,-1546
1344,15.468143,-1,1,1,1034,-1,-1545
1345,15.479789,1,0,1,1031,-1,-1540
1346,15.491474,0,2,1,1034,2,-1537
1347,15.50312,1,1,1,1031,3,-1543
1348,15.514789,1,0,1,1028,-1,-1545
1349,15.526456,1,0,0,1033,2,-1539
1350,15.538102,1,1,0,1033,0,-1548
1351,15.549762,1,0,2,1035,0,-1542
1352,15.561429,1,0,1,1030,0,-1546
1353,15.573083,0,0,0,1031,-2,-1542
1354,15.584732,1,1,2,1032,0,-1540
1355,15.596395,1,2,0,1036,-1,-1539
1356,15.608036,0,2,0,1034,0,-1540
1357,15.619696,2,-2,0,1031,2,-1545
1358,15.631354,1,1,-1,1034,-5,-1544
1359,15.643004,1,-1,3,1035,2,-1544
1360,15.654689,0,-1,1,1030,1,-1547
1361,15.666333,1,1,-1,1032,-2,-1547
1362,15.677974,2,0,-1,1034,-4,-1542
1363,15.68962,-1,2,1,1033,-1,-1540
1364,15.701289,1,1,3,1032,0,-1543
1365,15.712947,1,-2,3,1031,3,-1543
1366,15.724592,-1,2,-1,1035,-3,-1540
1367,15.736241,0,1,1,1031,-3,-1541
1368,15.747904,0,0,0,1034,-1,-1541
1369,15.759617,-1,0,2,1034,1,-1547
1370,15.771273,1,2,0,1032,-4,-1541
1371,15.782999,0,2,0,1030,-1,-1544
1372,15.794689,0,-2,2,1033,1,-1542
1373,15.806325,0,0,1,1035,2,-1550
1374,15.817969,1,0,2,1034,1,-1540
1375,15.829615,-1,-2,-1,1033,-6,-1543
1376,15.841255,0,1,1,1035,1,-1539
1377,15.852898,1,1,2,1031,1,-1542
1378,15.864564,1,0,2,1031,-2,-1537
1379,15.876136,-1,1,2,1031,0,-1542
1380,15.887696,1,2,1,1031,0,-1543
1381,15.899275,-1,0,0,1032,1,-1547
1382,15.910799,0,1,0,1031,-2,-1540
1383,15.922387,0,1,3,1030,3,-1546
1384,15.933925,-1,4,0,1035,0,-1544
1385,15.94548,1,2,-1,1033,0,-1539
1386,15.957031,0,2,4,1031,-2,-1534
1387,15.968586,1,1,-1,1033,-2,-1541
1388,15.980232,0,-1,1,1031,0,-1541
1389,15.99188,1,0,1,1035,-1,-1546
1390,16.003552,0,1,0,1032,-2,-1544
1391,16.01522,-1,2,1,1032,-2,-1542
1392,16.026886,1,-1,2,1030,0,-1539
1393,16.038568,1,3,-1,1033,-2,-1537
1394,16.050219,0,0,-1,1034,-1,-1538
1395,16.061868,-1,2,1,1029,0,-1539
1396,16.073523,1,2,2,1036,-3,-1535
1397,16.085212,1,0,1,1033,-2,-1543
1398,16.096833,-1,0,1,1031,-1,-1540
1399,16.108416,3,-1,3,1030,-1,-1540
1400,16.119985,2,1,1,1031,1,-1536
1401,16.131522,-1,2,2,1033,0,-1544
1402,16.143059,2,0,3,1031,-2,-1540
1403,16.154614,0,0,0,1030,-1,-1547
1404,16.16616,1,1,3,1033,-2,-1544
1405,16.177745,-1,-2,0,1029,0,-1545
1406,16.189372,-2,-1,1,1034,-1,-1536
1407,16.201055,1,1,2,1030,-1,-1539
1408,16.212713,1,2,0,1028,2,-1546
1409,16.224356,-2,1,0,1035,-2,-1540
1410,16.235999,1,-1,2,1035,-4,-1543
1411,16.247696,-1,0,1,1031,1,-1536
1412,16.25935,0,-1,2,1034,0,-1545
1413,16.271006,1,0,0,1031,0,-1543
1414,16.28268,1,0,1,1030,2,-1547
1415,16.294326,1,1,2,1032,0,-1545
1416,16.305877,1,-1,-1,1030,0,-1544
1417,16.317426,1,-1,0,1034,-2,-1549
1418,16.329002,1,0,1,1035,0,-1544
1419,16.340551,0,1,-1,1033,0,-1541
1420,16.352128,1,1,1,1031,-1,-1537
1421,16.363678,0,0,3,1030,0,-1545
1422,16.37525,1,3,1,1031,0,-1541
1423,16.386813,0,-1,1,1033,2,-1541
1424,16.39845,0,1,1,1031,0,-1543
1425,16.410101,1,1,1,1032,0,-1547
1426,16.421761,2,1,3,1031,1,-1544
1427,16.433425,-1,1,2,1031,-2,-1538
1428,16.445081,-1,1,1,1033,-2,-1545
1429,16.456736,-1,0,2,1034,4,-1540
1430,16.46838,0,0,0,1031,-1,-1544
1431,16.480027,2,-1,3,1031,-7,-1543
1432,16.491746,0,-3,1,1032,3,-1543
1433,16.503395,2,2,2,1031,-1,-1541
1434,16.515015,0,2,2,1035,-2,-1542
1435,16.526556,1,-2,0,1034,1,-1542
1436,16.538098,2,0,0,1031,0,-1542
1437,16.549641,0,0,-1,1032,-2,-1551
1438,16.561194,1,-3,2,1032,2,-1540
1439,16.572758,0,1,0,1031,-2,-1539
1440,16.584311,-1,1,1,1032,0,-1545
1441,16.595886,0,1,1,1030,3,-1537
1442,16.607505,0,0,0,1031,-2,-1548
1443,16.619198,-1,2,1,1033,-1,-1540
1444,16.630845,1,0,0,1029,0,-1544
1445,16.642516,-1,2,2,1031,2,-1535
1446,16.654184,1,1,0,1028,2,-1543
1447,16.665836,1,1,2,1036,-2,-1550
1448,16.677484,0,0,-2,1035,-5,-1545
1449,16.689145,0,1,0,1029,0,-1540
1450,16.700812,0,0,0,1032,0,-1545
1451,16.712458,1,1,2,1033,1,-1537
1452,16.724107,1,-1,0,1034,0,-1542
1453,16.735757,-1,-1,1,1032,-2,-1543
1454,16.747417,1,-2,1,1031,0,-1541
1455,16.759089,1,-1,0,1029,-2,-1543
1456,16.770736,1,0,2,1031,0,-1543
1457,16.782386,0,-3,4,1031,4,-1536
1458,16.794027,0,0,-1,1035,-1,-1543
1459,16.805712,3,-1,2,1029,0,-1542
1460,16.817366,1,2,2,1035,0,-1542
1461,16.829013,-1,0,1,1036,1,-1540
1462,16.840671,-1,2,2,1031,0,-1547
1463,16.852327,-1,1,3,1031,-2,-1548
1464,16.863969,0,1,0,1032,0,-1540
1465,16.875608,-1,0,3,1033,1,-1541
1466,16.887298,2,0,1,1032,0,-1540
1467,16.898965,-1,0,0,1032,3,-1541
1468,16.910596,0,-2,1,1030,0,-1548
1469,16.922323,0,-2,0,1032,1,-1544
1470,16.933891,0,1,0,1031,1,-1547
1471,16.945448,0,1,0,1035,1,-1546
1472,16.957014,1,1,1,1032,-1,-1539
1473,16.968557,0,0,1,1033,2,-1541
1474,16.980122,1,1,1,1031,1,-1549
1475,16.991676,0,3,2,1034,-2,-1539
1476,17.003269,0,0,0,1033,0,-1546
1477,17.014886,2,1,2,1032,0,-1541
1478,17.02653,0,1,1,1030,2,-1543
1479,17.038201,-1,-1,0,1031,0,-1541
1480,17.049859,-1,1,2,1032,-2,-1539
1481,17.061531,-1,1,0,1032,0,-1547
1482,17.073185,-1,0,1,1033,1,-1538
1483,17.084838,-1,1,2,1030,0,-1538
1484,17.096497,0,1,1,1032,-1,-1539
1485,17.108144,2,0,1,1031,0,-1548
1486,17.120004,0,1,3,1034,0,-1541
1487,17.131676,-1,0,2,1031,0,-1544
1488,17.143271,0,-1,0,1030,-5,-1536
1489,17.154797,0,0,-1,1028,1,-1539
1490,17.166314,1,1,1,1031,0,-1543
1491,17.177856,0,0,1,1028,0,-1542
1492,17.189398,1,2,1,1033,-1,-1538
1493,17.200976,1,1,1,1030,-2,-1535
1494,17.212526,0,0,0,1031,0,-1545
1495,17.2241,2,0,3,1031,0,-1542
1496,17.235793,1,1,2,1031,1,-1542
1497,17.247483,1,-3,3,1032,4,-1543
1498,17.259216,0,1,2,1037,-1,-1543
1499,17.270842,-2,-1,0,1033,0,-1543
1500,17.282509,0,1,2,1034,-3,-1540
1501,17.294176,-1,1,0,1030,0,-1539
1502,17.305834,2,1,0,1033,-1,-1543
1503,17.317483,-2,0,1,1033,-3,-1548
1504,17.329145,1,0,0,1030,0,-1550
1505,17.340808,0,0,-1,1032,2,-1540
1506,17.352388,1,0,1,1031,-1,-1542
1507,17.363933,0,0,2,1032,-3,-1539
1508,17.375516,1,1,1,1030,1,-1543
1509,17.387118,1,-1,1,1031,-1,-1542
1510,17.398683,0,1,2,1032,-4,-1545
1511,17.410249,0,2,1,1033,-1,-1545
1512,17.421788,0,1,2,1031,1,-1536
1513,17.433345,1,1,1,1032,0,-1543
1514,17.444963,-1,0,1,1033,2,-1547
1515,17.45662,-1,-1,1,1033,-1,-1545
1516,17.468301,0,0,3,1031,0,-1538
1517,17.479957,0,0,0,1031,1,-1541
1518,17.49161,0,-1,1,1030,0,-1545
1519,17.503269,1,1,2,1030,-1,-1538
1520,17.514966,0,0,2,1034,2,-1541
1521,17.526587,1,-1,0,1031,-1,-1545
1522,17.538247,0,0,0,1032,0,-1539
1523,17.549914,1,1,0,1034,-2,-1545
1524,17.561476,0,0,0,1033,0,-1545
1525,17.573032,1,-1,0,1033,0,-1539
1526,17.58458,1,4,1,1028,2,-1543
1527,17.596126,0,1,3,1037,2,-1539
1528,17.607682,0,-2,2,1031,1,-1538
1529,17.619261,-1,0,3,1034,-3,-1542
1530,17.630874,1,1,1,1030,1,-1541
1531,17.642449,-1,1,2,1032,-1,-1538
1532,17.654074,2,2,1,1034,-4,-1538
1533,17.665729,2,1,0,1029,-2,-1547
1534,17.677377,0,0,2,1031,0,-1543
1535,17.689051,1,-1,2,1032,1,-1543
1536,17.700701,0,1,-1,1031,0,-1538
1537,17.71235,0,-1,1,1033,-4,-1532
1538,17.724045,1,0,0,1031,-2,-1539
1539,17.735729,1,1,1,1031,0,-1539
1540,17.747352,2,1,0,1035,-2,-1551
1541,17.75891,-1,0,-1,1032,1,-1539
1542,17.770457,1,1,2,1029,0,-1545
1543,17.782007,1,-1,2,1032,0,-1545
1544,17.793548,0,0,2,1032,0,-1545
1545,17.805097,1,2,-2,1031,0,-1541
1546,17.816641,0,0,1,1030,0,-1541
1547,17.828184,3,-1,1,1031,4,-1536
1548,17.839763,0,1,2,1033,1,-1534
1549,17.851291,-1,-1,3,1030,0,-1543
1550,17.862919,2,-1,0,1031,-2,-1534
1551,17.874585,1,-1,1,1031,0,-1538
1552,17.886249,1,0,1,1034,0,-1536
1553,17.897918,2,-2,1,1033,-1,-1542
1554,17.909574,-1,-3,2,1034,0,-1537
1555,17.921226,1,1,2,1036,2,-1546
1556,17.932893,0,1,2,1032,0,-1535
1557,17.944547,1,0,2,1031,0,-1549
1558,17.956234,0,1,0,1036,-2,-1551
1559,17.967903,0,1,2,1033,3,-1543
1560,17.979476,0,1,0,1030,-2,-1533
1561,17.991047,1,-2,1,1030,-3,-1537
1562,18.002646,0,0,0,1031,0,-1540
1563,18.014211,1,0,1,1032,2,-1542
1564,18.025756,0,-2,1,1031,-2,-1549
1565,18.037301,0,0,2,1034,-2,-1544
1566,18.048876,0,0,2,1031,0,-1537
1567,18.060439,2,0,2,1030,1,-1546
1568,18.072099,0,-1,1,1031,0,-1543
1569,18.083762,0,2,2,1031,-1,-1542
1570,18.095497,0,0,1,1031,0,-1543
1571,18.107175,-1,0,2,1032,-3,-1545
1572,18.118842,-1,0,0,1035,-1,-1534
1573,18.130515,0,1,0,1030,1,-1536
1574,18.142179,-1,-1,3,1036,3,-1544
1575,18.153846,0,-1,-1,1032,0,-1536
1576,18.165495,0,0,1,1031,-1,-1536
1577,18.179083,1,-1,3,1031,0,-1544
1578,18.190684,2,-1,0,1032,-4,-1536
1579,18.202235,-1,1,2,1035,1,-1539
1580,18.213782,1,0,2,1033,-2,-1544
1581,18.225333,1,-1,1,1031,-4,-1537
1582,18.236878,1,1,2,1032,0,-1538
1583,18.24844,-1,0,2,1031,1,-1541
1584,18.26,1,0,1,1031,1,-1546
1585,18.271549,2,0,1,1031,0,-1536
1586,18.283123,-1,-1,2,1032,-3,-1545
1587,18.29468,0,1,1,1031,0,-1539
1588,18.306223,-1,1,1,1032,1,-1539
1589,18.317768,2,1,2,1032,0,-1543
1590,18.32935,1,1,-1,1031,-1,-1547
1591,18.340898,0,0,1,1032,1,-1545
1592,18.35244,0,0,1,1032,-3,-1543
1593,18.364022,-1,1,1,1031,-1,-1544
1594,18.375656,1,2,1,1031,0,-1540
1595,18.387307,-1,1,0,1033,0,-1543
1596,18.398993,0,1,0,1033,3,-1545
1597,18.410705,0,2,-2,1032,-2,-1543
1598,18.422328,1,0,1,1031,-2,-1540
1599,18.433975,1,1,-2,1033,-1,-1543
1600,18.44565,0,-1,0,1032,-4,-1543
1601,18.457295,1,-3,3,1031,0,-1542
1602,18.468969,1,1,1,1031,0,-1535
1603,18.480653,0,2,-1,1032,-2,-1541
1604,18.492307,0,-2,2,1031,0,-1543
1605,18.503958,0,-1,1,1036,1,-1538
1606,18.515631,-1,-1,2,1031,0,-1545
1607,18.527293,0,0,2,1035,1,-1547
1608,18.538962,1,-1,1,1032,1,-1539
1609,18.550583,-1,-1,1,1033,-1,-1539
1610,18.562225,0,1,1,1033,-1,-1540
1611,18.57387,0,-1,0,1032,0,-1546
1612,18.585561,1,1,2,1032,-2,-1541
1613,18.597215,0,-1,0,1031,-1,-1547
1614,18.608886,-1,-1,3,1030,-1,-1538
1615,18.620539,-2,-1,1,1029,-1,-1540
1616,18.632186,-1,1,1,1034,0,-1538
1617,18.643879,-1,2,3,1030,0,-1545
1618,18.655546,0,0,1,1029,3,-1547
1619,18.667218,-1,1,-1,1033,3,-1539
1620,18.678896,-1,1,0,1032,1,-1545
1621,18.690599,0,0,1,1029,0,-1542
1622,18.702308,1,0,3,1035,1,-1537
1623,18.713946,1,1,0,1032,0,-1543
1624,18.725591,-1,1,1,1033,3,-1537
1625,18.737274,0,0,1,1028,-1,-1538
1626,18.748924,2,-1,2,1034,0,-1539
1627,18.760568,0,-1,1,1030,0,-1538
1628,18.772219,1,-1,0,1027,1,-1535
1629,18.783881,0,1,3,1034,-2,-1542
1630,18.79556,1,-1,0,1031,4,-1546
1631,18.807254,2,0,1,1035,-2,-1543
1632,18.818913,1,-1,0,1032,-1,-1545
1633,18.830579,1,1,2,1030,-5,-1549
1634,18.842239,1,-1,1,1038,2,-1545
1635,18.853885,-1,1,1,1034,3,-1546
1636,18.865549,0,1,2,1032,-2,-1543
1637,18.877196,1,0,2,1032,0,-1543
1638,18.888846,-1,1,0,1031,-3,-1538
1639,18.900533,-1,-1,2,1031,0,-1546
1640,18.912186,2,1,3,1034,1,-1543
1641,18.923863,0,1,2,1033,-2,-1546
1642,18.935537,0,-1,3,1032,-1,-1546
1643,18.947208,1,-2,1,1032,0,-1541
1644,18.958843,0,-1,2,1034,1,-1541
1645,18.970521,1,0,2,1034,0,-1544
1646,18.982172,0,0,2,1032,-2,-1542
1647,18.993824,1,1,3,1030,2,-1541
1648,19.005494,1,2,3,1030,0,-1541
1649,19.01717,-1,1,0,1030,-1,-1540
1650,19.028747,0,2,3,1031,-2,-1542
1651,19.040296,0,0,0,1031,0,-1544
1652,19.051841,0,1,1,1031,0,-1546
1653,19.063404,-1,-1,1,1031,0,-1545
1654,19.074972,1,0,1,1031,-2,-1543
1655,19.086546,0,0,0,1027,-1,-1542
1656,19.098095,0,0,-1,1031,0,-1546
1657,19.109679,-1,0,0,1032,2,-1543
1658,19.121304,1,-1,0,1033,-2,-1544
1659,19.132957,1,0,1,1031,-1,-1539
1660,19.144645,1,0,2,1035,-1,-1544
1661,19.156313,-1,1,2,1032,0,-1539
1662,19.168118,-1,0,0,1029,-6,-1542
1663,19.179792,2,-1,1,1033,0,-1545
1664,19.191486,-1,0,-1,1032,0,-1535
1665,19.203165,-1,1,1,1032,-4,-1542
1666,19.214872,1,-1,3,1034,3,-1547
1667,19.226577,0,-1,2,1033,0,-1540
1668,19.23822,0,-1,1,1035,-1,-1540
1669,19.249869,-1,0,-1,1032,0,-1543
1670,19.261537,1,0,2,1030,1,-1541
1671,19.27318,3,-2,2,1032,0,-1545
1672,19.284826,-1,1,2,1036,0,-1539
1673,19.296498,1,-1,1,1029,-2,-1548
1674,19.308161,0,-1,2,1033,0,-1538
1675,19.319848,1,0,-1,1031,2,-1536
1676,19.33153,1,1,2,1031,-1,-1543
1677,19.343204,1,0,1,1034,-1,-1541
1678,19.354838,1,1,-1,1030,0,-1537
1679,19.366493,-1,0,-1,1030,0,-1546
1680,19.378147,-1,0,1,1032,0,-1545
1681,19.389799,1,0,0,1031,3,-1542
1682,19.401446,0,0,0,1031,-1,-1543
1683,19.41309,-1,0,1,1033,0,-1548
1684,19.424787,0,0,2,1032,-3,-1542
1685,19.436433,1,2,1,1035,-1,-1539
1686,19.448076,1,0,0,1032,0,-1539
1687,19.459764,2,-2,0,1036,0,-1541
1688,19.47142,1,-1,1,1033,2,-1541
1689,19.483114,0,1,0,1032,-1,-1545
1690,19.494815,1,-1,1,1031,0,-1543
1691,19.506471,1,1,1,1031,0,-1544
1692,19.518121,-1,3,2,1035,-3,-1541
1693,19.529795,-2,-2,-2,1031,-1,-1541
1694,19.541461,2,-1,1,1030,0,-1544
1695,19.553012,0,1,0,1034,3,-1549
1696,19.564553,0,-1,2,1033,0,-1543
1697,19.576107,1,1,2,1034,-3,-1535
1698,19.587682,0,3,1,1031,0,-1542
1699,19.59926,1,0,1,1033,-2,-1542
1700,19.610794,-1,2,0,1033,3,-1542
1701,19.622322,0,0,1,1033,-1,-1539
1702,19.633878,1,3,0,1033,0,-1538
1703,19.645542,3,0,3,1030,-1,-1537
1704,19.657198,1,-1,2,1031,-1,-1545
1705,19.668871,-2,0,0,1031,0,-1539
1706,19.680529,0,-1,0,1033,1,-1543
1707,19.692183,0,-1,0,1032,2,-1539
1708,19.703898,1,0,-2,1035,1,-1540
1709,19.715546,-1,-1,2,1033,0,-1539
1710,19.727216,-2,0,1,1033,-2,-1547
1711,19.738932,0,-1,0,1034,0,-1544
1712,19.750576,1,1,2,1031,-1,-1543
1713,19.762128,0,-1,2,1031,1,-1538
1714,19.773707,0,0,1,1032,2,-1545
1715,19.785263,0,0,2,1033,0,-1542
1716,19.796846,0,-1,-1,1033,0,-1545
1717,19.808393,1,1,3,1029,1,-1544
1718,19.819936,-1,1,3,1031,0,-1544
1719,19.831509,1,0,2,1032,0,-1538
1720,19.84305,-1,1,2,1032,-1,-1533
1721,19.854714,1,1,-1,1035,0,-1547
1722,19.866391,2,-1,1,1030,0,-1537
1723,19.878041,-1,0,2,1033,1,-1541
1724,19.889683,1,1,0,1031,0,-1540
1725,19.901333,1,0,-1,1035,4,-1542
1726,19.91297,0,1,0,1032,-1,-1541
1727,19.924617,-1,-1,2,1034,3,-1538
1728,19.936288,0,1,-1,1031,-3,-1539
1729,19.947941,1,1,2,1031,2,-1546
1730,19.959626,2,0,0,1031,-2,-1543
1731,19.971298,-1,0,1,1032,-3,-1543
1732,19.982966,-1,0,1,1034,-3,-1541
1733,19.994594,1,1,1,1031,3,-1547
1734,20.006271,0,-2,0,1031,1,-1548
1735,20.017916,-1,-1,1,1032,2,-1539
1736,20.029577,1,1,2,1030,0,-1542
1737,20.041271,2,1,2,1037,1,-1542
1738,20.052983,-1,0,2,1029,-1,-1546
1739,20.064536,2,2,1,1031,-3,-1541
1740,20.0761,-1,-2,1,1031,-2,-1534
1741,20.087656,0,1,2,1030,-4,-1537
1742,20.09922,0,-2,2,1035,2,-1550
1743,20.110793,-1,3,0,1033,-1,-1538
1744,20.122363,-1,-1,1,1034,1,-1543
1745,20.133901,-1,-2,2,1031,-3,-1541
1746,20.14545,1,0,3,1032,0,-1542
1747,20.157012,0,1,2,1034,0,-1543
1748,20.168635,-1,-1,1,1033,0,-1541
1749,20.180285,0,1,0,1034,-1,-1543
1750,20.192102,0,-2,3,1031,-1,-1541
1751,20.203773,1,0,-1,1033,1,-1546
1752,20.215426,0,1,1,1029,-1,-1540
1753,20.22716,-1,2,1,1032,-4,-1543
1754,20.238834,1,1,0,1031,-2,-1544
1755,20.250513,0,0,0,1031,0,-1546
1756,20.26218,0,0,-1,1034,2,-1546
1757,20.273869,0,2,-1,1032,2,-1545
1758,20.285434,0,2,3,1030,1,-1543
1759,20.296995,1,2,3,1032,2,-1543
1760,20.308543,2,-2,0,1032,0,-1533
1761,20.320087,0,-2,4,1031,0,-1542
1762,20.331677,0,-1,3,1036,0,-1543
1763,20.34326,0,1,-1,1031,-4,-1544
1764,20.354858,1,2,1,1034,-3,-1544
1765,20.366437,0,1,3,1032,-1,-1551
1766,20.378063,0,-1,0,1031,0,-1542
1767,20.389728,0,1,3,1031,0,-1544
1768,20.401393,1,0,1,1031,0,-1540
1769,20.413047,0,-2,1,1030,1,-1541
1770,20.424695,-1,0,3,1036,-1,-1544
1771,20.436355,0,0,2,1032,-2,-1544
1772,20.447999,1,0,2,1031,-1,-1540
1773,20.459662,0,0,2,1028,1,-1536
1774,20.471344,0,0,2,1036,0,-1543
1775,20.482921,1,2,2,1028,-1,-1539
1776,20.494494,0,0,0,1031,0,-1541
1777,20.506039,1,0,-2,1031,2,-1537
1778,20.517589,0,-1,3,1032,-3,-1545
1779,20.529139,0,-2,1,1033,1,-1542
1780,20.540707,0,-1,0,1034,-2,-1547
1781,20.552271,0,2,0,1033,-2,-1539
1782,20.563846,1,0,1,1032,-2,-1543
1783,20.575419,0,-1,-1,1032,0,-1544
1784,20.587039,1,0,1,1033,0,-1541
1785,20.598758,1,0,1,1033,-2,-1541
1786,20.610434,2,0,-1,1034,0,-1540
1787,20.622101,1,-1,-1,1034,0,-1541
1788,20.633782,0,-1,2,1034,0,-1538
1789,20.64545,1,-1,1,1029,0,-1543
1790,20.657103,0,0,0,1031,0,-1544
1791,20.668777,3,1,1,1029,-1,-1540
1792,20.680445,2,1,2,1037,0,-1540
1793,20.692092,1,-2,-1,1035,2,-1535
1794,20.703714,-1,-1,1,1034,-2,-1540
1795,20.715282,-1,0,0,1031,-1,-1544
1796,20.726852,1,0,1,1035,0,-1537
1797,20.738424,-1,0,2,1035,2,-1541
1798,20.749978,1,0,1,1032,0,-1539
1799,20.76152,2,0,1,1033,3,-1542
1800,20.773068,1,2,2,1035,1,-1541
1801,20.784631,0,0,2,1030,0,-1542
1802,20.796274,0,0,0,1031,1,-1539
1803,20.807927,1,2,0,1036,0,-1536
1804,20.819616,-1,0,2,1029,0,-1544
1805,20.831282,0,-1,1,1034,1,-1541
1806,20.842968,0,1,1,1034,-3,-1545
1807,20.85464,0,-1,1,1031,0,-1541
1808,20.866326,0,0,0,1029,1,-1542
1809,20.878002,1,0,0,1031,0,-1542
1810,20.889688,0,-1,0,1031,-3,-1540
1811,20.901345,0,2,1,1035,2,-1543
1812,20.913015,0,1,1,1032,0,-1539
1813,20.92466,1,-2,1,1034,-2,-1545
1814,20.936311,2,0,2,1032,1,-1540
1815,20.947954,-2,2,1,1029,0,-1543
1816,20.959614,1,1,1,1033,-3,-1542
1817,20.971329,0,0,3,1031,0,-1537
1818,20.982987,0,-1,2,1034,-2,-1547
1819,20.994664,0,2,1,1031,-1,-1542
1820,21.006338,0,-2,-1,1032,0,-1541
1821,21.017903,0,0,1,1031,-3,-1537
1822,21.029477,0,1,-1,1036,0,-1539
1823,21.041023,1,-2,2,1032,0,-1548
1824,21.05258,-2,-1,1,1034,-2,-1543
1825,21.06414,0,3,1,1031,0,-1544
1826,21.075717,1,1,-1,1031,0,-1543
1827,21.087286,1,-1,1,1031,2,-1541
1828,21.098871,0,-4,3,1029,2,-1545
1829,21.110516,0,0,3,1031,0,-1545
1830,21.122175,0,1,2,1031,1,-1544
1831,21.133819,1,-1,0,1029,3,-1544
1832,21.145493,1,0,0,1035,1,-1546
1833,21.157154,1,-1,0,1027,1,-1545
1834,21.168808,-1,2,-1,1032,0,-1540
1835,21.180461,1,0,1,1033,-3,-1542
1836,21.192106,0,-1,3,1032,0,-1546
1837,21.203798,-1,0,1,1032,0,-1540
1838,21.215594,-1,1,0,1032,0,-1540
1839,21.227165,1,-1,2,1033,2,-1541
1840,21.238735,1,-1,1,1034,0,-1541
1841,21.250301,1,0,1,1036,-3,-1537
1842,21.261849,2,1,0,1031,0,-1544
1843,21.273402,2,0,1,1033,0,-1541
1844,21.284966,1,0,1,1031,0,-1544
1845,21.29651,0,-1,2,1033,0,-1546
1846,21.308092,0,-3,1,1033,-4,-1547
1847,21.319713,0,1,1,1031,1,-1538
1848,21.331401,1,0,2,1032,0,-1543
1849,21.343078,0,-1,1,1031,0,-1547
1850,21.354755,1,2,-2,1033,0,-1546
1851,21.366404,-1,1,1,1033,1,-1541
1852,21.378055,-1,-1,1,1032,-4,-1545
1853,21.389718,1,-2,2,1033,1,-1543
1854,21.401367,0,2,0,1031,2,-1539
1855,21.413038,0,-1,1,1031,0,-1547
1856,21.424696,2,2,4,1030,0,-1535
1857,21.436274,1,1,0,1036,-3,-1538
1858,21.447824,0,2,2,1027,-1,-1536
1859,21.459405,1,0,2,1032,0,-1547
1860,21.470964,2,-1,-2,1034,-1,-1545
1861,21.482539,0,1,-1,1031,-3,-1540
1862,21.494096,1,0,0,1031,-2,-1540
1863,21.505644,0,-2,2,1031,1,-1544
1864,21.517227,1,0,-2,1031,1,-1541
1865,21.528851,0,-1,2,1031,0,-1545
1866,21.540514,1,3,1,1033,-2,-1546
1867,21.552166,-1,1,-1,1033,0,-1538
1868,21.563881,1,1,0,1031,1,-1542
1869,21.575536,-1,2,1,1033,-4,-1548
1870,21.587217,2,1,0,1032,0,-1540
1871,21.598902,-1,1,1,1030,2,-1539
1872,21.610573,0,-2,2,1033,0,-1535
1873,21.622249,-1,0,3,1034,-1,-1547
1874,21.633914,0,1,2,1031,-2,-1542
1875,21.645472,-2,2,1,1033,-1,-1541
1876,21.657029,-1,0,0,1031,-2,-1543
1877,21.668596,1,0,2,1032,0,-1543
1878,21.680143,0,-1,0,1030,1,-1542
1879,21.691702,1,0,1,1031,1,-1540
1880,21.703291,2,-2,1,1034,0,-1547
1881,21.714847,1,1,3,1032,0,-1540
1882,21.726442,-1,0,3,1031,2,-1545
1883,21.738066,1,-1,2,1036,-3,-1547
1884,21.749735,2,-2,3,1033,0,-1542
1885,21.761388,1,-2,1,1031,-3,-1539
1886,21.773038,-2,0,0,1030,3,-1543
1887,21.784686,0,0,1,1036,0,-1547
1888,21.796346,0,-2,-1,1034,-1,-1541
1889,21.808006,0,-2,0,1031,-3,-1548
1890,21.819666,0,-1,1,1031,1,-1544
1891,21.831372,1,0,1,1032,0,-1541
1892,21.843027,-1,0,-1,1035,0,-1542
1893,21.854744,1,1,2,1037,-2,-1540
1894,21.866396,0,1,0,1033,-3,-1544
1895,21.878045,0,0,-2,1034,-1,-1543
1896,21.889694,1,1,1,1035,0,-1538
1897,21.901357,-1,-1,1,1030,0,-1544
1898,21.913019,1,-1,0,1031,3,-1544
1899,21.924661,0,-1,2,1030,-1,-1546
1900,21.936336,1,0,1,1032,4,-1543
1901,21.948007,1,-2,2,1031,0,-1541
1902,21.959662,0,1,1,1028,-2,-1544
1903,21.971342,0,1,1,1035,0,-1547
1904,21.983024,0,2,0,1029,-3,-1544
1905,21.994696,3,1,1,1031,-4,-1535
1906,22.006321,1,2,0,1034,0,-1541
1907,22.017998,0,1,1,1031,-1,-1542
1908,22.029649,2,0,2,1029,-1,-1540
1909,22.041296,-1,1,-1,1033,-1,-1539
1910,22.052877,1,1,0,1029,2,-1530
1911,22.06442,-1,-1,0,1033,-5,-1540
1912,22.075995,0,0,2,1033,0,-1537
1913,22.087519,-2,0,0,1034,1,-1541
1914,22.099034,1,1,0,1036,1,-1548
1915,22.110555,-1,-1,0,1033,-2,-1545
1916,22.122096,0,-2,-1,1035,-3,-1543
1917,22.133653,-1,-2,2,1028,0,-1537
1918,22.145223,2,-1,-1,1029,0,-1541
1919,22.156857,1,1,1,1031,-1,-1540
1920,22.168511,0,1,3,1032,0,-1551
1921,22.180179,0,-1,1,1033,-2,-1544
1922,22.191879,1,-1,0,1032,0,-1543
1923,22.20354,0,0,0,1035,2,-1547
1924,22.215231,0,-1,1,1032,-2,-1538
1925,22.226894,-1,-1,1,1033,1,-1545
1926,22.238588,-2,-1,1,1029,1,-1544
1927,22.250257,-1,2,2,1030,0,-1542
1928,22.261952,-1,1,0,1033,0,-1547
1929,22.273514,-1,-1,2,1038,-5,-1540
1930,22.285086,1,-1,-2,1033,-3,-1542
1931,22.296631,-1,0,2,1028,2,-1541
1932,22.308168,-2,-1,1,1034,-3,-1534
1933,22.319746,1,0,2,1031,-4,-1542
1934,22.331278,-1,2,1,1034,-6,-1546
1935,22.342798,0,-1,2,1032,-2,-1544
1936,22.35433,1,0,2,1032,-1,-1545
1937,22.36596,2,-1,1,1028,-3,-1545
1938,22.377617,1,0,0,1032,0,-1536
1939,22.38927,2,-1,1,1031,1,-1541
1940,22.400917,-1,1,0,1028,0,-1540
1941,22.412563,0,-1,-2,1029,0,-1538
1942,22.424232,0,0,2,1033,2,-1536
1943,22.435888,1,1,0,1046,0,-1540
1944,22.447612,0,0,-1,1031,-1,-1543
1945,22.459272,1,-1,-2,1031,0,-1534
1946,22.470792,0,1,1,1031,-4,-1548
1947,22.482314,1,-1,0,1034,-1,-1538
1948,22.493857,1,-1,2,1031,-8,-1547
1949,22.50543,0,3,2,1032,-1,-1548
1950,22.516977,-1,3,2,1027,1,-1544
1951,22.528557,3,-1,0,1035,0,-1541
1952,22.540103,-1,-1,2,1033,-6,-1542
1953,22.551713,1,-1,0,1032,0,-1538
1954,22.563283,1,-1,-1,1029,-3,-1534
1955,22.574912,-1,0,2,1029,-1,-1547
1956,22.586589,0,1,1,1030,3,-1544
1957,22.598254,0,1,0,1032,-2,-1539
1958,22.609908,0,-2,0,1033,0,-1540
1959,22.621556,1,2,3,1032,-3,-1543
1960,22.633209,0,2,0,1030,1,-1535
1961,22.644889,0,1,0,1033,0,-1546
1962,22.656536,2,1,2,1034,1,-1545
1963,22.668227,0,-1,3,1031,0,-1544
1964,22.679902,0,-2,1,1036,0,-1545
1965,22.691473,0,0,0,1031,1,-1540
1966,22.703058,0,0,1,1032,0,-1546
1967,22.714611,0,0,3,1033,-4,-1544
1968,22.726154,1,1,1,1032,-2,-1540
1969,22.737704,-2,-1,1,1031,0,-1539
1970,22.74925,0,-1,1,1032,0,-1538
1971,22.760794,-1,1,1,1034,-1,-1541
1972,22.772343,0,0,2,1034,-1,-1544
1973,22.784004,1,2,2,1032,0,-1540
1974,22.795666,-1,2,0,1032,0,-1541
1975,22.807371,1,0,2,1031,0,-1539
1976,22.81903,-1,0,1,1033,-2,-1543
1977,22.830714,0,-1,-1,1033,2,-1541
1978,22.842383,1,1,1,1035,2,-1540
1979,22.854036,0,1,2,1031,-1,-1536
1980,22.865685,-1,-1,-1,1028,0,-1540
1981,22.87736,-1,0,4,1034,-1,-1543
1982,22.889027,0,-1,2,1035,-1,-1540
1983,22.90068,0,-1,-1,1033,-1,-1542
1984,22.912354,1,0,1,1032,0,-1544
1985,22.92403,-2,0,0,1033,-5,-1538
1986,22.935683,0,-1,1,1032,-1,-1539
1987,22.947352,1,0,4,1033,0,-1546
1988,22.959016,-1,1,2,1033,-2,-1548
1989,22.97066,1,2,1,1031,-2,-1543
1990,22.982364,0,3,2,1037,-3,-1543
1991,22.994025,0,1,2,1031,3,-1541
1992,23.005675,-1,0,0,1035,0,-1536
1993,23.017324,-1,0,0,1032,1,-1541
1994,23.028992,-1,-1,1,1031,-1,-1540
1995,23.040643,-1,0,0,1032,1,-1541
1996,23.05229,-2,0,1,1035,4,-1540
1997,23.063952,0,-1,3,1033,-4,-1542
1998,23.075625,0,1,1,1033,2,-1537
1999,23.087315,-1,0,1,1035,-2,-1540
