sample,t_s,gyro_x,gyro_y,gyro_z,accel_x,accel_y,accel_z
0,1.2e-05,-2,15,4,-3,62,-1025
1,0.011364,2,5,9,-1,62,-1032
2,0.022563,2,7,7,-1,65,-1030
3,0.033756,3,8,7,-2,67,-1037
4,0.044952,2,9,8,-2,62,-1028
5,0.056137,1,6,9,-1,57,-1028
6,0.067331,2,4,10,-1,60,-1030
7,0.078514,3,6,9,-1,64,-1030
8,0.089698,4,6,10,-1,62,-1037
9,0.100886,0,8,10,0,67,-1031
10,0.112073,2,6,9,0,62,-1026
11,0.12325,3,6,9,0,60,-1037
12,0.134436,2,4,9,0,61,-1032
13,0.145619,3,7,10,-1,60,-1032
14,0.156802,1,8,9,-2,61,-1038
15,0.167986,2,7,8,-1,67,-1032
16,0.179178,2,5,10,-3,62,-1031
17,0.190361,2,6,10,-1,60,-1029
18,0.201546,2,6,9,0,62,-1033
19,0.212731,2,9,9,0,61,-1037
20,0.223914,3,5,10,0,61,-1031
21,0.235067,3,9,7,-1,59,-1032
22,0.246254,2,6,8,0,61,-1038
23,0.257457,3,5,10,0,61,-1034
24,0.268645,3,6,10,-4,60,-1037
25,0.279831,2,6,9,2,67,-1025
26,0.291018,2,4,10,0,60,-1036
27,0.302204,2,6,7,0,62,-1030
28,0.313393,1,6,9,3,63,-1032
29,0.324574,2,7,8,1,64,-1028
30,0.33576,2,5,11,0,63,-1036
31,0.346951,1,6,8,-2,67,-1027
32,0.358138,4,4,10,-4,64,-1030
33,0.369326,4,6,9,-1,61,-1033
34,0.380514,3,5,6,2,59,-1037
35,0.391699,1,6,7,-1,62,-1031
36,0.402897,2,6,10,-2,64,-1029
37,0.414082,2,7,9,-1,63,-1031
38,0.425265,1,6,7,0,61,-1029
39,0.43645,3,7,10,-4,66,-1030
40,0.447631,2,8,11,-2,65,-1030
41,0.458822,4,6,9,-1,63,-1029
42,0.470009,1,4,10,-1,61,-1028
43,0.481204,2,5,8,-2,66,-1030
44,0.49239,2,6,10,-1,65,-1030
45,0.503581,3,7,10,-1,62,-1029
46,0.514773,3,8,9,-4,60,-1037
47,0.525959,4,7,8,-2,63,-1036
48,0.537144,1,6,9,-1,61,-1024
49,0.548328,1,7,7,-2,60,-1033
50,0.559517,2,6,9,-1,61,-1029
51,0.570698,1,5,9,0,61,-1032
52,0.581886,2,6,10,0,61,-1029
53,0.593069,1,5,9,0,66,-1039
54,0.604253,2,5,9,-2,63,-1034
55,0.615435,4,6,8,-3,63,-1036
56,0.626623,3,6,10,3,64,-1031
57,0.637803,2,6,10,-2,66,-1032
58,0.648982,2,6,10,-6,64,-1031
59,0.660161,3,6,9,-3,64,-1032
60,0.671359,4,6,9,-1,59,-1027
61,0.682513,3,8,11,-2,62,-1030
62,0.693695,3,8,8,-4,62,-1037
63,0.704881,3,4,10,1,60,-1038
64,0.716071,3,6,10,-3,65,-1034
65,0.727257,3,6,11,-3,61,-1034
66,0.738441,0,5,10,1,60,-1035
67,0.749627,3,6,9,0,64,-1037
68,0.760832,2,6,9,0,64,-1037
69,0.772015,6,5,8,-5,64,-1027
70,0.783208,2,6,9,-4,60,-1031
71,0.794396,4,8,9,1,61,-1030
72,0.805579,3,7,9,3,64,-1035
73,0.816765,2,6,8,-1,61,-1027
74,0.827951,2,6,8,-1,61,-1028
75,0.83914,0,7,8,2,64,-1030
76,0.850323,3,7,11,0,61,-1027
77,0.861519,2,6,7,4,61,-1034
78,0.8727,3,6,9,-3,62,-1032
79,0.883885,2,5,8,-3,62,-1037
80,0.895065,1,6,9,-1,64,-1036
81,0.906249,3,7,10,0,66,-1042
82,0.917429,2,6,9,1,64,-1034
83,0.928609,1,7,9,-4,64,-1034
84,0.939789,0,4,8,-1,59,-1036
85,0.95097,2,5,7,-3,65,-1037
86,0.962154,1,8,7,0,61,-1028
87,0.97335,2,9,8,1,62,-1027
88,0.984532,2,5,7,-3,63,-1033
89,0.995715,2,6,10,-2,61,-1034
90,1.006891,1,5,8,2,63,-1029
91,1.018073,2,4,11,2,60,-1036
92,1.029262,0,6,9,0,59,-1026
93,1.040451,2,7,7,0,59,-1030
94,1.051635,3,3,7,0,63,-1035
95,1.062832,3,3,10,-3,63,-1030
96,1.074016,2,5,10,5,62,-1038
97,1.085201,1,4,10,2,65,-1029
98,1.096385,2,7,12,-2,68,-1032
99,1.107574,1,9,9,-1,65,-1036
100,1.118773,1,6,7,-4,62,-1031
101,1.129956,3,5,10,-1,64,-1033
102,1.14114,3,8,9,0,60,-1034
103,1.152322,2,5,9,2,62,-1028
104,1.163517,2,7,10,-2,62,-1034
105,1.174697,2,5,9,0,65,-1029
106,1.185883,2,6,11,-3,66,-1032
107,1.197064,3,6,9,0,63,-1035
108,1.208248,3,4,8,-3,64,-1034
109,1.21945,4,6,8,0,62,-1029
110,1.230637,4,5,10,-2,59,-1030
111,1.241822,2,5,10,-2,64,-1033
112,1.253004,2,6,9,1,66,-1034
113,1.26419,3,6,8,1,62,-1033
114,1.275382,1,6,10,-7,63,-1032
115,1.286567,3,7,10,0,66,-1028
116,1.297758,4,4,9,2,62,-1032
117,1.308941,1,5,8,1,62,-1025
118,1.320125,4,4,11,-2,66,-1025
119,1.331317,2,5,9,-2,65,-1034
120,1.34251,1,8,9,0,67,-1034
121,1.3537,1,6,10,-5,62,-1033
122,1.364892,3,7,10,0,61,-1030
123,1.376073,1,7,9,0,63,-1030
124,1.387254,2,9,9,-3,65,-1032
125,1.398437,1,7,9,1,60,-1039
126,1.409631,2,8,9,-1,62,-1036
127,1.420824,2,7,11,-2,64,-1025
128,1.432005,3,6,10,-4,66,-1027
129,1.443204,2,7,9,-3,60,-1026
130,1.454389,4,6,10,-2,63,-1037
131,1.465572,3,7,11,2,65,-1034
132,1.476771,2,7,9,2,61,-1038
133,1.487954,3,7,10,-1,61,-1025
134,1.499137,3,6,8,0,61,-1034
135,1.510319,4,5,10,0,64,-1027
136,1.521503,1,4,7,0,64,-1035
137,1.532686,2,6,10,0,62,-1033
138,1.543871,2,6,9,2,62,-1030
139,1.555068,3,6,9,-3,61,-1034
140,1.566256,2,3,10,-2,59,-1031
141,1.577439,3,6,9,-2,60,-1028
142,1.58862,2,6,8,-4,62,-1037
143,1.599812,3,7,9,-4,61,-1031
144,1.611001,2,6,11,-1,59,-1034
145,1.622188,4,7,10,0,66,-1036
146,1.633375,2,7,6,0,64,-1031
147,1.644559,2,6,7,0,62,-1032
148,1.655745,3,7,10,-2,65,-1033
149,1.666953,3,7,9,2,62,-1042
150,1.678136,3,7,9,0,62,-1029
151,1.689326,3,6,9,0,62,-1030
152,1.700509,1,5,9,0,62,-1036
153,1.711698,4,7,9,1,61,-1030
154,1.722888,2,6,8,-5,67,-1033
155,1.73407,3,5,12,-4,61,-1035
156,1.745256,2,5,9,-1,59,-1031
157,1.756439,2,6,8,-5,63,-1030
158,1.767623,1,4,10,-4,62,-1037
159,1.778809,2,7,9,-3,64,-1036
160,1.789992,2,5,8,-1,64,-1030
161,1.801173,5,4,8,1,61,-1033
162,1.812355,1,6,7,0,65,-1030
163,1.823548,3,6,9,-3,62,-1032
164,1.834707,4,5,7,-1,62,-1030
165,1.845888,2,8,8,-6,64,-1040
166,1.857074,2,4,9,-2,64,-1030
167,1.868257,3,5,8,-1,62,-1026
168,1.879441,3,7,8,-1,59,-1034
169,1.89063,1,9,9,3,64,-1026
170,1.901815,2,6,8,3,58,-1034
171,1.912998,2,7,9,-2,61,-1036
172,1.924184,2,5,10,-5,61,-1030
173,1.935376,3,4,8,1,62,-1035
174,1.946561,4,5,8,-5,59,-1033
175,1.957749,0,8,11,-1,61,-1035
176,1.968945,3,8,8,-4,60,-1037
177,1.980128,2,6,9,-2,63,-1030
178,1.991321,2,5,8,-3,64,-1033
179,2.002509,3,5,9,-2,66,-1036
180,2.013693,2,6,8,-1,62,-1035
181,2.024876,3,7,8,0,61,-1034
182,2.036059,2,6,10,2,61,-1032
183,2.047256,2,6,10,-1,62,-1031
184,2.058437,2,5,10,-1,61,-1031
185,2.069622,4,8,7,-1,60,-1028
186,2.080804,3,7,9,-1,64,-1032
187,2.091989,3,6,10,2,60,-1039
188,2.103185,4,4,9,0,63,-1033
189,2.114374,3,6,10,-2,63,-1034
190,2.125566,2,6,9,0,60,-1038
191,2.136755,0,6,9,1,63,-1029
192,2.147939,1,7,9,-2,61,-1031
193,2.159126,3,6,9,1,66,-1030
194,2.170311,3,7,9,-3,58,-1033
195,2.181496,3,6,10,-4,60,-1026
196,2.192692,2,6,10,-2,62,-1038
197,2.20388,2,7,9,-2,61,-1027
198,2.215067,2,7,12,-1,64,-1034
199,2.22625,2,7,12,-1,64,-1035
200,2.237438,0,7,7,0,65,-1024
201,2.248625,2,6,9,-3,66,-1034
202,2.259833,3,6,7,-2,60,-1035
203,2.271171,1,4,10,-3,64,-1024
204,2.2824,3,5,13,0,61,-1036
205,2.293593,4,6,10,0,62,-1025
206,2.304784,3,7,10,-1,60,-1028
207,2.315973,1,7,10,3,64,-1031
208,2.327189,3,6,8,-1,65,-1036
209,2.338378,3,5,10,-1,68,-1026
210,2.349565,0,5,10,-3,65,-1032
211,2.360755,1,5,9,-2,60,-1022
212,2.371946,3,6,11,0,67,-1036
213,2.383157,1,6,12,0,62,-1036
214,2.394343,5,6,10,1,67,-1039
215,2.405527,2,7,9,3,62,-1038
216,2.416712,5,5,6,-4,61,-1038
217,2.427898,5,10,8,-13,62,-1026
218,2.439071,7,11,11,-14,66,-1042
219,2.450253,0,9,9,-2,62,-1031
220,2.461439,4,9,10,0,68,-1031
221,2.472625,0,10,11,2,63,-1030
222,2.483808,2,9,10,3,62,-1034
223,2.495011,3,6,11,-1,64,-1036
224,2.506196,1,7,10,2,61,-1032
225,2.517379,1,7,10,0,68,-1026
226,2.528562,1,5,11,1,60,-1033
227,2.539748,0,5,10,6,62,-1031
228,2.550953,4,6,9,2,63,-1031
229,2.562136,2,5,10,-1,60,-1035
230,2.573316,1,6,10,-5,61,-1037
231,2.584499,1,5,9,-8,65,-1029
232,2.595685,1,5,11,-7,65,-1027
233,2.606889,2,4,6,2,61,-1036
234,2.618072,4,6,9,6,60,-1036
235,2.629254,3,5,8,5,58,-1036
236,2.640436,3,9,8,-1,58,-1037
237,2.651619,2,8,8,-13,59,-1031
238,2.662811,2,8,8,-16,62,-1036
239,2.673993,3,8,9,-6,61,-1035
240,2.685177,3,4,9,8,60,-1031
241,2.696362,3,9,9,9,59,-1027
242,2.70755,2,5,10,3,66,-1034
243,2.718697,1,6,9,0,67,-1033
244,2.729878,5,5,9,-6,64,-1030
245,2.741062,1,8,9,-1,63,-1031
246,2.752244,2,6,10,6,68,-1031
247,2.763437,2,5,11,8,62,-1031
248,2.774627,3,5,8,1,64,-1048
249,2.785809,6,9,8,-2,71,-1052
250,2.797004,-2,8,9,-7,46,-995
251,2.808186,9,6,9,-2,65,-1030
252,2.819376,2,9,10,-2,61,-1051
253,2.830562,11,8,8,-2,59,-1030
254,2.841744,-4,5,8,-11,56,-1034
255,2.852933,2,6,9,-16,73,-1030
256,2.864117,3,4,10,-11,61,-1034
257,2.875307,0,9,9,2,72,-1029
258,2.886505,7,7,8,10,58,-1024
259,2.897688,0,8,7,11,72,-1034
260,2.908884,3,8,8,-12,57,-1038
261,2.920068,1,6,9,-16,66,-1033
262,2.931251,4,9,9,-12,58,-1030
263,2.942432,0,6,10,0,63,-1032
264,2.953618,2,7,8,4,62,-1025
265,2.964811,0,6,7,5,71,-1034
266,2.975994,1,5,7,2,65,-1030
267,2.987179,4,6,7,1,63,-1035
268,2.998362,3,6,10,-2,67,-1031
269,3.009548,4,6,9,-2,65,-1023
270,3.020734,1,4,9,3,63,-1033
271,3.031921,4,6,11,2,61,-1027
272,3.043068,2,6,9,0,60,-1031
273,3.054251,1,4,8,-5,58,-1033
274,3.065435,1,8,10,-9,62,-1032
275,3.076621,2,8,7,-2,60,-1037
276,3.087804,-1,7,12,7,55,-1014
277,3.099003,9,0,10,-8,62,-1055
278,3.110188,0,3,10,1,66,-1064
279,3.121375,9,3,8,2,65,-1061
280,3.132557,-1,8,8,2,65,-1044
281,3.143746,10,4,8,4,60,-1039
282,3.154936,-1,10,9,-7,60,-1017
283,3.166118,8,8,9,-14,62,-1035
284,3.177307,-1,6,9,-12,64,-1038
285,3.188491,6,7,11,-2,62,-1035
286,3.199679,0,8,10,14,59,-1037
287,3.210876,1,5,9,15,65,-1025
288,3.222057,1,4,9,0,60,-1030
289,3.233247,3,4,8,-7,63,-1039
290,3.244439,4,7,11,-13,61,-1035
291,3.255638,2,4,8,-3,64,-1024
292,3.266825,3,4,9,0,56,-1035
293,3.278007,1,10,11,0,56,-1033
294,3.289187,3,5,8,0,61,-1041
295,3.30037,2,6,9,-6,57,-1030
296,3.311556,3,6,8,-4,60,-1034
297,3.322697,3,8,9,-2,62,-1030
298,3.333879,3,5,9,1,65,-1032
299,3.345061,2,5,8,2,65,-1034
300,3.356244,0,7,11,0,66,-1034
301,3.367435,1,7,6,-1,67,-1031
302,3.378624,2,4,9,-6,62,-1032
303,3.389806,3,7,11,-3,67,-1039
304,3.400998,3,6,9,0,62,-1032
305,3.41219,2,4,10,0,59,-1031
306,3.423378,4,5,9,2,67,-1028
307,3.434561,2,6,9,-1,66,-1031
308,3.445745,2,5,9,4,59,-1032
309,3.456942,3,7,9,0,59,-1037
310,3.468127,5,6,10,-4,59,-1030
311,3.479314,3,9,11,-8,64,-1040
312,3.490507,2,8,8,-5,61,-1037
313,3.501692,2,6,7,-2,64,-1029
314,3.512875,2,7,10,-3,59,-1031
315,3.524059,2,6,9,-1,66,-1035
316,3.53525,2,8,9,-4,64,-1028
317,3.546432,3,8,11,-2,65,-1034
318,3.557614,2,6,8,0,58,-1029
319,3.568798,5,8,8,4,64,-1032
320,3.579981,2,8,9,3,61,-1028
321,3.591176,3,5,10,4,62,-1038
322,3.602357,3,6,9,0,67,-1034
323,3.613554,2,3,10,0,66,-1033
324,3.624741,2,6,8,-2,64,-1032
325,3.635929,2,5,11,0,66,-1028
326,3.647118,4,6,8,6,60,-1030
327,3.658302,3,4,8,2,61,-1025
328,3.669486,2,7,9,3,61,-1027
329,3.68067,2,4,10,-4,63,-1034
330,3.691861,3,5,8,0,61,-1027
331,3.703056,2,6,10,-3,63,-1031
332,3.714239,1,4,11,-3,65,-1028
333,3.725425,1,7,10,-2,63,-1036
334,3.736607,3,5,7,-1,59,-1029
335,3.747795,3,8,8,-1,60,-1032
336,3.758989,2,8,10,-1,60,-1024
337,3.770173,2,5,9,-1,61,-1031
338,3.78136,0,6,8,2,62,-1030
339,3.792544,2,7,8,-1,64,-1035
340,3.803734,2,4,11,0,65,-1032
341,3.81488,2,5,9,3,60,-1034
342,3.826061,4,6,10,-1,65,-1037
343,3.837243,1,6,9,1,66,-1030
344,3.848424,2,6,9,-6,66,-1028
345,3.859619,4,5,9,-4,70,-1034
346,3.87082,2,6,9,0,64,-1039
347,3.882002,4,7,10,-4,59,-1038
348,3.893219,3,7,10,0,63,-1034
349,3.904503,0,6,8,-4,61,-1031
350,3.915691,2,8,9,-10,60,-1034
351,3.926882,0,5,8,-6,58,-1036
352,3.938068,2,5,12,4,62,-1033
353,3.949254,4,6,9,6,61,-1033
354,3.960436,2,6,9,4,62,-1031
355,3.971643,0,7,8,-2,60,-1029
356,3.982829,1,7,9,-10,62,-1032
357,3.994011,2,7,11,-13,65,-1033
358,4.005196,1,11,10,-2,63,-1036
359,4.016377,4,6,9,8,62,-1025
360,4.027563,1,9,9,13,64,-1031
361,4.038748,2,7,10,1,61,-1035
362,4.04993,3,8,10,-2,67,-1030
363,4.061121,1,9,9,1,66,-1029
364,4.072302,1,7,10,0,64,-1024
365,4.083491,2,5,9,-1,60,-1032
366,4.094711,3,4,10,3,63,-1027
367,4.105896,4,2,9,1,66,-1024
368,4.11708,3,4,10,3,59,-1037
369,4.128261,3,3,9,0,60,-1043
370,4.139436,3,6,7,-1,57,-1031
371,4.150625,2,7,8,-2,60,-1034
372,4.161808,4,6,9,-14,60,-1028
373,4.172993,4,8,8,-11,61,-1031
374,4.184173,2,8,9,-9,60,-1035
375,4.195365,3,8,8,2,56,-1034
376,4.206512,3,7,8,1,61,-1036
377,4.217695,4,8,9,4,63,-1038
378,4.228875,0,8,8,1,64,-1021
379,4.240056,2,8,9,3,66,-1031
380,4.251247,4,8,10,-3,67,-1027
381,4.262431,3,8,9,-1,64,-1030
382,4.273612,1,8,9,2,59,-1035
383,4.284797,3,5,11,0,60,-1037
384,4.295979,3,7,9,5,63,-1031
385,4.307176,2,5,9,8,60,-1028
386,4.318373,4,7,9,4,63,-1030
387,4.329576,3,7,9,-1,62,-1006
388,4.341137,8,3,10,-2,58,-1042
389,4.352805,-7,6,10,-1,63,-1021
390,4.364452,10,3,10,2,62,-1044
391,4.376123,-5,6,9,10,64,-1037
392,4.387775,3,6,7,8,59,-1034
393,4.399456,1,5,10,-6,62,-1039
394,4.411092,2,9,10,-16,65,-1026
395,4.422753,2,7,9,-13,62,-1029
396,4.434424,4,7,10,-5,58,-1030
397,4.446106,0,6,9,5,63,-1032
398,4.457706,3,8,11,8,60,-1033
399,4.46928,3,6,7,5,65,-1037
400,4.480944,5,5,7,-3,58,-1035
401,4.492494,3,8,8,-7,62,-1034
402,4.504047,1,8,9,-5,63,-1025
403,4.5156,2,5,9,-2,65,-1032
404,4.527154,2,5,9,2,64,-1029
405,4.538708,3,6,9,7,60,-1032
406,4.550379,3,5,9,3,64,-1031
407,4.562022,2,4,8,0,61,-1036
408,4.573676,2,7,8,-8,61,-1034
409,4.58533,3,6,7,-8,63,-1032
410,4.596985,2,6,8,-2,58,-1038
411,4.608637,2,6,8,1,59,-1038
412,4.62028,3,5,8,2,59,-1027
413,4.631958,1,6,9,-1,61,-1029
414,4.64364,2,6,9,0,62,-1031
415,4.655319,2,4,9,0,59,-1030
416,4.666991,3,3,10,0,62,-1033
417,4.678669,2,4,10,-5,62,-1042
418,4.69034,2,4,9,0,59,-1039
419,4.702022,2,10,8,0,61,-1032
420,4.713666,0,7,7,0,61,-1029
421,4.72533,1,10,10,0,65,-1026
422,4.736989,0,8,8,-2,65,-1027
423,4.748663,0,6,8,0,64,-1027
424,4.760334,2,4,11,3,65,-1028
425,4.77199,1,6,8,2,62,-1033
426,4.78365,3,3,9,1,60,-1030
427,4.795344,1,4,8,2,62,-1028
428,4.807,5,6,8,-11,59,-1036
429,4.818676,2,6,10,-12,63,-1034
430,4.830345,1,8,10,-13,65,-1036
431,4.841991,3,8,9,-3,65,-1034
432,4.853668,2,9,9,0,62,-1027
433,4.865344,2,7,9,2,63,-1031
434,4.876994,2,9,11,4,61,-1030
435,4.888639,0,8,9,1,62,-1033
436,4.900282,3,7,10,3,59,-1034
437,4.911976,1,5,10,4,59,-1024
438,4.923628,0,6,8,3,62,-1029
439,4.935295,1,3,9,2,60,-1034
440,4.946953,1,3,8,5,64,-1029
441,4.958635,4,5,9,1,58,-1031
442,4.970317,2,5,11,1,61,-1037
443,4.98187,4,5,10,-9,68,-1031
444,4.993425,2,10,8,-9,68,-1038
445,5.004975,1,8,11,-7,68,-1031
446,5.016553,2,4,11,2,63,-1026
447,5.028104,1,5,8,7,66,-1035
448,5.039688,3,4,8,4,67,-1036
449,5.051258,3,7,8,-4,66,-1035
450,5.062803,2,7,9,-5,63,-1027
451,5.074445,3,7,10,-7,61,-1024
452,5.086113,2,6,9,-3,58,-1033
453,5.097764,4,5,9,-1,56,-1036
454,5.10942,2,6,11,1,57,-1037
455,5.121083,1,5,9,4,59,-1032
456,5.132735,2,6,9,4,62,-1030
457,5.144462,0,5,9,3,64,-1037
458,5.156127,2,6,11,2,65,-1024
459,5.167795,4,5,8,0,67,-1032
460,5.179496,1,6,11,-4,68,-1033
461,5.191037,4,5,9,0,66,-1028
462,5.202549,2,8,8,-6,65,-1033
463,5.214091,3,5,10,-3,64,-1035
464,5.22563,1,9,11,-4,61,-1026
465,5.237179,0,5,7,-3,65,-1027
466,5.248734,2,5,11,0,63,-1035
467,5.260301,2,4,8,1,59,-1037
468,5.27191,1,4,7,4,59,-1030
469,5.28361,6,3,6,9,61,-1036
470,5.295269,4,7,9,10,56,-1044
471,5.306943,7,10,7,-4,58,-1042
472,5.31856,2,13,7,-18,58,-1029
473,5.330248,3,13,9,-28,72,-1035
474,5.341885,2,12,10,-25,68,-1025
475,5.353535,6,13,11,-12,69,-1034
476,5.365228,1,13,10,26,64,-1030
477,5.376886,1,12,10,25,67,-1023
478,5.38854,1,9,9,13,62,-1027
479,5.400102,4,6,11,-1,61,-1032
480,5.411695,2,10,12,-15,64,-1032
481,5.423268,1,7,11,-12,51,-1028
482,5.434793,1,5,8,3,60,-1024
483,5.446369,4,4,8,12,54,-1039
484,5.457941,1,5,7,14,54,-1036
485,5.469491,1,5,8,9,51,-1037
486,5.481077,-1,4,8,2,58,-1031
487,5.492713,2,2,7,-7,59,-1022
488,5.5045,1,3,9,-8,66,-1025
489,5.51615,3,4,8,-4,69,-1035
490,5.527853,1,4,11,4,65,-1036
491,5.5395,3,4,8,4,67,-1042
492,5.551152,4,8,10,-4,66,-1032
493,5.562821,3,8,8,-22,62,-1030
494,5.574477,3,7,11,-14,65,-1037
495,5.586143,2,11,9,-13,63,-1032
496,5.597809,3,8,10,4,63,-1031
497,5.609367,3,9,8,19,59,-1031
498,5.620937,2,5,7,16,60,-1050
499,5.632475,-3,17,7,-10,79,-1016
500,5.644025,0,4,6,-5,50,-972
501,5.655576,4,7,11,-12,79,-1030
502,5.667148,7,3,11,6,48,-1022
503,5.678698,12,6,7,4,56,-1014
504,5.690278,-1,3,11,1,52,-1033
505,5.7019,-1,6,9,-6,66,-1028
506,5.713546,8,3,8,-18,58,-1053
507,5.725193,-5,5,8,-3,77,-1030
508,5.736863,4,6,10,3,57,-1043
509,5.748504,0,6,9,4,68,-1041
510,5.760152,6,7,11,2,62,-1032
511,5.771853,2,10,9,-6,68,-1045
512,5.783503,1,12,11,-4,57,-1032
513,5.795163,2,11,11,4,51,-1026
514,5.806824,4,10,8,3,54,-1028
515,5.818421,4,9,9,2,56,-1031
516,5.829964,1,11,10,0,61,-1022
517,5.841507,3,9,9,-1,59,-1022
518,5.853066,1,9,8,1,68,-1037
519,5.864608,3,8,10,1,65,-1028
520,5.876159,1,9,8,5,67,-1027
521,5.887739,4,8,10,7,70,-1032
522,5.899305,0,7,7,0,61,-1027
523,5.910972,2,7,10,0,66,-1027
524,5.92263,0,5,10,-1,63,-1035
525,5.934276,2,5,10,1,62,-1030
526,5.94593,0,3,7,4,58,-1031
527,5.957591,3,4,10,8,62,-1031
528,5.969237,3,4,8,8,62,-1034
529,5.980884,3,2,10,4,63,-1036
530,5.992522,2,3,9,-2,61,-1033
531,6.004181,1,5,9,-7,65,-1028
532,6.01586,2,5,10,-12,61,-1023
533,6.027514,3,2,10,-7,59,-1038
534,6.03919,1,5,9,-3,62,-1029
535,6.050868,2,1,8,0,60,-1030
536,6.062504,4,8,9,2,69,-1050
537,6.074152,0,10,9,12,59,-1040
538,6.085806,3,12,8,8,61,-1028
539,6.097467,0,8,7,-6,55,-1035
540,6.109144,3,7,10,-28,67,-1024
541,6.120798,3,8,7,-27,69,-1028
542,6.132465,4,7,11,11,68,-1030
543,6.144119,1,5,10,31,61,-1024
544,6.155847,3,5,9,32,59,-1036
545,6.167498,0,4,11,17,61,-1038
546,6.17916,4,6,7,-3,64,-1023
547,6.190826,3,6,11,-14,59,-1031
548,6.202477,2,3,11,-10,50,-1029
549,6.214141,1,5,10,0,55,-1027
550,6.225792,4,4,8,4,56,-1041
551,6.237343,0,4,8,8,57,-1034
552,6.248884,0,6,8,6,58,-1035
553,6.260466,4,10,9,4,63,-1031
554,6.272056,2,6,9,-8,64,-1033
555,6.283637,3,8,11,-11,61,-1029
556,6.295184,2,4,12,-8,66,-1027
557,6.306728,2,3,11,3,60,-1031
558,6.318282,1,4,10,3,63,-1026
559,6.329954,3,7,9,8,64,-1029
560,6.341621,3,6,6,0,61,-1019
561,6.353286,4,9,9,-7,68,-1028
562,6.365005,4,6,9,-14,62,-1030
563,6.37666,4,8,10,-7,63,-1029
564,6.388315,5,7,9,6,60,-1034
565,6.399996,2,4,11,13,60,-1029
566,6.411648,1,3,7,7,60,-1033
567,6.423358,2,3,7,4,58,-1030
568,6.43506,3,2,10,1,61,-1027
569,6.446612,3,4,9,0,64,-1030
570,6.45818,1,4,11,0,62,-1037
571,6.469722,2,5,8,-2,61,-1032
572,6.481263,2,5,10,-1,62,-1028
573,6.492813,1,3,9,-10,64,-1032
574,6.504354,2,3,10,-8,67,-1025
575,6.515911,1,4,6,0,70,-1024
576,6.527581,2,3,10,1,66,-1029
577,6.539244,1,-1,9,6,64,-1028
578,6.550986,1,1,9,3,67,-1028
579,6.562635,2,0,8,7,66,-1036
580,6.574297,3,2,9,2,65,-1036
581,6.585962,3,4,9,-2,57,-1040
582,6.597611,1,5,9,-9,58,-1033
583,6.609281,0,3,9,-11,50,-1036
584,6.620952,2,3,9,-7,57,-1040
585,6.632618,1,5,9,-1,58,-1033
586,6.644314,4,5,9,5,53,-1037
587,6.65589,0,8,8,6,62,-1028
588,6.667449,2,5,8,0,65,-1041
589,6.679045,0,7,9,-7,66,-1032
590,6.690598,3,4,10,-11,69,-1015
591,6.702178,5,5,9,-3,64,-1036
592,6.713763,1,5,9,3,69,-1033
593,6.725406,3,4,10,2,58,-1030
594,6.737023,1,4,9,5,63,-1036
595,6.748582,3,4,9,0,61,-1039
596,6.760165,4,5,10,-2,60,-1041
597,6.771734,0,7,9,-4,62,-1025
598,6.783277,6,3,10,0,61,-1027
599,6.794797,1,4,8,2,67,-1037
600,6.806337,0,3,9,1,66,-1031
601,6.817886,4,5,9,0,67,-1032
602,6.829428,3,6,10,-4,61,-1037
603,6.841063,1,9,9,-1,66,-1031
604,6.852731,2,7,12,-1,63,-1035
605,6.864406,3,5,9,-4,61,-1030
606,6.876113,3,4,10,5,58,-1037
607,6.887779,2,6,9,3,60,-1033
608,6.899477,3,6,9,0,60,-1039
609,6.911127,4,5,10,-5,57,-1034
610,6.922876,3,8,8,-5,65,-1027
611,6.934557,4,8,8,-8,70,-1032
612,6.946238,3,7,8,-1,72,-1035
613,6.957902,2,8,10,2,70,-1032
614,6.969449,3,6,10,3,63,-1025
615,6.980991,3,6,9,2,62,-1032
616,6.992539,0,6,9,-1,62,-1031
617,7.004079,3,4,7,-3,60,-1036
618,7.015633,2,5,7,-5,56,-1033
619,7.027186,0,5,9,-1,59,-1029
620,7.038791,3,5,10,0,63,-1028
621,7.050344,1,3,9,2,59,-1038
622,7.061986,4,6,7,4,65,-1030
623,7.073639,0,7,10,0,64,-1034
624,7.085335,3,5,9,-4,65,-1025
625,7.096984,2,5,10,-10,70,-1033
626,7.108635,0,7,10,-3,61,-1031
627,7.120272,4,8,8,1,57,-1038
628,7.131918,3,6,8,-2,59,-1037
629,7.143599,3,7,11,-3,60,-1034
630,7.15526,0,5,8,-4,57,-1028
631,7.166977,2,8,9,-4,65,-1035
632,7.178553,1,6,11,0,67,-1035
633,7.190104,1,7,10,-3,64,-1030
634,7.201664,2,7,9,1,62,-1032
635,7.213218,0,8,10,1,63,-1025
636,7.224787,4,5,7,3,65,-1038
637,7.236326,3,6,10,2,65,-1030
638,7.247888,2,3,9,0,59,-1029
639,7.259513,2,7,9,1,62,-1034
640,7.271163,1,2,11,3,56,-1034
641,7.282836,2,4,8,-1,67,-1031
642,7.294554,0,7,9,-10,61,-1035
643,7.306218,3,6,7,-4,68,-1035
644,7.317874,1,8,7,-5,65,-1031
645,7.329518,1,8,10,-5,67,-1038
646,7.341165,3,5,9,-2,65,-1034
647,7.352837,2,8,10,-3,62,-1031
648,7.364494,4,7,8,-1,67,-1036
649,7.376147,2,7,8,-2,63,-1033
650,7.387841,1,7,10,0,62,-1030
651,7.399491,2,7,8,2,62,-1034
652,7.411142,3,5,10,3,60,-1038
653,7.422822,2,5,9,0,58,-1030
654,7.434471,2,6,13,0,58,-1033
655,7.446125,1,6,11,1,62,-1030
656,7.457773,3,7,9,-1,59,-1033
657,7.46948,3,6,11,-2,70,-1033
658,7.481136,1,6,9,0,64,-1025
659,7.492777,2,5,9,0,62,-1030
660,7.504422,3,5,10,2,65,-1026
661,7.516111,1,6,11,-3,63,-1030
662,7.527763,2,7,10,0,63,-1027
663,7.539452,3,5,10,-3,62,-1037
664,7.551147,2,7,8,-8,65,-1039
665,7.562869,1,6,8,-7,61,-1037
666,7.574545,4,6,9,-5,62,-1032
667,7.586086,2,7,9,1,64,-1034
668,7.597626,2,7,12,-1,57,-1038
669,7.609172,3,6,11,1,60,-1033
670,7.620726,1,7,8,-2,64,-1033
671,7.632288,0,6,11,-2,65,-1027
672,7.64384,3,6,9,-5,62,-1038
673,7.655422,3,4,8,0,65,-1033
674,7.666987,2,8,9,1,56,-1034
675,7.678605,3,7,10,0,63,-1029
676,7.690247,3,6,10,-3,60,-1040
677,7.701901,3,7,8,-2,59,-1027
678,7.713582,5,4,10,-4,64,-1036
679,7.725238,2,8,9,-1,58,-1034
680,7.736891,3,5,9,0,63,-1030
681,7.748555,4,8,9,-1,66,-1038
682,7.760214,2,7,8,-2,63,-1034
683,7.771854,3,7,9,-8,62,-1033
684,7.78353,3,5,9,-3,58,-1034
685,7.795209,2,6,12,-1,62,-1029
686,7.806867,3,5,8,-2,61,-1039
687,7.818551,3,6,10,0,62,-1030
688,7.830207,2,8,8,3,61,-1039
689,7.841859,0,5,8,0,66,-1037
690,7.853512,4,7,9,0,65,-1027
691,7.865161,3,4,9,-1,64,-1031
692,7.876839,1,7,9,-2,64,-1033
693,7.888553,3,6,8,0,62,-1034
694,7.900208,3,6,9,-4,63,-1028
695,7.911775,3,6,9,-3,56,-1041
696,7.923339,2,9,8,-1,59,-1034
697,7.93494,0,8,8,-2,60,-1031
698,7.946504,0,6,9,-2,57,-1031
699,7.958046,3,7,10,2,64,-1032
700,7.969586,3,7,10,3,63,-1030
701,7.981135,2,5,9,-2,68,-1044
702,7.992687,1,8,10,-2,66,-1037
703,8.004357,4,8,12,-7,67,-1034
704,8.01602,5,7,8,-4,64,-1027
705,8.027705,3,7,8,-1,63,-1036
706,8.039366,1,6,10,-3,66,-1035
707,8.05108,3,7,8,-3,62,-1032
708,8.062759,3,5,10,-6,70,-1031
709,8.074414,1,4,10,3,64,-1034
710,8.08608,3,8,9,2,64,-1033
711,8.09774,3,6,10,5,64,-1032
712,8.109393,2,7,7,5,61,-1036
713,8.121067,3,6,10,1,64,-1027
714,8.132718,2,6,7,-4,68,-1031
715,8.144367,0,7,10,-3,64,-1028
716,8.156034,2,6,11,0,66,-1030
717,8.167716,2,7,8,5,59,-1025
718,8.17937,4,8,9,3,59,-1032
719,8.191066,3,4,11,0,65,-1029
720,8.202756,0,4,8,0,61,-1035
721,8.214405,3,7,8,-4,61,-1037
722,8.226075,1,6,8,0,62,-1029
723,8.237725,2,4,9,-2,61,-1028
724,8.249376,2,6,9,-2,65,-1035
725,8.261032,3,7,10,-5,58,-1035
726,8.272861,4,8,9,-4,64,-1029
727,8.284696,2,6,6,0,64,-1039
728,8.296374,1,8,8,4,62,-1035
729,8.308165,3,5,10,4,63,-1033
730,8.319862,3,5,8,0,62,-1036
731,8.331432,2,5,10,-5,65,-1031
732,8.343039,2,7,10,-2,61,-1041
733,8.354603,4,6,9,-3,63,-1029
734,8.366164,2,4,8,-1,64,-1030
735,8.377709,2,6,10,-2,63,-1033
736,8.389273,1,9,11,-2,60,-1025
737,8.400814,2,5,11,-4,66,-1036
738,8.412405,4,6,8,1,62,-1034
739,8.42409,0,6,10,3,62,-1030
740,8.435752,3,4,8,2,61,-1030
741,8.447398,0,6,10,-2,61,-1038
742,8.459086,2,7,9,-3,67,-1033
743,8.470743,1,5,8,-6,65,-1037
744,8.482379,3,6,10,0,68,-1030
745,8.494026,0,6,10,-3,65,-1029
746,8.505676,1,4,7,-3,64,-1031
747,8.517351,2,5,10,-5,63,-1033
748,8.529032,3,7,9,0,65,-1032
749,8.540626,1,6,8,0,63,-1036
750,8.552182,1,7,9,0,60,-1036
751,8.563769,2,6,8,-4,61,-1038
752,8.575419,3,3,9,-4,62,-1032
753,8.586972,2,7,9,-3,62,-1025
754,8.59854,1,8,8,-3,64,-1028
755,8.61013,3,4,10,-1,63,-1035
756,8.621694,0,6,8,0,62,-1034
757,8.633334,3,6,8,0,61,-1027
758,8.644994,1,8,9,-1,61,-1028
759,8.656639,3,6,7,-6,68,-1028
760,8.668289,2,7,9,2,60,-1029
761,8.680136,2,7,9,0,63,-1032
762,8.69185,4,6,10,6,65,-1036
763,8.703517,1,6,9,0,61,-1024
764,8.715196,1,5,9,-7,62,-1030
765,8.726846,2,6,9,-6,70,-1028
766,8.738539,1,8,9,-6,64,-1034
767,8.750098,2,8,9,-1,60,-1035
768,8.761665,3,8,8,0,60,-1034
769,8.773216,1,8,9,0,65,-1032
770,8.784801,3,7,9,1,63,-1031
771,8.796352,2,5,11,1,67,-1030
772,8.807904,3,6,11,-3,63,-1030
773,8.819453,3,6,8,-3,63,-1040
774,8.831054,0,5,8,-4,64,-1032
775,8.842755,4,6,9,-1,60,-1033
776,8.854435,2,3,8,0,56,-1025
777,8.866093,4,5,9,-1,61,-1035
778,8.877744,1,6,9,2,62,-1025
779,8.889407,1,5,8,2,63,-1030
780,8.901069,2,4,11,1,63,-1032
781,8.912728,2,5,8,0,58,-1028
782,8.924377,1,4,8,0,65,-1029
783,8.936065,4,6,9,-6,66,-1034
784,8.947719,0,5,8,-5,61,-1036
785,8.959289,2,5,7,-2,63,-1032
786,8.97087,0,4,10,-3,68,-1033
787,8.982422,2,7,9,-3,64,-1036
788,8.993974,5,6,9,0,65,-1031
789,9.005537,2,7,9,-1,59,-1031
790,9.017166,3,7,11,-4,61,-1036
791,9.028716,2,4,9,-3,62,-1036
792,9.040284,1,6,8,-5,62,-1031
793,9.051898,2,6,9,0,65,-1030
794,9.063577,2,8,8,1,64,-1033
795,9.075242,2,7,9,-2,66,-1026
796,9.086931,1,6,9,-2,62,-1032
797,9.09856,1,4,8,-6,65,-1035
798,9.110215,3,6,8,-3,69,-1034
799,9.121869,1,7,9,-1,64,-1031
800,9.133528,2,4,8,5,66,-1033
801,9.145212,1,5,9,1,63,-1038
802,9.15687,2,5,9,0,64,-1032
803,9.168422,2,6,9,-2,61,-1034
804,9.180027,2,6,10,1,64,-1036
805,9.191574,2,7,11,-5,60,-1036
806,9.203146,1,5,8,-3,64,-1031
807,9.214706,2,6,10,-1,61,-1032
808,9.226257,3,8,8,-1,64,-1025
809,9.23781,2,4,9,1,64,-1035
810,9.249424,1,7,9,0,62,-1037
811,9.261068,5,4,10,-3,61,-1027
812,9.272726,3,5,10,-4,67,-1033
813,9.28438,2,6,9,-3,57,-1038
814,9.296048,3,7,9,-4,66,-1036
815,9.307722,6,6,10,0,62,-1031
816,9.31938,0,8,9,-2,67,-1035
817,9.331064,2,5,9,2,64,-1031
818,9.342727,2,5,10,-3,66,-1036
819,9.354395,4,6,9,0,62,-1030
820,9.366076,3,5,8,1,63,-1032
821,9.377652,2,7,9,-1,61,-1033
822,9.389212,2,4,7,-3,61,-1029
823,9.400777,3,7,9,-5,62,-1037
824,9.412324,1,8,8,-3,59,-1032
825,9.423903,2,6,11,0,56,-1032
826,9.435445,1,6,10,0,66,-1031
827,9.447018,2,7,10,0,64,-1043
828,9.458556,3,4,8,0,62,-1031
829,9.470182,3,4,9,-3,61,-1031
830,9.481844,4,6,9,-2,63,-1033
831,9.493522,2,5,10,1,60,-1033
832,9.505187,4,7,10,-3,63,-1028
833,9.516856,2,6,7,-3,61,-1029
834,9.5285,3,6,9,-2,63,-1029
835,9.540144,2,8,10,-1,64,-1030
836,9.551833,1,4,8,0,64,-1032
837,9.563496,4,7,9,-2,61,-1030
838,9.575175,3,5,8,-5,67,-1027
839,9.586778,3,7,6,-4,62,-1035
840,9.598327,3,7,8,-1,62,-1026
841,9.609898,2,4,9,0,67,-1034
842,9.621438,3,9,9,0,63,-1027
843,9.632979,2,6,8,-5,61,-1037
844,9.644532,3,7,8,-1,63,-1035
845,9.656075,1,6,11,-1,64,-1034
846,9.667649,2,6,10,-2,60,-1028
847,9.6793,3,6,9,-6,62,-1043
848,9.690962,2,5,8,-3,61,-1030
849,9.702624,3,4,8,1,63,-1031
850,9.714268,4,5,10,-2,64,-1033
851,9.725907,3,5,8,0,62,-1033
852,9.737571,3,7,9,2,68,-1033
853,9.749219,1,7,10,-3,61,-1039
854,9.760866,1,5,9,-3,63,-1031
855,9.772548,2,7,9,-5,64,-1033
856,9.784206,4,6,10,-4,65,-1037
857,9.795783,2,8,11,-1,59,-1031
858,9.807344,2,8,8,0,60,-1033
859,9.81892,1,8,9,2,61,-1031
860,9.83046,3,8,8,2,63,-1035
861,9.842007,4,7,11,0,66,-1029
862,9.853557,2,6,10,0,61,-1030
863,9.865102,2,4,7,3,63,-1036
864,9.876657,2,7,9,1,65,-1030
865,9.888388,2,5,9,0,63,-1027
866,9.900067,0,5,8,0,65,-1032
867,9.911727,3,8,10,-4,64,-1035
868,9.923377,1,8,8,-4,61,-1028
869,9.935063,3,7,9,0,64,-1032
870,9.946722,2,7,11,-1,64,-1031
871,9.958371,3,6,7,-1,63,-1032
872,9.970042,2,5,7,-2,63,-1029
873,9.981712,2,6,8,0,60,-1030
874,9.993388,2,7,10,-3,66,-1028
875,10.004946,3,7,11,-2,63,-1035
876,10.01652,4,3,10,-5,64,-1035
877,10.02807,3,7,12,-4,61,-1030
878,10.039635,3,7,9,0,60,-1033
879,10.051191,1,5,10,-3,63,-1031
880,10.06278,0,9,9,0,60,-1031
881,10.074338,4,5,8,0,62,-1033
882,10.085904,2,7,10,-2,63,-1023
883,10.097521,3,5,9,0,64,-1033
884,10.109189,3,4,6,1,68,-1025
885,10.120837,3,8,10,-2,61,-1040
886,10.132478,2,4,12,-1,62,-1037
887,10.144139,4,6,10,-3,67,-1031
888,10.155823,1,7,10,0,64,-1030
889,10.167479,3,7,8,-4,63,-1033
890,10.179148,3,6,9,-5,61,-1025
891,10.190812,2,6,10,-2,64,-1039
892,10.202385,3,5,8,-2,64,-1029
893,10.213924,2,4,10,-3,64,-1038
894,10.225463,1,7,11,-1,63,-1031
895,10.237044,3,4,10,-2,65,-1031
896,10.24877,3,10,9,-8,62,-1038
897,10.260397,2,5,11,-2,63,-1037
898,10.272033,2,6,11,-1,64,-1032
899,10.283654,2,7,9,0,61,-1034
900,10.29523,2,5,7,0,62,-1032
901,10.306793,2,5,8,-2,66,-1035
902,10.318387,1,8,7,0,62,-1036
903,10.329939,4,7,10,-4,65,-1033
904,10.341518,2,4,10,1,63,-1033
905,10.353057,2,4,7,0,63,-1028
906,10.364598,2,8,9,-2,60,-1030
907,10.376149,4,5,10,-1,65,-1031
908,10.387699,2,7,9,-1,64,-1029
909,10.399359,3,5,10,0,61,-1027
910,10.411033,4,6,9,2,58,-1028
911,10.422723,2,5,7,0,63,-1036
912,10.434391,2,5,12,0,63,-1033
913,10.446062,2,6,9,0,66,-1035
914,10.457709,4,5,11,-2,66,-1034
915,10.469358,2,8,8,-7,63,-1030
916,10.481044,2,5,10,-3,61,-1027
917,10.492699,2,6,10,-2,64,-1034
918,10.504364,2,6,10,2,63,-1035
919,10.516015,0,7,9,0,64,-1034
920,10.527703,4,8,9,1,66,-1030
921,10.539334,2,6,9,-1,61,-1032
922,10.55099,2,9,8,-1,63,-1028
923,10.562675,3,6,8,-6,63,-1033
924,10.574331,3,6,9,-3,61,-1025
925,10.585973,1,6,10,-3,60,-1027
926,10.597623,3,6,10,-4,62,-1034
927,10.609294,2,7,7,-2,57,-1032
928,10.620949,2,6,9,1,63,-1022
929,10.632634,2,6,9,-5,58,-1036
930,10.644307,2,5,9,-3,62,-1025
931,10.655989,2,8,8,-2,64,-1035
932,10.66764,5,5,8,-5,60,-1037
933,10.679327,2,8,9,-2,65,-1030
934,10.690978,3,6,9,1,62,-1028
935,10.702629,3,8,9,-4,58,-1038
936,10.714311,3,8,7,-3,64,-1029
937,10.72597,1,5,7,-1,60,-1024
938,10.737529,3,6,8,-1,60,-1033
939,10.749074,1,6,10,-4,65,-1036
940,10.760624,3,7,10,-2,59,-1031
941,10.772172,2,5,9,-4,63,-1037
942,10.783765,2,8,7,0,64,-1029
943,10.795318,0,6,9,0,59,-1030
944,10.806865,1,5,9,4,60,-1031
945,10.818426,2,8,8,-3,62,-1029
946,10.830057,0,6,9,0,57,-1032
947,10.841704,5,5,10,-1,60,-1031
948,10.853356,0,5,11,-5,65,-1030
949,10.864998,1,6,8,-1,63,-1030
950,10.876645,2,6,9,-2,63,-1030
951,10.888311,2,6,7,0,60,-1030
952,10.89998,2,6,8,-3,63,-1033
953,10.911636,2,6,10,-2,61,-1031
954,10.923339,3,6,10,-2,67,-1037
955,10.934986,1,6,9,-1,61,-1035
956,10.946549,1,7,9,-1,63,-1031
957,10.958101,0,7,8,1,67,-1040
958,10.969674,2,7,9,-1,64,-1027
959,10.981253,3,5,10,0,60,-1035
960,10.992801,1,6,8,-3,64,-1030
961,11.004389,0,6,10,-1,61,-1034
962,11.015931,2,7,10,-3,66,-1034
963,11.027518,2,7,8,0,62,-1034
964,11.039142,2,5,10,0,64,-1030
965,11.050816,2,5,7,-1,63,-1031
966,11.062456,0,5,7,3,64,-1038
967,11.074107,1,4,9,0,62,-1028
968,11.085779,3,7,9,-2,69,-1044
969,11.097434,3,6,10,0,66,-1038
970,11.109079,2,7,10,-4,63,-1024
971,11.120726,2,7,8,-1,62,-1036
972,11.132393,4,6,9,-1,63,-1030
973,11.144065,4,6,10,-2,60,-1036
974,11.155718,3,5,10,0,63,-1031
975,11.167432,5,6,9,-2,65,-1029
976,11.17908,3,7,9,-3,61,-1031
977,11.190731,2,6,9,-1,62,-1034
978,11.202378,3,9,11,-1,63,-1029
979,11.214046,3,6,9,-4,65,-1030
980,11.225692,3,6,10,0,63,-1034
981,11.237338,2,7,8,-2,63,-1033
982,11.248988,3,5,8,0,62,-1035
983,11.260656,2,9,8,0,64,-1028
984,11.27232,2,3,10,-1,60,-1027
985,11.283971,2,6,8,-1,61,-1035
986,11.295634,3,7,9,1,64,-1031
987,11.307312,3,5,10,-3,64,-1034
988,11.318957,1,6,10,-1,62,-1024
989,11.330608,3,7,10,-4,60,-1030
990,11.342275,2,6,11,4,63,-1035
991,11.353824,1,8,9,0,61,-1031
992,11.365374,1,7,9,1,61,-1035
993,11.37694,1,5,8,0,63,-1027
994,11.388508,1,7,9,0,63,-1023
995,11.400055,4,7,9,1,64,-1036
996,11.41164,2,7,8,0,62,-1027
997,11.423196,3,5,9,0,62,-1029
998,11.43478,3,4,9,-3,66,-1033
999,11.446398,3,6,10,0,63,-1032
1000,11.458089,1,6,9,0,64,-1035
1001,11.469738,2,7,8,-2,60,-1032
1002,11.481409,0,5,9,-2,67,-1027
1003,11.493059,3,5,9,-2,63,-1032
1004,11.504708,2,6,9,-2,60,-1040
1005,11.51636,2,5,11,-2,64,-1030
1006,11.528006,3,4,10,2,60,-1030
1007,11.53968,2,7,10,0,63,-1035
1008,11.551345,1,6,7,0,63,-1028
1009,11.562909,3,9,8,-3,63,-1029
1010,11.574447,3,7,7,0,63,-1031
1011,11.585993,2,6,7,-1,63,-1033
1012,11.597537,3,6,9,0,63,-1030
1013,11.60908,3,6,9,-1,64,-1029
1014,11.620619,2,5,10,0,60,-1035
1015,11.632165,3,5,9,0,64,-1029
1016,11.643773,1,9,11,0,60,-1034
1017,11.655415,2,6,10,-3,66,-1030
1018,11.667076,3,6,8,-2,62,-1028
1019,11.678725,2,7,10,-2,63,-1029
1020,11.690389,3,6,9,-3,66,-1034
1021,11.702055,1,7,8,0,58,-1036
1022,11.713701,2,6,9,-2,63,-1033
1023,11.725354,1,6,11,-2,63,-1028
1024,11.736994,3,5,9,-1,65,-1040
1025,11.748685,2,8,9,-2,63,-1037
1026,11.760348,2,6,9,1,63,-1032
1027,11.771906,3,6,11,1,62,-1032
1028,11.783451,2,6,9,0,64,-1028
1029,11.795022,2,4,10,-2,65,-1029
1030,11.806548,2,7,8,-3,66,-1035
1031,11.818096,5,5,8,-1,62,-1038
1032,11.829635,2,6,10,-2,61,-1033
1033,11.841173,3,6,8,-4,62,-1031
1034,11.852719,3,7,8,1,64,-1035
1035,11.864337,3,7,8,0,57,-1032
1036,11.876,1,6,10,-1,64,-1031
1037,11.887668,2,6,9,-2,63,-1035
1038,11.89933,3,5,9,-5,62,-1033
1039,11.910978,3,7,11,-3,61,-1030
1040,11.922628,3,8,8,-4,62,-1031
1041,11.934294,3,7,9,0,60,-1041
1042,11.945938,2,7,9,-4,65,-1027
1043,11.95762,2,8,9,0,63,-1037
1044,11.969287,2,6,10,-1,65,-1030
1045,11.980881,4,8,11,0,63,-1030
1046,11.992422,2,6,11,1,68,-1037
1047,12.004001,2,6,9,-1,62,-1027
1048,12.015554,4,5,8,-5,63,-1029
1049,12.027109,4,7,9,0,65,-1030
1050,12.038675,2,6,8,3,64,-1035
1051,12.050246,2,6,8,-2,64,-1033
1052,12.061803,2,6,7,-3,64,-1041
1053,12.073435,3,7,11,-6,61,-1028
1054,12.085089,3,7,11,-3,61,-1030
1055,12.096752,1,8,10,1,63,-1028
1056,12.108486,2,7,9,2,64,-1035
1057,12.120133,1,6,9,1,63,-1029
1058,12.131826,2,7,10,-3,60,-1033
1059,12.143483,2,5,9,0,61,-1039
1060,12.155139,2,6,8,0,68,-1028
1061,12.166832,3,5,9,-1,57,-1038
1062,12.178477,2,7,10,-1,59,-1030
1063,12.190032,2,6,9,-2,64,-1023
1064,12.201578,3,4,9,-4,64,-1031
1065,12.213126,1,6,8,-1,62,-1036
1066,12.224678,2,4,6,-3,63,-1029
1067,12.236247,2,8,10,1,63,-1029
1068,12.247801,2,5,8,1,62,-1031
1069,12.259373,4,7,8,-2,65,-1032
1070,12.270936,2,5,8,-2,59,-1028
1071,12.282561,2,7,9,-2,61,-1040
1072,12.29421,1,3,9,1,64,-1035
1073,12.305853,3,5,9,-4,63,-1035
1074,12.317521,3,7,9,1,62,-1028
1075,12.329181,3,9,9,-1,62,-1033
1076,12.340831,3,6,7,-2,61,-1030
1077,12.352475,2,7,9,-3,64,-1032
1078,12.364118,2,7,10,-4,63,-1030
1079,12.375796,3,4,8,-2,63,-1037
1080,12.387466,3,5,10,1,60,-1027
1081,12.399117,3,6,9,-2,62,-1034
1082,12.410815,2,4,9,0,65,-1038
1083,12.422457,1,7,9,-1,61,-1034
1084,12.434103,2,6,8,-3,63,-1033
1085,12.445793,1,5,9,-1,61,-1032
1086,12.457445,3,7,9,-3,64,-1033
1087,12.469098,5,5,11,-1,64,-1034
1088,12.4808,2,5,9,0,61,-1025
1089,12.492455,2,6,10,-2,62,-1028
1090,12.504012,1,6,9,-1,65,-1034
1091,12.515626,2,9,9,1,61,-1030
1092,12.527185,3,6,6,-4,59,-1032
1093,12.53877,2,5,9,-2,66,-1041
1094,12.550315,2,7,10,0,60,-1035
1095,12.561858,2,7,9,0,68,-1024
1096,12.573405,4,8,10,-1,65,-1030
1097,12.584962,1,6,10,-5,65,-1031
1098,12.596579,2,6,8,-1,63,-1031
1099,12.608246,3,5,7,1,62,-1034
1100,12.619903,3,6,8,-5,63,-1036
1101,12.631583,3,5,8,1,65,-1030
1102,12.643245,3,5,9,0,63,-1036
1103,12.654892,2,5,8,-6,64,-1028
1104,12.666558,1,6,9,0,61,-1023
1105,12.678212,3,8,11,-4,61,-1038
1106,12.689885,1,5,11,-1,61,-1032
1107,12.701552,2,6,9,0,62,-1036
1108,12.713104,3,8,9,-6,65,-1023
1109,12.724657,2,5,10,-3,65,-1030
1110,12.736235,2,5,9,0,66,-1027
1111,12.747757,1,7,10,-1,66,-1031
1112,12.759274,3,5,8,-6,64,-1031
1113,12.77084,3,4,10,-1,60,-1027
1114,12.782379,2,8,9,0,64,-1033
1115,12.79393,2,6,10,-1,63,-1038
1116,12.805559,2,7,8,-3,59,-1032
1117,12.817203,3,9,8,-1,65,-1032
1118,12.828845,2,6,9,-1,61,-1037
1119,12.840516,1,7,10,-5,58,-1030
1120,12.852199,2,7,9,-2,65,-1028
1121,12.863846,1,8,10,-1,66,-1029
1122,12.875497,2,6,10,-5,63,-1034
1123,12.887156,2,7,9,-2,66,-1023
1124,12.898829,0,8,8,-1,63,-1030
1125,12.910472,2,6,8,0,63,-1035
1126,12.922117,2,5,9,-5,65,-1031
1127,12.933802,4,6,7,0,66,-1034
1128,12.945447,4,7,9,-1,60,-1041
1129,12.957091,3,7,9,-4,62,-1031
1130,12.968763,2,5,10,-6,65,-1027
1131,12.980421,4,5,10,0,68,-1029
1132,12.992098,1,7,8,-1,65,-1035
1133,13.003769,0,5,9,-1,61,-1027
1134,13.015321,3,5,9,-1,64,-1028
1135,13.026871,2,8,9,-1,64,-1027
1136,13.038421,2,6,8,-3,63,-1029
1137,13.049988,3,7,7,-1,60,-1032
1138,13.061533,4,6,8,-1,63,-1029
1139,13.073113,3,5,9,-1,59,-1028
1140,13.084646,3,5,11,-4,63,-1033
1141,13.096194,1,6,12,-1,66,-1032
1142,13.107808,5,0,13,-1,63,-1027
1143,13.119429,4,5,11,1,65,-1031
1144,13.131076,1,8,9,0,63,-1040
1145,13.14275,3,6,11,-1,63,-1037
1146,13.154415,3,7,8,-2,63,-1029
1147,13.166068,3,6,7,0,67,-1039
1148,13.177716,3,7,8,-1,62,-1024
1149,13.189382,2,7,11,0,64,-1032
1150,13.201035,4,6,7,0,63,-1029
1151,13.212683,1,8,9,2,64,-1032
1152,13.224358,2,3,10,1,64,-1037
1153,13.236023,1,6,7,-2,62,-1029
1154,13.247703,2,4,9,-2,64,-1031
1155,13.259328,2,7,9,0,66,-1033
1156,13.270978,2,6,6,0,61,-1034
1157,13.282629,2,6,9,-2,59,-1028
1158,13.294292,3,5,8,0,61,-1028
1159,13.305941,3,7,9,-2,62,-1031
1160,13.317588,5,4,9,-2,60,-1028
1161,13.329135,3,8,10,-3,64,-1036
1162,13.340678,2,6,9,1,63,-1027
1163,13.352226,0,6,9,1,63,-1036
1164,13.363756,3,7,9,0,64,-1031
1165,13.375269,2,8,10,0,58,-1036
1166,13.386839,2,5,9,1,65,-1034
1167,13.398376,1,5,10,0,59,-1029
1168,13.409945,3,6,11,-3,65,-1032
1169,13.421566,2,6,10,-2,66,-1036
1170,13.433214,1,7,11,-3,63,-1025
1171,13.444864,4,6,11,-2,62,-1031
1172,13.456538,2,7,10,-2,64,-1034
1173,13.468188,3,5,7,-2,62,-1030
1174,13.479844,2,6,9,-4,60,-1038
1175,13.49152,2,6,8,0,65,-1032
1176,13.503188,4,8,9,0,60,-1033
1177,13.51483,2,6,8,-6,64,-1035
1178,13.526502,3,7,12,0,63,-1029
1179,13.538085,4,7,10,0,62,-1026
1180,13.549635,1,5,10,-3,65,-1033
1181,13.561177,3,7,9,-5,58,-1033
1182,13.572725,3,7,8,-2,62,-1029
1183,13.584274,2,6,8,-3,60,-1036
1184,13.595852,3,8,9,0,65,-1031
1185,13.607411,2,4,8,0,64,-1027
1186,13.618995,4,6,9,0,59,-1025
1187,13.63062,3,6,11,-2,63,-1027
1188,13.642279,3,9,7,-4,60,-1027
1189,13.653927,1,8,8,-7,63,-1032
1190,13.665578,2,6,10,-6,61,-1034
1191,13.677222,2,6,8,1,64,-1035
1192,13.688868,2,7,7,-2,64,-1027
1193,13.70054,2,8,8,1,61,-1032
1194,13.712197,1,6,10,-5,60,-1028
1195,13.723883,1,8,9,-1,61,-1039
1196,13.735539,2,8,10,0,64,-1031
1197,13.747106,1,6,9,1,63,-1024
1198,13.758678,1,7,8,-1,61,-1037
1199,13.770231,2,8,9,-3,62,-1034
1200,13.781791,2,6,11,-4,64,-1031
1201,13.793374,3,6,9,0,66,-1031
1202,13.804922,4,7,8,0,62,-1036
1203,13.816486,3,5,10,1,61,-1033
1204,13.828038,3,6,9,2,66,-1030
1205,13.839668,4,6,11,-2,59,-1034
1206,13.851329,2,5,11,0,62,-1036
1207,13.863006,2,7,9,-2,63,-1035
1208,13.87469,2,6,8,-5,64,-1038
1209,13.886352,2,6,10,0,60,-1030
1210,13.898048,2,9,11,-1,63,-1037
1211,13.909702,0,4,9,-1,66,-1033
1212,13.921366,3,6,7,0,64,-1035
1213,13.933039,3,6,9,2,63,-1029
1214,13.944695,2,7,8,-4,65,-1030
1215,13.956249,5,6,9,0,63,-1037
1216,13.967889,1,8,11,-6,63,-1033
1217,13.979486,2,6,11,-1,59,-1041
1218,13.991032,2,6,8,1,63,-1035
1219,14.00259,2,5,11,-3,61,-1031
1220,14.014142,3,7,11,-4,61,-1035
1221,14.02571,2,6,10,0,66,-1031
1222,14.03728,2,7,9,-3,63,-1038
1223,14.04891,3,6,8,1,62,-1031
1224,14.060562,1,4,9,0,62,-1037
1225,14.072214,1,5,10,0,66,-1034
1226,14.083852,3,8,9,-1,63,-1035
1227,14.095529,3,5,10,-5,66,-1034
1228,14.1072,3,7,8,0,60,-1023
1229,14.118815,3,6,9,3,66,-1031
1230,14.130462,3,7,10,-1,66,-1035
1231,14.142167,3,6,10,0,65,-1033
1232,14.153821,3,6,9,0,65,-1033
1233,14.165386,4,8,6,4,63,-1035
1234,14.176967,1,4,8,0,58,-1033
1235,14.188511,3,5,9,0,63,-1024
1236,14.200058,3,7,9,-2,65,-1032
1237,14.211638,1,3,10,-5,59,-1036
1238,14.223211,3,6,8,0,66,-1034
1239,14.234792,3,6,11,1,59,-1035
1240,14.246371,3,5,9,-2,62,-1033
1241,14.258021,1,6,7,0,65,-1034
1242,14.269838,4,5,11,-1,65,-1037
1243,14.281648,0,5,9,-2,62,-1031
1244,14.293319,2,5,10,0,61,-1030
1245,14.305007,4,5,11,-1,66,-1033
1246,14.316663,2,6,9,-3,62,-1037
1247,14.328316,3,7,8,-2,63,-1032
1248,14.340043,2,8,9,-2,67,-1032
1249,14.351836,3,7,9,-4,66,-1028
1250,14.363551,3,7,9,-3,62,-1032
1251,14.375161,2,5,8,-2,64,-1032
1252,14.386765,0,6,10,-2,66,-1025
1253,14.398311,3,6,8,0,62,-1027
1254,14.409863,1,8,10,-2,61,-1031
1255,14.421411,1,6,10,-1,67,-1032
1256,14.432976,3,7,7,-5,60,-1032
1257,14.444529,2,6,10,-2,63,-1037
1258,14.456109,2,6,9,-1,65,-1032
1259,14.467786,2,6,8,1,64,-1033
1260,14.479452,3,6,9,-1,67,-1032
1261,14.491075,2,6,7,-2,63,-1030
1262,14.502751,3,6,10,3,66,-1033
1263,14.514409,2,7,10,-4,63,-1039
1264,14.526062,2,6,8,0,60,-1032
1265,14.537726,0,5,10,-3,59,-1037
1266,14.549392,2,7,8,-4,63,-1032
1267,14.561044,3,6,6,-3,64,-1032
1268,14.572609,3,9,7,0,65,-1035
1269,14.584151,3,8,8,-4,62,-1027
1270,14.595717,2,8,11,-2,59,-1039
1271,14.607274,4,7,10,-2,62,-1031
1272,14.618808,4,5,9,-4,64,-1033
1273,14.630396,1,6,9,-4,68,-1032
1274,14.641957,2,5,9,-2,59,-1029
1275,14.653596,3,6,8,-3,63,-1033
1276,14.665244,3,5,11,0,65,-1031
1277,14.676922,3,6,11,0,67,-1030
1278,14.688583,2,6,11,1,60,-1027
1279,14.700233,2,5,9,-3,61,-1021
1280,14.711942,2,7,11,0,61,-1036
1281,14.723602,3,5,11,1,65,-1038
1282,14.735304,1,6,9,1,61,-1036
1283,14.746958,3,4,9,-3,63,-1031
1284,14.758649,3,6,9,0,63,-1034
1285,14.770344,1,5,8,1,60,-1037
1286,14.781897,3,5,10,-2,64,-1031
1287,14.793454,3,5,10,-3,60,-1033
1288,14.805005,3,5,8,4,63,-1033
1289,14.816551,2,8,9,-1,62,-1030
1290,14.828094,2,7,10,-4,64,-1035
1291,14.839649,2,4,9,-3,60,-1030
1292,14.851224,4,5,9,-1,64,-1027
1293,14.862804,3,9,8,-3,59,-1031
1294,14.874416,3,6,7,-2,63,-1026
1295,14.886121,3,6,9,-1,65,-1031
1296,14.897782,4,7,10,1,67,-1033
1297,14.90943,3,5,9,-1,63,-1033
1298,14.921075,3,5,10,0,67,-1033
1299,14.93274,4,6,9,-2,63,-1031
1300,14.944396,3,4,10,-3,63,-1031
1301,14.95606,1,5,8,-1,62,-1029
1302,14.967738,4,5,9,-3,64,-1030
1303,14.979394,0,5,10,-5,60,-1031
1304,14.990952,2,6,7,0,59,-1030
1305,15.002502,3,5,8,0,63,-1032
1306,15.014049,0,7,10,4,62,-1038
1307,15.025598,2,6,8,-2,67,-1032
1308,15.037149,3,5,9,2,59,-1038
1309,15.048718,0,7,10,1,62,-1028
1310,15.060263,1,8,9,-2,62,-1034
1311,15.071885,2,7,7,-2,63,-1034
1312,15.083523,3,8,10,-4,62,-1026
1313,15.095198,3,8,10,0,64,-1032
1314,15.106833,3,7,9,0,64,-1035
1315,15.11851,3,4,9,2,59,-1031
1316,15.130168,2,5,9,-2,64,-1027
1317,15.14182,2,9,8,-2,60,-1037
1318,15.153487,1,6,10,-2,59,-1035
1319,15.165144,3,6,10,-2,64,-1040
1320,15.176816,3,7,8,-2,66,-1036
1321,15.188466,3,7,8,-1,64,-1038
1322,15.20002,2,5,10,1,66,-1030
1323,15.211581,2,8,8,-5,63,-1033
1324,15.223156,3,5,11,0,63,-1029
1325,15.234727,3,6,8,-1,60,-1035
1326,15.246279,4,3,8,-3,65,-1032
1327,15.257845,0,8,9,-3,67,-1035
1328,15.269383,1,5,9,3,63,-1033
1329,15.280934,2,8,10,-2,61,-1034
1330,15.292552,3,7,10,-5,63,-1040
1331,15.304197,4,7,8,-2,61,-1030
1332,15.315845,4,8,9,-4,65,-1035
1333,15.327521,2,5,8,-1,65,-1035
1334,15.339198,2,7,10,0,63,-1034
1335,15.350819,1,7,8,0,59,-1036
1336,15.362493,3,6,10,0,66,-1032
1337,15.37418,0,6,11,-3,61,-1040
1338,15.38584,2,6,10,-3,60,-1030
1339,15.397508,2,6,10,-6,63,-1030
1340,15.409098,1,4,11,-3,61,-1033
1341,15.420667,3,7,9,0,63,-1034
1342,15.432233,1,6,8,1,66,-1029
1343,15.443785,3,5,8,-2,64,-1035
1344,15.45535,1,6,10,-1,68,-1034
1345,15.466914,2,6,7,1,67,-1029
1346,15.478457,2,6,7,-2,60,-1032
1347,15.490008,3,7,10,-6,67,-1033
1348,15.501693,2,6,9,-2,65,-1029
1349,15.513372,4,7,8,-2,65,-1034
1350,15.525029,2,7,8,-2,65,-1034
1351,15.536684,0,7,5,-1,64,-1032
1352,15.548345,2,7,9,0,64,-1032
1353,15.560019,2,7,10,-3,66,-1026
1354,15.571702,0,6,10,-6,62,-1033
1355,15.583343,3,6,8,1,65,-1035
1356,15.595015,3,6,7,-2,62,-1037
1357,15.606686,3,5,9,-3,63,-1036
1358,15.618346,3,5,8,0,63,-1037
1359,15.630015,4,6,9,-2,61,-1033
1360,15.641663,4,6,10,-4,61,-1028
1361,15.653313,2,6,9,1,62,-1031
1362,15.664958,3,5,10,-3,61,-1030
1363,15.676621,2,6,7,-2,61,-1033
1364,15.688283,2,5,8,0,67,-1035
1365,15.700014,4,4,9,-2,61,-1037
1366,15.711664,1,7,7,-5,68,-1032
1367,15.72333,4,8,10,-4,62,-1032
1368,15.735007,4,7,12,0,65,-1036
1369,15.746673,4,6,11,-1,64,-1039
1370,15.758326,1,6,10,-2,63,-1031
1371,15.769996,2,5,9,1,61,-1031
1372,15.78165,2,6,9,2,64,-1029
1373,15.793301,2,7,7,0,64,-1033
1374,15.80504,2,5,9,-2,64,-1032
1375,15.816696,2,6,11,-1,64,-1034
1376,15.82825,2,6,11,0,61,-1037
1377,15.839837,4,6,10,-1,61,-1035
1378,15.851396,2,7,9,1,61,-1029
1379,15.862976,1,6,7,-2,67,-1033
1380,15.874536,2,9,10,-3,64,-1030
1381,15.886076,1,5,7,0,63,-1038
1382,15.897617,3,4,10,0,63,-1036
1383,15.909203,0,7,8,-3,62,-1037
1384,15.920825,0,7,8,-1,61,-1039
1385,15.932473,2,4,10,-1,60,-1028
1386,15.944128,2,7,11,-1,62,-1027
1387,15.955784,4,5,8,-2,63,-1035
1388,15.967458,1,4,9,2,65,-1033
1389,15.979124,3,6,10,0,68,-1037
1390,15.990808,2,7,9,0,63,-1026
1391,16.002447,2,6,10,0,64,-1025
1392,16.014106,1,7,13,0,63,-1033
1393,16.025785,1,8,9,-4,67,-1030
1394,16.037349,4,6,9,-3,63,-1034
1395,16.048895,3,8,7,0,67,-1033
1396,16.060445,4,6,8,-2,63,-1028
1397,16.071994,3,5,10,-2,65,-1032
1398,16.083511,2,6,8,-3,60,-1032
1399,16.095049,4,6,9,-2,63,-1028
1400,16.1066,2,6,10,-1,61,-1031
1401,16.118211,3,5,11,-5,62,-1038
1402,16.129846,2,7,7,-2,62,-1038
1403,16.141513,2,6,7,0,63,-1031
1404,16.153167,2,6,10,2,65,-1029
1405,16.164826,2,7,9,1,62,-1031
1406,16.176475,2,6,10,0,63,-1033
1407,16.18816,3,6,9,0,62,-1025
1408,16.199839,3,5,8,-2,60,-1031
1409,16.211519,3,5,10,0,63,-1028
1410,16.223196,0,5,9,2,61,-1030
1411,16.234821,3,8,10,1,65,-1032
1412,16.246496,2,5,9,-5,62,-1035
1413,16.258145,1,6,8,0,64,-1027
1414,16.269791,2,7,10,0,63,-1031
1415,16.281436,2,5,9,-2,63,-1032
1416,16.293106,3,7,9,-5,66,-1033
1417,16.304755,2,6,8,2,63,-1028
1418,16.3164,1,4,8,0,66,-1034
1419,16.328101,2,6,10,-2,63,-1029
1420,16.33977,3,8,9,-1,63,-1030
1421,16.351474,2,7,9,1,61,-1035
1422,16.363143,3,5,9,-1,63,-1031
1423,16.374805,2,6,8,-3,64,-1039
1424,16.386463,2,6,8,-3,60,-1032
1425,16.398124,1,7,9,-2,64,-1035
1426,16.409773,1,7,9,0,60,-1032
1427,16.421419,2,8,8,1,62,-1038
1428,16.433099,2,5,8,-5,61,-1035
1429,16.444772,2,8,8,-3,63,-1032
1430,16.456415,2,6,8,0,60,-1029
1431,16.468093,2,3,10,-4,64,-1032
1432,16.479766,2,8,8,0,62,-1033
1433,16.49144,3,4,7,-3,66,-1029
1434,16.503083,1,6,8,0,64,-1029
1435,16.514752,3,5,10,-3,65,-1032
1436,16.526403,1,6,10,1,66,-1028
1437,16.538085,2,5,8,-2,66,-1033
1438,16.549766,3,4,10,-1,64,-1029
1439,16.561437,3,7,9,-1,65,-1032
1440,16.57313,4,4,11,0,61,-1028
1441,16.584774,4,5,10,-4,60,-1035
1442,16.596416,3,6,8,0,62,-1030
1443,16.608124,3,8,8,-1,67,-1032
1444,16.619765,2,7,9,-4,62,-1033
1445,16.63144,2,6,9,-1,61,-1036
1446,16.643103,2,6,7,0,61,-1028
1447,16.654767,3,5,10,-4,65,-1028
1448,16.666323,2,7,8,-5,62,-1037
1449,16.677873,2,7,9,-5,63,-1028
1450,16.689443,4,6,11,0,66,-1032
1451,16.700989,4,6,9,1,60,-1026
1452,16.712532,2,8,10,1,67,-1032
1453,16.724082,3,6,11,-2,65,-1032
1454,16.735638,2,6,9,-1,63,-1024
1455,16.74722,2,7,9,2,61,-1032
1456,16.758926,2,5,10,-1,60,-1029
1457,16.770609,1,4,9,0,66,-1034
1458,16.782268,1,7,8,-3,63,-1032
1459,16.793919,3,7,9,-2,66,-1032
1460,16.805587,3,5,10,-3,64,-1034
1461,16.817252,3,5,9,1,61,-1029
1462,16.828905,2,6,9,-3,66,-1029
1463,16.840556,0,5,8,-2,62,-1028
1464,16.852263,3,5,9,0,64,-1027
1465,16.86392,3,5,8,3,66,-1024
1466,16.875516,2,6,11,-4,67,-1031
1467,16.887104,5,5,9,-2,65,-1038
1468,16.898674,2,9,10,-2,62,-1027
1469,16.910215,3,7,9,-3,65,-1035
1470,16.921754,1,7,9,-4,62,-1036
1471,16.93332,2,6,10,-1,63,-1035
1472,16.944869,3,7,10,0,65,-1029
1473,16.956486,1,5,9,1,62,-1035
1474,16.968233,2,6,8,-1,63,-1035
1475,16.979913,2,6,11,-2,62,-1031
1476,16.991589,3,7,9,-2,59,-1031
1477,17.003265,3,8,9,-3,65,-1039
1478,17.014943,2,8,8,-2,59,-1031
1479,17.026562,2,8,8,0,59,-1037
1480,17.038216,3,6,10,-5,61,-1034
1481,17.049901,1,6,8,-4,66,-1034
1482,17.061542,4,6,9,2,65,-1033
1483,17.073101,1,7,9,3,62,-1030
1484,17.084661,4,6,9,1,65,-1031
1485,17.09621,3,6,8,-3,60,-1031
1486,17.107747,2,8,10,0,67,-1037
1487,17.119269,3,6,10,-2,61,-1035
1488,17.130787,3,8,10,-3,60,-1030
1489,17.142335,1,8,9,1,64,-1025
1490,17.153891,3,6,9,3,62,-1032
1491,17.165515,0,5,9,-1,65,-1032
1492,17.177173,3,8,10,1,62,-1035
1493,17.188867,2,5,9,0,63,-1025
1494,17.200521,5,3,10,0,66,-1043
1495,17.212177,0,8,9,-1,64,-1032
1496,17.22385,3,6,9,1,62,-1037
1497,17.235518,3,5,9,0,56,-1036
1498,17.24721,2,7,8,-2,64,-1026
1499,17.258872,2,6,9,-4,62,-1036
1500,17.27062,0,8,10,0,65,-1034
1501,17.282205,4,4,9,-1,60,-1030
1502,17.293756,2,6,8,-2,70,-1035
1503,17.305358,1,6,8,-3,64,-1033
1504,17.316909,4,6,8,-2,63,-1024
1505,17.32846,2,8,8,-2,61,-1032
1506,17.340074,3,7,10,0,64,-1021
1507,17.351639,2,5,7,-2,61,-1031
1508,17.363226,1,6,8,0,60,-1031
1509,17.374831,2,6,11,-4,58,-1030
1510,17.386501,1,3,9,-1,59,-1032
1511,17.398159,1,7,8,-6,60,-1033
1512,17.409832,2,9,9,0,62,-1033
1513,17.421507,3,5,8,0,64,-1035
1514,17.433167,2,4,9,1,63,-1038
1515,17.444862,3,5,6,0,63,-1033
1516,17.456518,2,6,10,-2,59,-1033
1517,17.468185,3,4,11,-4,60,-1031
1518,17.479871,2,6,11,-1,63,-1035
1519,17.491462,0,6,8,-3,64,-1037
1520,17.503031,1,6,9,-5,61,-1036
1521,17.514589,2,7,11,-4,63,-1025
1522,17.526126,2,7,9,0,67,-1033
1523,17.537682,1,9,10,-4,65,-1027
1524,17.549227,2,6,7,-2,63,-1034
1525,17.560767,2,7,10,0,62,-1033
1526,17.572323,4,5,11,-3,59,-1034
1527,17.583981,3,7,10,1,59,-1029
1528,17.595639,3,8,8,-1,59,-1029
1529,17.60734,3,6,9,-1,57,-1034
1530,17.619,3,6,8,0,64,-1032
1531,17.630673,4,5,9,-2,63,-1036
1532,17.642336,1,7,11,0,64,-1026
1533,17.654001,0,4,9,0,64,-1029
1534,17.66564,3,5,9,3,64,-1034
1535,17.677381,3,5,9,2,66,-1034
1536,17.689039,3,7,11,-6,61,-1030
1537,17.700601,0,7,8,-2,60,-1037
1538,17.712171,2,8,10,-7,60,-1031
1539,17.723747,2,5,9,-6,61,-1040
1540,17.73527,4,7,7,-2,65,-1023
1541,17.746792,2,9,9,5,60,-1030
1542,17.758338,0,4,9,1,60,-1032
1543,17.769902,2,6,9,6,65,-1022
1544,17.781477,3,6,10,-1,66,-1028
1545,17.793191,1,7,8,0,60,-1029
1546,17.804845,2,5,6,-1,66,-1043
1547,17.816527,2,5,8,3,63,-1036
1548,17.828189,1,6,10,0,58,-1029
1549,17.839854,2,5,7,2,59,-1032
1550,17.851516,3,5,8,0,59,-1038
1551,17.863202,1,8,10,-4,60,-1029
1552,17.874822,2,7,8,-5,66,-1030
1553,17.886486,2,3,8,-2,68,-1038
1554,17.898148,0,7,9,1,67,-1028
1555,17.909708,3,5,7,0,71,-1034
1556,17.921257,4,7,11,-3,65,-1034
1557,17.932805,2,6,9,-2,64,-1026
1558,17.944355,1,7,7,-4,59,-1035
1559,17.955938,1,6,10,-3,59,-1038
1560,17.967507,2,9,8,0,59,-1032
1561,17.979031,3,6,10,-1,59,-1031
1562,17.990559,3,5,9,0,63,-1037
1563,18.002175,3,6,10,1,61,-1032
1564,18.01382,2,7,9,1,61,-1036
1565,18.025492,3,8,10,1,62,-1038
1566,18.03716,3,5,10,2,63,-1037
1567,18.048805,2,8,11,0,61,-1035
1568,18.060481,3,6,9,-1,63,-1029
1569,18.072132,3,6,8,-1,61,-1033
1570,18.083789,2,6,11,-1,61,-1034
1571,18.095488,3,8,7,-2,60,-1028
1572,18.107151,3,5,8,-4,61,-1038
1573,18.118712,2,7,5,-2,59,-1034
1574,18.130261,2,8,11,1,64,-1031
1575,18.141811,2,7,9,-3,64,-1037
1576,18.153358,3,4,8,3,66,-1035
1577,18.164904,2,5,9,-3,62,-1033
1578,18.176454,3,7,9,-2,67,-1033
1579,18.188008,2,6,7,-5,58,-1037
1580,18.19959,1,7,9,-1,62,-1028
1581,18.211251,3,5,9,2,61,-1034
1582,18.222944,1,5,8,0,64,-1031
1583,18.234625,3,5,9,1,62,-1031
1584,18.246298,1,6,10,0,65,-1033
1585,18.257997,1,6,13,0,62,-1036
1586,18.269682,3,7,7,0,62,-1040
1587,18.281341,1,4,7,-3,64,-1031
1588,18.293001,1,8,9,0,66,-1034
1589,18.304673,2,6,10,-1,60,-1029
1590,18.316386,4,7,8,-2,64,-1030
1591,18.327954,2,7,9,-2,68,-1034
1592,18.339504,1,8,7,-1,59,-1037
1593,18.351033,2,3,11,2,61,-1035
1594,18.362548,1,6,8,-3,60,-1034
1595,18.374089,2,8,9,-6,65,-1031
1596,18.385632,2,4,10,2,61,-1038
1597,18.397185,3,7,10,2,66,-1027
1598,18.408749,1,3,10,0,69,-1013
1599,18.420416,4,5,7,0,58,-1034
1600,18.432148,-5,7,11,4,73,-1034
1601,18.443832,11,4,9,7,60,-1030
1602,18.455506,0,6,11,0,62,-1049
1603,18.467196,1,7,10,-10,61,-1022
1604,18.478827,4,5,10,-13,64,-1032
1605,18.490495,0,6,11,-6,62,-1038
1606,18.50215,2,9,9,4,61,-1033
1607,18.513815,2,7,7,14,62,-1035
1608,18.525484,4,6,8,7,65,-1033
1609,18.537131,5,5,7,-3,65,-1034
1610,18.548781,2,6,11,-11,65,-1027
1611,18.560424,2,7,10,-10,66,-1028
1612,18.572106,0,4,9,-1,62,-1030
1613,18.586419,3,6,7,8,64,-1027
1614,18.598127,1,6,9,0,58,-1035
1615,18.609781,3,7,8,-1,64,-1030
1616,18.621532,3,7,10,-5,68,-1031
1617,18.633236,4,6,10,-4,59,-1030
1618,18.644845,2,6,8,4,66,-1033
1619,18.656464,3,7,8,6,64,-1039
1620,18.668015,1,5,8,2,64,-1037
1621,18.679575,3,4,9,0,68,-1022
1622,18.691174,4,6,9,-13,63,-1038
1623,18.70274,2,5,9,-9,62,-1035
1624,18.714311,3,7,10,-1,61,-1033
1625,18.725877,1,7,10,1,60,-1033
1626,18.737498,2,6,9,3,64,-1035
1627,18.749155,3,7,10,1,60,-1032
1628,18.76084,3,6,8,3,64,-1034
1629,18.772495,3,6,8,0,64,-1035
1630,18.784191,0,4,9,-4,66,-1034
1631,18.795884,0,4,8,-2,65,-1031
1632,18.80757,0,7,11,2,65,-1029
1633,18.819252,2,7,8,0,63,-1030
1634,18.830951,3,5,9,0,60,-1029
1635,18.842623,3,7,10,-1,61,-1037
1636,18.854181,2,6,10,-1,59,-1027
1637,18.865744,2,5,11,-1,59,-1030
1638,18.877329,2,7,10,1,63,-1037
1639,18.888885,3,5,11,1,63,-1042
1640,18.900445,2,7,7,1,62,-1035
1641,18.911988,1,5,9,-5,62,-1029
1642,18.923515,3,7,9,-5,60,-1029
1643,18.935049,1,7,9,-3,64,-1027
1644,18.946738,1,6,10,0,63,-1033
1645,18.958389,2,7,9,5,62,-1028
1646,18.970044,2,6,8,3,61,-1023
1647,18.981719,2,7,9,-2,65,-1029
1648,18.993376,0,8,10,-2,58,-1027
1649,19.005033,2,6,9,1,64,-1035
1650,19.016679,2,4,9,-3,64,-1031
1651,19.028326,2,6,10,-2,67,-1035
1652,19.04002,2,8,10,-2,67,-1034
1653,19.051702,1,6,7,0,63,-1031
1654,19.063339,4,6,8,2,62,-1027
1655,19.075002,4,9,12,0,64,-1030
1656,19.086668,3,7,9,-3,58,-1036
1657,19.098312,2,6,8,4,63,-1027
1658,19.10998,3,7,9,-1,61,-1034
1659,19.121629,2,4,9,2,58,-1038
1660,19.133277,1,5,8,1,59,-1031
1661,19.144967,1,5,9,-2,62,-1034
1662,19.156622,4,5,11,-3,63,-1040
1663,19.168273,3,7,11,-7,66,-1036
1664,19.179969,4,7,8,-5,68,-1031
1665,19.191625,3,8,10,0,62,-1038
1666,19.203303,4,8,10,-2,62,-1030
1667,19.214981,1,8,9,0,60,-1033
1668,19.226632,3,7,9,-4,60,-1027
1669,19.23828,0,5,9,1,60,-1032
1670,19.250015,5,10,9,0,60,-1034
1671,19.261643,1,6,9,-3,62,-1033
1672,19.273216,2,5,8,0,64,-1031
1673,19.284758,1,6,8,-3,63,-1035
1674,19.2963,2,7,9,-3,62,-1038
1675,19.307881,3,6,8,4,66,-1035
1676,19.319442,0,4,9,2,63,-1032
1677,19.33101,3,5,9,-2,66,-1030
1678,19.342548,1,6,9,2,62,-1036
1679,19.354099,2,6,9,1,60,-1035
1680,19.365734,2,5,9,-3,62,-1033
1681,19.377385,2,4,8,-3,60,-1028
1682,19.389033,1,5,8,-5,60,-1035
1683,19.400709,2,6,10,0,61,-1034
1684,19.412363,1,6,8,0,63,-1032
1685,19.424015,2,4,9,-1,66,-1033
1686,19.435661,1,5,8,-3,64,-1031
1687,19.447342,1,5,7,2,67,-1036
1688,19.459013,1,8,9,2,65,-1037
1689,19.47069,2,7,8,1,61,-1028
1690,19.482247,2,4,9,-1,69,-1036
1691,19.493797,4,4,8,0,59,-1032
1692,19.505349,2,7,8,-2,63,-1035
1693,19.51694,2,6,8,0,62,-1031
1694,19.528472,2,7,8,-2,60,-1032
1695,19.540026,3,6,10,2,61,-1024
1696,19.551607,3,6,8,-4,60,-1035
1697,19.563198,2,8,8,-2,62,-1030
1698,19.5749,3,6,9,-3,64,-1028
1699,19.586565,3,6,9,-2,62,-1034
1700,19.598225,4,6,10,0,63,-1034
1701,19.609878,2,5,8,2,63,-1027
1702,19.621533,3,6,9,-3,64,-1030
1703,19.633194,2,8,7,-2,63,-1028
1704,19.644846,4,7,8,0,67,-1030
1705,19.656499,2,6,9,1,63,-1029
1706,19.668165,1,6,10,2,62,-1030
1707,19.679831,3,7,8,0,63,-1034
1708,19.691413,2,6,9,1,60,-1038
1709,19.70297,2,5,11,-1,65,-1037
1710,19.714542,2,4,8,0,58,-1024
1711,19.726091,2,6,10,2,59,-1033
1712,19.737666,4,8,10,-4,65,-1032
1713,19.749215,2,5,7,-1,60,-1035
1714,19.760846,4,7,8,1,67,-1029
1715,19.772459,0,6,8,-5,68,-1027
1716,19.784104,4,7,9,0,63,-1034
1717,19.795767,2,6,8,-4,63,-1035
1718,19.80745,2,6,11,1,63,-1031
1719,19.819089,5,6,9,2,61,-1034
1720,19.830744,3,6,9,-1,59,-1035
1721,19.842397,3,8,9,-1,62,-1032
1722,19.854052,5,5,9,0,63,-1033
1723,19.8657,3,4,7,0,65,-1030
1724,19.87737,2,5,10,1,67,-1038
1725,19.889026,4,7,8,0,65,-1036
1726,19.900598,2,6,9,-4,62,-1033
1727,19.912151,2,6,9,-6,64,-1029
1728,19.923739,4,5,10,-1,65,-1034
1729,19.935317,3,6,11,0,63,-1033
1730,19.946874,2,5,7,0,60,-1030
1731,19.958434,1,6,9,0,65,-1032
1732,19.969977,2,5,8,-2,60,-1035
1733,19.981539,3,5,9,-3,61,-1026
1734,19.99316,2,6,9,-4,66,-1030
1735,20.004809,2,7,10,-2,64,-1031
1736,20.016461,4,5,9,-2,63,-1031
1737,20.028116,2,8,10,-2,60,-1030
1738,20.039779,3,7,9,-2,65,-1037
1739,20.051474,2,6,11,-2,63,-1033
1740,20.06313,4,6,9,-3,62,-1026
1741,20.074846,1,6,8,-1,66,-1026
1742,20.086505,2,5,9,0,58,-1031
1743,20.098179,4,7,7,2,66,-1028
1744,20.109729,1,8,10,-1,61,-1033
1745,20.121278,5,7,7,-3,64,-1032
1746,20.132822,2,4,10,1,61,-1035
1747,20.144392,5,3,9,0,58,-1035
1748,20.155941,3,7,9,0,65,-1038
1749,20.167507,3,6,9,-2,58,-1025
1750,20.179048,1,8,9,-3,66,-1033
1751,20.190605,4,6,8,-2,60,-1031
1752,20.202224,4,4,12,-3,67,-1032
1753,20.213874,2,6,9,-3,63,-1030
1754,20.225522,2,5,9,0,62,-1030
1755,20.237189,1,7,8,-3,66,-1029
1756,20.248845,3,5,8,-1,65,-1030
1757,20.260517,3,6,10,0,61,-1029
1758,20.27231,2,5,8,0,61,-1033
1759,20.284165,2,7,7,1,62,-1029
1760,20.295948,4,7,8,-1,63,-1034
1761,20.307626,1,8,9,-1,60,-1031
1762,20.319315,3,8,10,0,67,-1031
1763,20.330989,1,6,10,-5,60,-1030
1764,20.34268,1,4,7,0,61,-1041
1765,20.354332,3,5,8,0,61,-1036
1766,20.366001,0,4,11,-3,65,-1032
1767,20.377663,3,5,8,-1,64,-1037
1768,20.389315,3,4,8,-3,65,-1035
1769,20.401071,4,6,7,3,62,-1033
1770,20.412755,1,6,9,1,68,-1034
1771,20.424317,3,5,8,-2,60,-1037
1772,20.435915,2,6,11,-5,65,-1035
1773,20.447498,4,6,9,1,60,-1034
1774,20.459056,3,7,11,-3,61,-1025
1775,20.470615,1,5,9,-1,61,-1034
1776,20.48217,3,7,9,-1,62,-1036
1777,20.493713,2,7,7,-3,63,-1032
1778,20.505258,1,7,9,1,64,-1037
1779,20.516967,5,6,8,2,62,-1028
1780,20.528631,3,6,8,0,66,-1028
1781,20.540279,2,5,8,-4,63,-1028
1782,20.551988,4,7,8,0,60,-1026
1783,20.563651,3,5,10,0,61,-1031
1784,20.575328,3,7,11,7,63,-1023
1785,20.586988,3,7,10,0,60,-1029
1786,20.598639,2,8,10,-3,62,-1039
1787,20.610291,1,7,7,-3,63,-1030
1788,20.621976,3,7,9,-2,63,-1027
1789,20.633676,3,7,9,-3,64,-1028
1790,20.645337,1,7,10,-2,61,-1034
1791,20.656989,4,6,8,0,61,-1029
1792,20.66867,4,7,10,0,66,-1034
1793,20.680317,4,4,10,-1,59,-1033
1794,20.691992,1,8,9,-1,63,-1033
1795,20.70365,4,7,10,0,62,-1040
1796,20.715348,2,6,10,-5,62,-1043
1797,20.727049,2,6,9,-1,59,-1024
1798,20.738614,3,6,12,-2,60,-1045
1799,20.750199,1,7,10,0,63,-1034
1800,20.76175,2,6,10,0,62,-1024
1801,20.773299,2,8,9,-3,62,-1035
1802,20.784845,4,6,11,2,60,-1027
1803,20.796417,3,7,8,0,66,-1040
1804,20.807992,3,6,8,-1,64,-1034
1805,20.819529,2,7,10,-3,57,-1032
1806,20.831236,1,6,9,-3,63,-1032
1807,20.842891,2,5,8,-2,63,-1035
1808,20.854567,3,7,9,-7,64,-1033
1809,20.866232,3,5,10,0,61,-1030
1810,20.877881,3,6,10,1,68,-1033
1811,20.889551,4,6,9,1,63,-1032
1812,20.901216,2,8,6,-1,64,-1033
1813,20.91287,2,7,9,-2,66,-1032
1814,20.924542,3,5,8,-3,63,-1028
1815,20.936211,3,7,7,-1,65,-1040
1816,20.947762,3,3,10,0,60,-1027
1817,20.959311,2,5,10,-4,66,-1036
1818,20.97092,2,4,9,-2,62,-1031
1819,20.982471,1,6,7,-2,64,-1030
1820,20.994039,3,6,9,-1,66,-1032
1821,21.005578,2,4,10,2,66,-1038
1822,21.017118,3,9,10,0,63,-1033
1823,21.028708,1,6,9,0,63,-1032
1824,21.040334,3,6,7,0,64,-1038
1825,21.051995,1,5,8,0,65,-1029
1826,21.06365,3,6,10,0,63,-1031
1827,21.075338,4,4,8,-1,66,-1028
1828,21.086992,3,5,11,-3,65,-1034
1829,21.098632,2,6,9,-2,64,-1034
1830,21.11028,3,7,9,0,61,-1030
1831,21.121948,3,6,7,0,61,-1036
1832,21.133614,3,7,9,0,63,-1034
1833,21.145271,2,6,7,0,62,-1033
1834,21.156835,1,8,7,-1,62,-1035
1835,21.168415,2,4,10,0,65,-1030
1836,21.180033,1,4,9,-3,63,-1032
1837,21.191583,1,8,9,-1,59,-1028
1838,21.203161,3,6,10,0,64,-1026
1839,21.214714,3,9,11,0,63,-1036
1840,21.22626,3,7,10,5,65,-1037
1841,21.237845,3,6,9,-2,61,-1037
1842,21.249473,2,7,8,0,64,-1036
1843,21.261125,2,9,7,-2,66,-1040
1844,21.272778,3,6,8,-2,63,-1031
1845,21.284419,3,7,11,0,65,-1037
1846,21.296105,2,6,10,-3,60,-1034
1847,21.307756,0,8,10,-2,62,-1034
1848,21.319418,3,2,8,-2,62,-1035
1849,21.331079,2,8,10,-4,63,-1035
1850,21.34275,4,6,10,-5,65,-1034
1851,21.354413,1,8,11,-3,61,-1037
1852,21.36597,1,7,9,-1,60,-1035
1853,21.377547,2,6,9,-5,61,-1036
1854,21.389089,1,6,10,-3,62,-1034
1855,21.400647,3,6,8,-2,68,-1031
1856,21.412196,3,5,8,-3,65,-1031
1857,21.423761,2,4,10,-1,65,-1035
1858,21.435308,3,8,9,2,61,-1027
1859,21.446927,2,6,10,3,64,-1027
1860,21.458565,3,5,8,0,61,-1033
1861,21.470232,4,5,7,1,63,-1037
1862,21.481877,2,6,8,-3,64,-1033
1863,21.493525,3,6,8,4,67,-1037
1864,21.505197,2,7,8,0,58,-1032
1865,21.516861,1,8,8,0,64,-1025
1866,21.528515,2,9,11,-2,64,-1030
1867,21.540158,3,5,9,-2,60,-1027
1868,21.55186,3,7,9,-1,69,-1024
1869,21.563523,3,6,8,0,61,-1037
1870,21.57509,0,7,7,0,63,-1031
1871,21.586679,0,7,9,1,63,-1033
1872,21.598277,2,6,11,2,64,-1026
1873,21.609832,1,5,8,0,64,-1024
1874,21.621415,2,5,8,-2,63,-1032
1875,21.632957,2,5,8,-1,61,-1038
1876,21.644502,3,6,9,-2,64,-1029
1877,21.656063,2,7,8,-1,65,-1039
1878,21.667739,2,8,9,0,61,-1035
1879,21.679399,3,6,8,4,61,-1037
1880,21.691088,4,8,8,1,64,-1032
1881,21.702735,3,6,7,-1,61,-1029
1882,21.714382,4,5,11,1,64,-1032
1883,21.726054,3,6,9,-3,66,-1031
1884,21.737725,1,5,8,-2,63,-1028
1885,21.749378,2,6,8,0,64,-1031
1886,21.761049,3,5,8,3,61,-1033
1887,21.772621,0,6,11,-4,66,-1029
1888,21.784172,1,5,11,-3,65,-1039
1889,21.795793,3,4,8,-1,62,-1035
1890,21.807351,2,6,13,-1,60,-1028
1891,21.818928,2,7,9,-6,59,-1028
1892,21.830544,4,6,10,0,58,-1033
1893,21.842095,1,5,11,-5,64,-1033
1894,21.853679,2,6,9,-5,61,-1032
1895,21.865302,2,5,10,0,64,-1030
1896,21.876971,4,3,9,0,64,-1034
1897,21.888742,4,5,9,-1,62,-1028
1898,21.9004,2,6,9,-1,65,-1034
1899,21.912095,2,5,9,-4,63,-1032
1900,21.92376,1,6,9,-6,66,-1033
1901,21.935467,3,7,9,1,64,-1033
1902,21.947132,2,4,10,0,61,-1033
1903,21.958839,2,7,9,0,59,-1032
1904,21.970498,2,6,8,-3,65,-1034
1905,21.982063,2,6,8,0,66,-1034
1906,21.993636,0,7,11,-2,69,-1030
1907,22.005195,3,6,10,0,65,-1035
1908,22.016798,1,6,9,-2,62,-1032
1909,22.028351,3,7,8,-6,66,-1028
1910,22.039912,3,5,9,-3,63,-1035
1911,22.051458,2,6,8,-3,64,-1032
1912,22.06304,2,6,9,-5,60,-1039
1913,22.07472,3,6,9,-4,62,-1033
1914,22.08638,1,4,10,-4,62,-1030
1915,22.098023,2,7,7,-4,63,-1038
1916,22.109702,1,6,9,1,61,-1028
1917,22.121364,3,6,9,0,61,-1033
1918,22.133013,2,7,9,1,63,-1025
1919,22.144717,4,6,8,0,61,-1027
1920,22.156376,2,5,9,-3,59,-1027
1921,22.16804,1,6,8,0,63,-1029
1922,22.179717,2,7,9,1,64,-1034
1923,22.191291,2,5,7,-4,64,-1038
1924,22.202837,2,4,10,-4,65,-1036
1925,22.214396,1,4,8,2,61,-1033
1926,22.225939,2,6,12,0,62,-1038
1927,22.23748,0,5,8,-3,63,-1029
1928,22.249026,4,6,9,-3,62,-1027
1929,22.260584,2,6,8,-5,64,-1034
1930,22.272174,1,5,11,-3,61,-1033
1931,22.28385,2,7,10,0,65,-1035
1932,22.29551,3,6,9,0,57,-1032
1933,22.307204,2,8,9,-4,64,-1031
1934,22.318859,1,6,10,0,64,-1027
1935,22.330536,2,7,9,-3,62,-1033
1936,22.342211,2,5,8,-1,64,-1034
1937,22.353861,2,7,9,0,65,-1033
1938,22.365507,3,6,11,-1,65,-1030
1939,22.377173,3,6,10,-3,59,-1033
1940,22.38872,2,5,8,-3,63,-1031
1941,22.40026,3,6,10,4,62,-1028
1942,22.411808,1,6,9,-7,61,-1028
1943,22.423402,3,6,9,-1,64,-1027
1944,22.434956,3,3,10,3,62,-1028
1945,22.446539,4,7,8,0,62,-1030
1946,22.458079,2,5,8,0,62,-1038
1947,22.469642,3,6,10,-3,64,-1036
1948,22.481262,1,7,8,0,64,-1033
1949,22.492918,1,8,9,-1,69,-1032
1950,22.504575,2,5,10,1,66,-1032
1951,22.516261,3,7,8,0,65,-1026
1952,22.52794,2,5,10,1,65,-1028
1953,22.539597,1,8,10,-2,65,-1033
1954,22.551259,2,7,9,1,62,-1031
1955,22.562953,2,5,9,3,63,-1032
1956,22.574624,3,7,9,-3,61,-1032
1957,22.586274,4,6,8,-1,64,-1030
1958,22.597946,1,4,9,-1,65,-1031
1959,22.6096,3,7,9,-3,61,-1035
1960,22.621248,1,7,8,-2,65,-1027
1961,22.632906,2,7,8,0,60,-1039
1962,22.644566,2,5,10,-2,65,-1034
1963,22.656223,2,7,8,1,63,-1027
1964,22.667847,2,5,8,0,64,-1034
1965,22.679506,2,6,9,-2,67,-1034
1966,22.691022,3,6,8,0,63,-1034
1967,22.702549,2,7,9,-3,61,-1037
1968,22.714151,2,6,6,-3,63,-1035
1969,22.725701,1,6,10,0,65,-1029
1970,22.737278,2,7,7,0,61,-1032
1971,22.748822,3,8,7,-1,61,-1032
1972,22.760366,1,9,8,0,66,-1035
1973,22.771921,3,5,7,-3,64,-1031
1974,22.783566,3,4,8,0,62,-1027
1975,22.795222,1,7,10,1,63,-1034
1976,22.806878,2,6,8,-1,65,-1032
1977,22.818561,1,6,8,0,63,-1031
1978,22.83022,3,8,10,2,62,-1032
1979,22.841863,1,8,8,-3,65,-1031
1980,22.853508,2,8,9,-3,62,-1031
1981,22.865177,2,7,10,-1,62,-1037
1982,22.876834,2,5,8,0,60,-1029
1983,22.888521,1,9,9,0,65,-1027
1984,22.900189,0,7,9,0,65,-1035
1985,22.911884,2,7,11,-2,64,-1038
1986,22.92344,4,4,9,-2,62,-1034
1987,22.935021,1,6,10,0,62,-1033
1988,22.946549,3,5,7,-1,69,-1036
1989,22.958115,3,6,9,-1,64,-1027
1990,22.969666,3,7,10,0,61,-1039
1991,22.981242,2,6,11,1,64,-1034
1992,22.992819,1,6,9,-2,65,-1028
1993,23.004474,3,3,11,-1,65,-1031
1994,23.016133,3,6,8,1,62,-1031
1995,23.027792,3,7,8,-1,64,-1027
1996,23.039465,0,7,9,-1,66,-1030
1997,23.051125,3,5,8,1,64,-1031
1998,23.062799,2,4,9,-1,65,-1030
1999,23.07445,1,5,9,-7,62,-1029
