sample,t_s,gyro_x,gyro_y,gyro_z,accel_x,accel_y,accel_z
0,1.5e-05,-1,-1,1,-1,1,-1027
1,0.011244,-1,-1,0,1,1,-1020
2,0.022437,0,-1,0,-4,-1,-1022
3,0.033623,0,1,0,0,1,-1026
4,0.044806,0,0,0,4,2,-1021
5,0.055989,0,0,0,-1,1,-1022
6,0.067169,0,1,0,-1,0,-1024
7,0.078326,0,0,0,-1,0,-1031
8,0.089509,0,1,0,-5,-4,-1026
9,0.100696,0,1,-1,1,2,-1018
10,0.11188,0,0,0,-1,1,-1032
11,0.12307,0,1,0,1,-2,-1025
12,0.134258,1,1,0,2,0,-1027
13,0.145444,0,2,0,-1,4,-1024
14,0.156628,1,1,0,2,3,-1023
15,0.167819,0,0,0,2,-2,-1026
16,0.179009,0,1,1,2,-2,-1024
17,0.190197,0,1,0,1,-4,-1027
18,0.201388,0,0,0,3,-3,-1027
19,0.212572,-1,-1,1,0,4,-1026
20,0.223758,0,0,1,2,-4,-1021
21,0.234947,-1,-1,1,-2,-1,-1027
22,0.246135,-1,-1,1,4,-1,-1026
23,0.25732,0,-2,0,1,0,-1027
24,0.268502,-1,-1,0,2,3,-1024
25,0.279691,-1,-1,2,-1,-1,-1015
26,0.290871,-1,0,1,-1,0,-1026
27,0.302067,-1,-1,1,-2,3,-1024
28,0.313249,-1,0,1,1,-1,-1021
29,0.324433,0,0,1,1,-2,-1027
30,0.335616,0,-1,1,1,0,-1024
31,0.346796,0,1,0,-1,-2,-1022
32,0.357946,0,1,0,1,-2,-1028
33,0.369133,-1,0,0,1,2,-1028
34,0.380313,0,0,0,-1,2,-1028
35,0.39151,0,1,0,3,1,-1027
36,0.40269,-1,1,1,1,-2,-1025
37,0.413882,0,0,0,-2,2,-1026
38,0.425068,0,0,1,-1,0,-1023
39,0.436251,-1,1,0,-2,2,-1025
40,0.447438,0,1,0,0,2,-1027
41,0.458631,0,1,1,-2,-1,-1026
42,0.469819,0,-1,1,1,-2,-1027
43,0.481009,-1,0,1,1,2,-1029
44,0.492189,0,-1,1,1,1,-1030
45,0.50338,-1,-1,1,-1,1,-1025
46,0.514568,0,0,0,0,0,-1024
47,0.525766,0,-1,1,1,4,-1028
48,0.536951,0,0,0,-1,1,-1018
49,0.548134,-1,-1,0,-2,-3,-1020
50,0.559323,-1,-2,0,2,3,-1020
51,0.570503,0,-1,0,-2,3,-1025
52,0.581697,-1,-1,0,1,2,-1024
53,0.592881,-1,-1,0,-1,-2,-1023
54,0.604065,-1,-1,0,1,-2,-1029
55,0.615251,-1,-1,0,-3,1,-1024
56,0.626438,-1,-1,0,-2,-1,-1026
57,0.637631,0,-1,0,1,-2,-1026
58,0.648813,0,-1,0,-2,-1,-1028
59,0.659999,0,-1,1,-1,1,-1028
60,0.671185,0,0,0,3,1,-1024
61,0.682373,-1,-2,1,1,2,-1021
62,0.693576,-1,-2,0,0,3,-1025
63,0.704756,0,2,0,-1,2,-1021
64,0.715944,-1,2,0,-2,-3,-1027
65,0.727132,0,1,0,-2,1,-1027
66,0.738315,0,1,1,-4,0,-1021
67,0.749512,0,2,1,-2,1,-1026
68,0.760693,0,0,1,3,2,-1024
69,0.771881,0,1,1,1,-2,-1023
70,0.783067,0,0,1,1,1,-1027
71,0.794249,1,2,1,-2,0,-1029
72,0.805436,0,2,0,0,2,-1024
73,0.816618,0,1,0,1,-2,-1025
74,0.827803,0,1,0,-1,0,-1018
75,0.838987,0,1,0,2,3,-1022
76,0.850135,0,0,0,5,4,-1041
77,0.861328,0,0,0,-1,-1,-1028
78,0.872509,1,0,-1,-4,-2,-1020
79,0.883691,-1,0,0,-2,-3,-1030
80,0.894876,0,-1,0,-1,-1,-1027
81,0.906066,0,-1,1,4,1,-1026
82,0.917251,0,-1,0,-2,2,-1023
83,0.928435,0,-1,-1,0,2,-1030
84,0.93962,0,-1,-1,2,2,-1025
85,0.950803,-1,-1,0,5,3,-1024
86,0.961995,-1,-2,0,2,0,-1027
87,0.973181,0,-1,1,-1,2,-1021
88,0.984364,-1,0,0,-1,1,-1021
89,0.995548,-1,-1,1,-1,1,-1028
90,1.006734,-1,-1,1,-2,0,-1019
91,1.017923,0,-1,0,-1,0,-1028
92,1.029108,0,-1,1,1,2,-1018
93,1.040292,0,-1,0,-1,0,-1027
94,1.051472,-1,-1,0,0,0,-1025
95,1.062655,-1,0,1,0,-2,-1019
96,1.07384,0,0,1,2,2,-1031
97,1.085022,0,0,1,-1,2,-1022
98,1.096203,0,0,1,-1,1,-1025
99,1.107386,0,0,0,0,-2,-1028
100,1.11857,0,0,0,-3,-3,-1031
101,1.129766,0,0,0,2,-1,-1026
102,1.140951,-1,0,0,-1,2,-1027
103,1.152142,-1,1,-1,-2,0,-1020
104,1.163367,0,2,0,3,-3,-1027
105,1.174561,0,0,0,0,2,-1024
106,1.18576,0,-1,0,-2,2,-1028
107,1.19695,0,0,0,2,-2,-1024
108,1.208133,0,0,-1,0,-1,-1025
109,1.219329,0,0,0,2,2,-1028
110,1.230501,-1,0,1,-2,1,-1019
111,1.241693,0,0,0,0,-1,-1026
112,1.252886,0,0,0,1,1,-1025
113,1.264072,0,2,0,-2,-2,-1024
114,1.275256,0,1,0,-2,-1,-1035
115,1.286442,0,0,0,-4,2,-1028
116,1.297628,1,1,0,-3,-3,-1026
117,1.308813,0,0,0,-2,3,-1024
118,1.320001,-1,1,0,0,0,-1019
119,1.331189,0,1,0,-2,2,-1023
120,1.342377,0,0,0,0,-2,-1019
121,1.353575,0,2,-1,1,-1,-1027
122,1.364762,-1,0,1,-3,-2,-1027
123,1.375943,-1,1,0,3,0,-1029
124,1.387126,0,2,0,0,-1,-1022
125,1.398317,-1,0,1,4,0,-1023
126,1.409508,-1,1,1,0,2,-1023
127,1.420688,-1,1,0,0,0,-1024
128,1.431875,0,0,1,-3,0,-1029
129,1.44306,0,0,0,-1,-2,-1023
130,1.45425,-1,0,0,1,-4,-1023
131,1.465433,0,0,1,-1,-3,-1022
132,1.476616,0,2,1,1,-3,-1025
133,1.487802,-1,0,0,2,-3,-1027
134,1.498984,0,1,0,-4,-1,-1027
135,1.51013,0,1,0,-5,-3,-1031
136,1.521312,0,0,0,3,0,-1019
137,1.532495,0,-1,1,1,2,-1021
138,1.543679,0,0,0,-2,0,-1024
139,1.554862,-1,-2,0,2,2,-1018
140,1.566059,-1,-1,-1,4,-5,-1022
141,1.577247,0,0,-1,2,-1,-1026
142,1.588431,0,-1,1,-2,-2,-1025
143,1.599623,0,-1,1,-2,2,-1023
144,1.610806,0,0,0,-3,-1,-1023
145,1.621997,1,-1,0,0,4,-1030
146,1.633182,0,0,0,2,-3,-1027
147,1.644366,0,0,0,0,-3,-1024
148,1.655551,0,1,0,-3,2,-1026
149,1.666739,1,1,0,0,0,-1027
150,1.677946,0,0,0,1,0,-1024
151,1.68913,-1,0,1,2,-4,-1020
152,1.700315,-1,-1,1,0,-1,-1023
153,1.711508,0,0,0,1,2,-1028
154,1.722693,-1,-2,1,-2,-1,-1019
155,1.733881,-1,-1,1,-1,-3,-1026
156,1.745066,-1,-1,0,-6,-1,-1028
157,1.756249,-1,-1,0,2,3,-1024
158,1.767439,-2,-1,0,0,2,-1023
159,1.778629,-1,-2,0,-1,-2,-1029
160,1.789817,-1,-1,1,-3,-2,-1022
161,1.801001,-1,-2,0,-1,-2,-1026
162,1.812183,0,-2,0,-4,1,-1022
163,1.823367,-1,-1,1,-1,0,-1025
164,1.834551,0,-3,1,2,-1,-1022
165,1.845736,-1,-1,1,-5,-2,-1034
166,1.856923,-1,-1,0,-2,-4,-1032
167,1.868104,-2,-1,0,-1,-2,-1026
168,1.879286,0,1,0,-1,-5,-1022
169,1.890495,0,1,0,1,1,-1031
170,1.90169,0,0,1,1,2,-1023
171,1.912878,0,1,0,1,-1,-1030
172,1.92406,0,2,0,-1,1,-1022
173,1.935252,0,0,0,4,-1,-1026
174,1.94644,1,0,0,0,4,-1021
175,1.957627,0,1,0,-3,5,-1027
176,1.968819,0,1,0,3,-1,-1020
177,1.98,-1,1,1,2,2,-1024
178,1.99119,0,1,0,-3,-3,-1028
179,2.002379,1,0,1,1,-1,-1023
180,2.013573,0,0,1,3,-1,-1023
181,2.024757,-1,-1,1,-4,0,-1024
182,2.035942,-1,-1,0,1,-3,-1025
183,2.047127,0,-1,0,0,0,-1023
184,2.058317,0,-2,1,-2,-3,-1025
185,2.069498,0,-1,1,-1,-1,-1027
186,2.080682,0,-1,1,3,0,-1017
187,2.09187,0,0,0,-1,2,-1026
188,2.103059,0,-1,0,-1,2,-1035
189,2.114245,0,0,0,-4,-3,-1027
190,2.125434,0,0,1,-3,1,-1024
191,2.136617,-1,0,1,0,1,-1026
192,2.147802,-1,0,0,1,-1,-1031
193,2.158986,0,0,0,-1,-1,-1030
194,2.170131,0,1,0,0,2,-1029
195,2.181316,0,0,-1,-1,-2,-1030
196,2.192496,-1,0,0,-3,5,-1026
197,2.203684,0,0,0,-1,-2,-1029
198,2.214867,0,0,0,-2,2,-1025
199,2.226059,0,0,-1,-2,-1,-1029
200,2.237258,0,1,0,2,0,-1020
201,2.248441,0,1,0,-3,-2,-1024
202,2.259621,-1,-1,1,1,-1,-1027
203,2.270807,0,1,1,-1,-2,-1023
204,2.28199,0,0,1,0,-2,-1023
205,2.293176,0,-1,0,-3,3,-1029
206,2.304366,0,0,0,0,2,-1026
207,2.315558,-1,0,0,3,-1,-1026
208,2.326749,-1,0,1,1,3,-1021
209,2.337944,-1,-2,0,1,1,-1023
210,2.34913,0,-1,0,2,2,-1027
211,2.360313,0,-1,0,4,0,-1025
212,2.371504,-1,-1,1,-4,0,-1023
213,2.38269,-1,-2,0,0,-3,-1023
214,2.393877,0,-2,0,-1,-2,-1026
215,2.405061,0,-1,-1,1,-3,-1025
216,2.416244,-1,-2,1,2,-1,-1026
217,2.427431,-1,-2,1,0,0,-1023
218,2.438621,-1,-2,0,2,-2,-1026
219,2.449762,-1,-3,0,-4,3,-1025
220,2.460944,-1,-2,0,0,3,-1023
221,2.472125,0,1,1,0,2,-1031
222,2.483312,0,2,1,1,-2,-1031
223,2.4945,-1,0,0,1,1,-1026
224,2.50569,-1,-1,1,-1,-3,-1023
225,2.516872,0,0,1,0,-2,-1027
226,2.528054,0,1,0,-1,2,-1020
227,2.539243,0,1,1,2,-3,-1025
228,2.550427,0,1,1,-3,2,-1023
229,2.561578,0,0,1,1,2,-1022
230,2.572762,0,1,1,0,-3,-1028
231,2.583945,0,1,0,-3,-2,-1023
232,2.595141,0,0,0,-1,-2,-1031
233,2.606319,0,0,0,0,5,-1022
234,2.617501,0,1,-1,2,3,-1028
235,2.628684,0,0,0,-2,0,-1025
236,2.639873,0,0,0,0,1,-1025
237,2.651057,0,-1,-1,0,-2,-1026
238,2.662249,0,0,0,-4,0,-1036
239,2.673432,0,1,-1,-3,-3,-1027
240,2.684616,0,1,0,5,-1,-1024
241,2.695798,0,0,0,2,-2,-1030
242,2.706992,0,-1,0,-2,-1,-1023
243,2.718181,0,1,1,3,2,-1026
244,2.729371,0,1,1,1,-2,-1019
245,2.740568,0,1,0,2,-2,-1025
246,2.751808,0,-1,0,2,3,-1024
247,2.763,-1,0,0,1,-3,-1023
248,2.774187,0,1,0,1,3,-1022
249,2.785371,0,0,0,1,-3,-1024
250,2.796562,-1,1,1,-2,-2,-1024
251,2.807746,1,-1,1,-3,2,-1019
252,2.818937,-1,0,1,2,3,-1018
253,2.830131,0,0,1,0,-3,-1023
254,2.841316,-1,0,1,4,-2,-1017
255,2.852499,-1,0,1,0,-1,-1030
256,2.863683,-1,0,0,0,0,-1024
257,2.874874,0,1,1,-2,0,-1023
258,2.886062,-1,-1,1,0,2,-1027
259,2.897247,-1,0,0,0,0,-1025
260,2.908432,-1,0,1,-4,4,-1027
261,2.919617,0,0,0,3,-2,-1027
262,2.930833,0,0,0,-1,0,-1027
263,2.942021,0,2,0,-2,-1,-1026
264,2.953211,0,0,0,-4,-1,-1027
265,2.964393,0,1,0,-1,0,-1025
266,2.975577,0,0,0,-1,-4,-1028
267,2.986757,0,1,0,-3,-2,-1026
268,2.997945,0,0,1,-6,2,-1024
269,3.009129,0,0,1,0,1,-1024
270,3.02031,0,-1,0,-1,-1,-1027
271,3.031509,-2,-2,1,-2,0,-1023
272,3.04269,0,1,0,3,1,-1029
273,3.05388,0,1,0,3,-3,-1023
274,3.065062,0,0,0,-4,1,-1021
275,3.076244,-1,-1,-1,-2,-4,-1031
276,3.08743,-1,-1,0,1,-1,-1029
277,3.09862,0,0,0,0,2,-1028
278,3.109764,0,-1,0,0,1,-1030
279,3.120945,0,-1,0,-1,-2,-1021
280,3.132128,0,-3,0,0,1,-1022
281,3.143311,-1,-1,2,-1,0,-1030
282,3.154501,0,-2,1,2,4,-1025
283,3.165689,0,-2,1,0,1,-1029
284,3.176876,-1,-1,1,1,0,-1024
285,3.188056,-1,-2,0,2,0,-1027
286,3.199241,0,-1,0,0,1,-1029
287,3.210426,0,0,1,2,1,-1020
288,3.221576,0,-1,1,2,1,-1025
289,3.232757,0,1,1,-2,-2,-1018
290,3.243936,0,1,0,-5,3,-1027
291,3.255116,0,0,0,3,-2,-1019
292,3.266313,0,0,0,0,0,-1023
293,3.277497,0,0,0,1,3,-1020
294,3.288682,0,2,0,-1,-1,-1025
295,3.299863,1,1,0,0,-1,-1027
296,3.311065,0,-1,0,2,0,-1025
297,3.322248,-1,-1,0,3,3,-1025
298,3.333431,0,0,0,1,-1,-1020
299,3.344612,0,1,0,-2,-1,-1024
300,3.355796,0,0,0,0,-1,-1029
301,3.366979,0,0,0,2,-3,-1030
302,3.378132,0,-1,0,-2,1,-1018
303,3.389315,0,0,-1,-2,1,-1031
304,3.400508,0,0,0,-2,3,-1021
305,3.411693,0,-1,1,-1,2,-1028
306,3.422875,0,0,0,0,-1,-1024
307,3.434065,0,0,0,2,-1,-1023
308,3.44525,0,0,0,2,1,-1024
309,3.456435,0,0,0,-6,0,-1026
310,3.467619,0,-1,1,5,-2,-1020
311,3.478803,0,0,0,-1,3,-1023
312,3.489944,0,-2,1,0,-2,-1017
313,3.501124,0,-1,1,1,2,-1024
314,3.512304,0,-1,0,-1,0,-1017
315,3.523482,-1,0,0,0,2,-1026
316,3.53468,-1,1,0,-2,1,-1028
317,3.54587,0,1,1,-2,3,-1023
318,3.557052,0,0,1,-2,-3,-1026
319,3.568237,-1,-1,1,0,4,-1027
320,3.579422,-1,1,1,0,-3,-1029
321,3.590613,0,0,1,0,3,-1025
322,3.601763,-1,1,1,-2,2,-1028
323,3.612945,0,0,0,-1,-1,-1023
324,3.624127,0,0,0,-1,3,-1018
325,3.63531,0,1,1,2,4,-1023
326,3.6465,1,1,1,4,-2,-1023
327,3.65769,0,1,1,-2,-5,-1028
328,3.668883,1,1,0,2,3,-1022
329,3.680071,0,0,0,1,-1,-1029
330,3.691251,0,-1,1,0,4,-1027
331,3.702436,0,0,1,2,0,-1023
332,3.713576,0,0,0,-1,1,-1018
333,3.724757,0,0,-1,-2,0,-1025
334,3.73594,0,-1,0,1,4,-1027
335,3.747123,0,-2,0,0,-2,-1022
336,3.758314,0,-1,0,1,-2,-1028
337,3.769497,0,-1,0,0,0,-1026
338,3.780679,0,-1,0,5,-1,-1025
339,3.791863,-1,-3,0,-7,0,-1024
340,3.803049,-1,-2,0,0,0,-1025
341,3.814241,0,-2,0,1,1,-1022
342,3.825435,-1,-1,1,-1,1,-1027
343,3.83662,0,0,0,-2,-3,-1027
344,3.847803,0,0,-1,0,-2,-1022
345,3.858988,0,-1,1,6,2,-1024
346,3.870188,0,0,1,2,2,-1021
347,3.881369,0,1,0,0,0,-1018
348,3.892551,0,1,0,3,-1,-1027
349,3.903736,0,-1,0,3,2,-1021
350,3.914923,0,0,0,0,-1,-1025
351,3.926118,0,-1,0,0,6,-1022
352,3.937321,-1,0,0,-2,-5,-1023
353,3.94899,0,-1,0,-1,1,-1027
354,3.96064,0,0,0,1,-1,-1022
355,3.972283,0,0,0,-2,1,-1023
356,3.983926,0,-1,0,-1,1,-1029
357,3.995598,-1,-1,0,-1,0,-1026
358,4.00725,-1,-1,0,0,-2,-1020
359,4.018913,-1,-1,1,-1,0,-1016
360,4.030627,1,0,0,1,3,-1026
361,4.042307,0,-1,0,2,2,-1027
362,4.054014,0,-1,0,3,0,-1025
363,4.065626,0,-1,0,-1,-2,-1024
364,4.077279,0,0,0,-1,2,-1026
365,4.088965,-1,-1,2,1,-1,-1026
366,4.100619,-1,-1,1,1,1,-1018
367,4.112282,-1,-1,0,-3,3,-1026
368,4.123926,-1,-1,0,-3,-1,-1025
369,4.135617,-1,0,0,1,-1,-1022
370,4.147306,-1,-1,0,-5,1,-1019
371,4.158876,-1,-1,0,-1,-4,-1028
372,4.170461,0,0,0,-4,0,-1029
373,4.182039,0,0,0,1,-2,-1024
374,4.193612,-1,0,-1,-4,-1,-1028
375,4.205205,0,0,-1,0,2,-1024
376,4.216757,0,0,0,1,1,-1031
377,4.228316,-1,0,1,2,1,-1032
378,4.239869,-1,-1,1,-1,-1,-1018
379,4.251528,0,-1,1,-1,-4,-1024
380,4.263187,-1,0,1,0,0,-1030
381,4.274864,0,0,1,0,1,-1024
382,4.286532,-1,0,0,-6,-1,-1024
383,4.298185,0,0,0,-2,0,-1026
384,4.30988,-1,0,1,1,0,-1020
385,4.321541,0,0,0,-2,0,-1029
386,4.333199,0,0,1,-2,0,-1025
387,4.344872,0,-1,-1,3,-1,-1027
388,4.356546,0,-2,0,0,-6,-1021
389,4.368117,0,-1,1,-1,1,-1023
390,4.379698,0,0,0,1,1,-1022
391,4.391252,0,-1,1,-2,-1,-1029
392,4.402841,0,0,0,-4,-4,-1027
393,4.414397,-1,0,0,-2,2,-1028
394,4.425977,0,0,0,-1,5,-1023
395,4.437543,0,0,1,-5,1,-1031
396,4.449108,0,-1,0,0,-2,-1029
397,4.460751,-1,-1,0,3,-3,-1019
398,4.472407,0,-1,0,0,1,-1023
399,4.484075,0,-1,0,3,5,-1026
400,4.495732,-1,0,0,0,2,-1017
401,4.50739,0,0,0,0,0,-1024
402,4.519053,0,0,0,4,-3,-1018
403,4.530709,0,0,0,1,4,-1032
404,4.542403,0,0,0,2,1,-1027
405,4.554091,0,0,1,2,-1,-1023
406,4.565749,-1,-1,0,-4,1,-1029
407,4.577325,0,-1,0,1,-2,-1022
408,4.588919,0,0,0,0,0,-1027
409,4.600472,0,-1,0,-3,0,-1027
410,4.612035,-1,-1,1,-1,1,-1020
411,4.623587,0,-1,0,3,0,-1027
412,4.635182,-1,1,0,1,1,-1030
413,4.646738,-1,-1,0,1,-2,-1025
414,4.658332,0,-1,1,2,0,-1027
415,4.669953,-1,0,1,0,-1,-1025
416,4.681628,0,0,1,-2,-2,-1027
417,4.693281,0,0,0,-2,-3,-1029
418,4.704974,0,0,1,-1,0,-1029
419,4.716619,-1,1,0,-1,1,-1021
420,4.728272,-1,0,1,3,1,-1030
421,4.739941,0,-1,1,0,1,-1018
422,4.751619,0,-1,1,0,-1,-1022
423,4.763287,-1,-1,0,-2,-2,-1024
424,4.774937,-1,-1,0,-3,1,-1025
425,4.786497,0,-1,0,-2,1,-1024
426,4.798078,0,-1,0,-4,3,-1021
427,4.809692,0,0,0,2,0,-1029
428,4.821244,-1,0,1,-4,4,-1024
429,4.832818,0,0,-1,-1,-4,-1022
430,4.844384,0,-1,0,3,0,-1022
431,4.855954,0,0,0,1,-3,-1025
432,4.867511,0,0,0,-1,2,-1025
433,4.879136,0,-1,1,1,3,-1027
434,4.890791,0,-1,1,-2,0,-1029
435,4.902448,0,0,1,0,0,-1020
436,4.914132,1,0,1,2,1,-1029
437,4.925783,0,1,0,-1,0,-1023
438,4.93743,0,-1,1,0,-1,-1028
439,4.949104,-1,0,0,1,-2,-1025
440,4.96075,0,0,0,4,-2,-1030
441,4.972413,-1,-1,0,-1,-3,-1025
442,4.984085,0,0,0,1,2,-1023
443,4.995679,-1,1,1,1,-2,-1037
444,5.007224,-1,-1,0,-3,-4,-1025
445,5.01881,0,-1,1,2,2,-1022
446,5.030339,0,0,0,-2,4,-1024
447,5.041856,0,-1,1,-1,-2,-1021
448,5.053398,0,0,0,-4,2,-1029
449,5.064947,0,-1,-1,-3,0,-1026
450,5.076527,0,0,0,2,-2,-1024
451,5.088144,-1,0,0,0,-1,-1023
452,5.099818,-1,0,1,0,2,-1025
453,5.111485,0,0,0,1,-1,-1026
454,5.123172,-1,-1,0,1,-1,-1024
455,5.134854,-1,-1,1,1,0,-1021
456,5.146523,0,0,0,2,-1,-1018
457,5.1582,0,-1,0,2,0,-1025
458,5.169878,-1,0,1,0,-2,-1021
459,5.181535,-1,1,0,0,-2,-1024
460,5.193204,-1,0,1,-2,2,-1022
461,5.204753,-1,-1,1,0,-1,-1019
462,5.216304,-1,0,1,-1,2,-1021
463,5.227855,0,0,1,1,-1,-1022
464,5.239397,0,-1,0,-2,-3,-1020
465,5.250956,0,-1,1,-2,-1,-1021
466,5.262545,0,-1,0,-7,-1,-1022
467,5.274117,0,-1,0,0,2,-1022
468,5.285784,0,0,1,1,0,-1020
469,5.297456,0,0,0,7,2,-1023
470,5.309117,-1,0,1,-1,-2,-1019
471,5.320768,0,0,1,1,-2,-1021
472,5.332457,0,-1,1,-2,-2,-1019
473,5.344112,1,-1,1,1,-1,-1027
474,5.355765,0,-1,1,-4,1,-1026
475,5.367417,-1,0,0,-1,-5,-1024
476,5.379083,0,0,1,0,-2,-1021
477,5.390788,-1,0,0,0,7,-1022
478,5.402518,-1,-1,0,1,1,-1029
479,5.414099,0,0,1,6,0,-1021
480,5.425695,0,0,1,0,-1,-1021
481,5.437249,0,0,1,1,-2,-1022
482,5.448808,0,0,1,-1,-4,-1021
483,5.460355,-1,0,0,-3,-4,-1029
484,5.471902,0,0,0,0,1,-1026
485,5.483448,-1,-1,1,0,1,-1020
486,5.495015,0,-1,0,2,-1,-1028
487,5.506691,-1,-1,0,-3,2,-1023
488,5.518393,0,0,1,-4,-3,-1026
489,5.530074,0,0,0,-4,3,-1023
490,5.541751,0,0,0,-4,-1,-1024
491,5.553409,0,0,-1,0,1,-1028
492,5.56509,0,0,0,0,-1,-1022
493,5.576753,0,0,0,1,0,-1025
494,5.588408,0,0,1,-4,-1,-1021
495,5.600093,0,0,1,-1,0,-1027
496,5.611748,-1,0,1,1,0,-1028
497,5.623312,0,0,0,-2,0,-1013
498,5.634869,-1,0,0,2,4,-1022
499,5.646431,-1,0,0,3,0,-1023
500,5.657991,0,0,0,0,-1,-1024
501,5.669547,0,-1,0,2,-1,-1024
502,5.68109,-1,-1,0,0,0,-1027
503,5.692636,-1,-1,1,0,-2,-1017
504,5.704192,0,-1,1,0,3,-1021
505,5.715888,0,-1,0,1,1,-1030
506,5.727555,0,-1,0,-4,-2,-1029
507,5.739219,0,1,0,1,-1,-1023
508,5.750898,-1,0,0,0,2,-1025
509,5.762577,-1,0,0,0,-1,-1026
510,5.774258,0,-1,0,-3,-2,-1022
511,5.785885,-1,-1,1,-1,-3,-1023
512,5.797542,0,0,1,3,2,-1017
513,5.809223,0,1,1,-2,-2,-1026
514,5.820881,0,0,0,2,-3,-1034
515,5.832467,0,-1,0,0,-5,-1022
516,5.844052,-1,0,0,1,0,-1025
517,5.855614,-1,0,1,0,2,-1024
518,5.867337,-1,-1,1,1,0,-1022
519,5.878964,-1,0,0,-1,6,-1026
520,5.890522,0,-1,0,3,1,-1021
521,5.9021,0,0,0,0,-3,-1028
522,5.913702,0,-1,0,0,1,-1025
523,5.925355,0,0,0,1,1,-1033
524,5.937017,0,-1,1,-1,-1,-1021
525,5.948667,-1,0,0,0,2,-1026
526,5.960319,-1,-1,0,-2,0,-1027
527,5.971999,-1,0,0,0,3,-1027
528,5.983646,0,0,1,1,-3,-1030
529,5.99532,0,0,0,0,-1,-1027
530,6.006993,0,-1,0,-2,0,-1021
531,6.018666,0,0,0,-2,1,-1024
532,6.030374,0,0,1,-3,2,-1028
533,6.041926,1,0,0,-1,0,-1028
534,6.053478,0,-1,0,2,-2,-1022
535,6.065056,-1,0,0,0,-1,-1031
536,6.076598,0,-1,0,-1,1,-1025
537,6.088151,0,0,0,0,-1,-1019
538,6.099705,0,0,1,-5,-3,-1025
539,6.11125,0,0,0,-1,-1,-1022
540,6.122874,0,-1,1,0,1,-1020
541,6.134662,0,-1,1,1,-1,-1026
542,6.146345,0,0,0,1,-5,-1026
543,6.158015,-1,-1,0,0,0,-1024
544,6.169698,1,0,1,1,-1,-1016
545,6.181347,0,0,1,0,1,-1022
546,6.192996,0,-1,1,0,1,-1032
547,6.204647,-1,-1,0,0,-3,-1026
548,6.216309,0,0,1,-3,0,-1027
549,6.227982,-1,0,0,1,0,-1023
550,6.239641,0,-1,1,2,1,-1021
551,6.251342,0,-1,1,2,-3,-1025
552,6.263028,0,0,1,1,0,-1018
553,6.274662,0,0,1,-3,1,-1017
554,6.286331,0,-1,0,6,-1,-1025
555,6.298005,0,0,1,-3,0,-1027
556,6.30967,0,0,0,0,2,-1025
557,6.321341,0,-1,0,-2,-3,-1028
558,6.333029,0,-1,1,-2,1,-1027
559,6.34471,0,-1,0,0,2,-1029
560,6.356295,0,0,1,1,0,-1031
561,6.367839,0,-1,0,-2,4,-1029
562,6.379386,0,0,1,2,0,-1025
563,6.390946,0,0,1,-2,0,-1021
564,6.402535,0,0,0,-1,-1,-1025
565,6.414099,-1,-2,2,1,1,-1020
566,6.425656,0,-1,0,-4,-1,-1020
567,6.437263,0,0,0,0,-1,-1030
568,6.448888,-1,-1,0,1,-2,-1025
569,6.460568,0,-1,1,-3,5,-1025
570,6.472235,0,-1,1,1,1,-1028
571,6.4839,0,0,1,0,-2,-1026
572,6.495583,0,0,1,-4,-3,-1026
573,6.507248,0,0,1,0,-3,-1021
574,6.518959,-1,0,0,0,-4,-1025
575,6.53064,-1,0,0,-1,2,-1027
576,6.542328,-1,0,1,1,3,-1027
577,6.553998,0,0,1,-3,0,-1026
578,6.565556,0,0,1,-2,-2,-1026
579,6.577103,0,0,1,-3,2,-1023
580,6.588651,-1,0,1,-1,2,-1017
581,6.600199,-1,-1,1,2,-2,-1024
582,6.611768,0,0,1,3,-2,-1023
583,6.623353,0,0,0,-4,2,-1026
584,6.634946,-1,0,1,1,1,-1026
585,6.646547,-1,-1,0,0,1,-1027
586,6.658246,0,-1,1,-2,-3,-1024
587,6.669881,0,0,0,-3,-1,-1024
588,6.681591,0,0,1,-1,2,-1018
589,6.69337,-1,0,1,5,-3,-1023
590,6.705031,-1,1,1,4,1,-1019
591,6.71669,0,0,0,3,-1,-1027
592,6.728354,0,-1,0,2,-4,-1021
593,6.740015,0,0,1,-4,3,-1023
594,6.751689,0,0,0,2,1,-1024
595,6.763401,0,0,0,0,3,-1025
596,6.774962,0,-1,0,-2,1,-1023
597,6.786511,-1,1,1,1,-2,-1026
598,6.798096,0,0,1,0,-3,-1027
599,6.809653,0,-1,0,-4,0,-1024
600,6.821239,-1,-1,1,1,3,-1021
601,6.832799,0,0,0,0,0,-1029
602,6.844354,0,-1,0,0,0,-1019
603,6.855931,-1,0,1,2,0,-1023
604,6.867562,-1,0,1,3,-4,-1030
605,6.879217,-1,1,1,-5,1,-1026
606,6.891004,0,-1,1,0,2,-1021
607,6.902672,-1,0,1,2,2,-1025
608,6.914386,-1,1,0,-1,-2,-1019
609,6.926064,-2,0,1,1,0,-1025
610,6.937747,0,0,0,-2,2,-1026
611,6.949416,-1,-1,1,1,1,-1026
612,6.9611,0,-1,0,-3,5,-1024
613,6.972764,-1,0,0,0,3,-1027
614,6.984329,0,0,1,1,-5,-1026
615,6.995948,-1,0,0,-1,2,-1027
616,7.007542,-1,-1,0,1,0,-1021
617,7.019081,0,-1,0,-2,1,-1026
618,7.030629,0,0,1,1,-3,-1030
619,7.042209,-1,-1,0,0,2,-1025
620,7.053779,0,-1,0,3,2,-1011
621,7.065348,-1,-1,0,0,1,-1024
622,7.076973,0,0,0,3,2,-1022
623,7.088626,0,0,0,-2,4,-1028
624,7.100287,0,-1,0,0,1,-1024
625,7.111942,0,0,0,-1,4,-1022
626,7.123604,0,0,0,0,3,-1018
627,7.135253,0,-1,0,-5,-1,-1024
628,7.146913,-1,0,1,0,-2,-1024
629,7.158568,-1,0,1,-1,-4,-1026
630,7.170267,-1,0,1,0,0,-1028
631,7.181954,0,-1,0,-1,-2,-1021
632,7.193543,-1,-1,0,-2,-5,-1024
633,7.205092,-1,-1,1,1,-1,-1022
634,7.216642,1,0,-1,-2,1,-1019
635,7.228194,0,0,1,-1,0,-1024
636,7.239764,0,0,1,1,3,-1018
637,7.251323,0,-1,1,2,3,-1016
638,7.26293,-1,0,0,-1,-1,-1028
639,7.274562,-1,0,0,-1,1,-1027
640,7.286208,0,0,0,3,-2,-1024
641,7.297873,0,0,0,3,1,-1023
642,7.309559,-1,0,0,-4,0,-1027
643,7.321225,-1,0,0,-3,1,-1024
644,7.332864,0,0,1,-3,0,-1022
645,7.344514,-1,0,0,2,2,-1020
646,7.35619,0,0,0,2,-1,-1022
647,7.367892,0,1,0,1,5,-1025
648,7.379589,0,0,1,-1,2,-1028
649,7.391267,-1,-1,0,0,1,-1022
650,7.402829,-1,-1,1,1,0,-1025
651,7.41438,-1,0,0,0,0,-1026
652,7.425938,-1,0,0,-4,-3,-1025
653,7.437506,0,0,0,0,5,-1025
654,7.449059,0,0,0,-2,4,-1021
655,7.460601,0,0,0,3,-1,-1023
656,7.472148,0,0,0,-4,0,-1021
657,7.483697,0,-1,0,-2,1,-1018
658,7.495339,0,0,1,-1,-3,-1022
659,7.507052,-1,-1,1,0,1,-1025
660,7.518731,-1,-1,0,0,1,-1024
661,7.530395,-1,-1,1,-1,-3,-1023
662,7.542052,-1,-1,1,-2,3,-1021
663,7.553749,0,-1,1,4,-2,-1030
664,7.565392,0,-1,0,-4,2,-1031
665,7.577058,-1,0,0,0,1,-1025
666,7.588733,0,-1,0,-3,1,-1030
667,7.600418,-1,0,0,0,3,-1021
668,7.611971,0,0,0,3,1,-1028
669,7.623533,-1,-1,1,1,-2,-1021
670,7.63509,0,0,0,0,0,-1026
671,7.646661,0,-1,1,-1,3,-1029
672,7.658218,-1,-1,1,-2,-1,-1019
673,7.669795,-1,0,0,-2,-6,-1030
674,7.681372,0,-1,1,1,-2,-1028
675,7.69295,0,0,0,2,0,-1028
676,7.704583,0,0,0,1,0,-1024
677,7.716239,0,-1,1,-5,-1,-1023
678,7.727882,0,-1,1,1,1,-1026
679,7.739561,0,-1,1,-2,-1,-1025
680,7.751224,-1,0,0,1,0,-1024
681,7.762904,0,-1,0,0,1,-1023
682,7.774567,0,-1,0,1,0,-1020
683,7.786257,-1,-1,0,1,-2,-1028
684,7.797897,0,0,0,-1,2,-1020
685,7.809614,0,-1,0,-2,-2,-1023
686,7.821178,0,0,0,-3,3,-1025
687,7.832739,0,0,0,0,-3,-1026
688,7.844287,0,-1,0,0,-1,-1024
689,7.855829,0,0,1,0,0,-1029
690,7.867381,-1,0,0,-1,0,-1023
691,7.878945,0,0,0,-3,-2,-1023
692,7.890496,-1,0,0,-1,3,-1023
693,7.902089,0,0,1,3,-2,-1027
694,7.91382,-1,-1,0,1,-4,-1028
695,7.925498,-1,0,-1,-3,0,-1020
696,7.937206,0,-1,0,-1,2,-1025
697,7.948866,-1,0,0,-1,-4,-1031
698,7.960513,0,0,1,2,-3,-1023
699,7.972163,0,-1,1,-1,1,-1020
700,7.983834,0,0,1,4,-1,-1024
701,7.995477,0,0,1,2,-2,-1027
702,8.007154,0,0,1,1,0,-1024
703,8.018709,0,0,1,3,-2,-1023
704,8.030263,0,-1,0,1,3,-1019
705,8.041832,0,-1,0,-1,2,-1021
706,8.053375,-1,0,1,-2,-3,-1021
707,8.064917,0,0,1,3,0,-1026
708,8.076473,-1,0,1,-1,0,-1021
709,8.088033,0,0,1,-2,-1,-1022
710,8.099621,0,0,0,0,1,-1023
711,8.11124,0,-1,1,1,3,-1025
712,8.122914,0,0,1,0,3,-1021
713,8.134577,-1,1,0,3,0,-1026
714,8.146259,-1,-1,0,-1,1,-1021
715,8.157879,-1,-1,0,-2,0,-1024
716,8.169525,0,0,0,1,-3,-1025
717,8.181204,0,-1,0,1,2,-1021
718,8.192859,-1,-1,0,-2,-3,-1033
719,8.204525,-1,1,1,-1,0,-1025
720,8.216187,0,0,0,-1,5,-1022
721,8.227769,0,0,0,0,-2,-1019
722,8.23933,0,-1,1,0,0,-1021
723,8.250927,0,0,0,0,1,-1020
724,8.262503,-1,-1,1,-5,2,-1023
725,8.274076,0,0,0,1,0,-1025
726,8.285614,0,0,1,1,-5,-1026
727,8.297186,0,1,0,-1,4,-1019
728,8.308746,0,-1,0,0,-4,-1021
729,8.320382,0,-1,0,1,0,-1027
730,8.332059,-1,-1,1,1,1,-1027
731,8.343717,0,0,1,2,0,-1018
732,8.355371,0,0,0,-4,1,-1027
733,8.367066,-1,0,1,0,5,-1025
734,8.378732,-1,0,0,0,-1,-1023
735,8.390418,1,-1,1,1,1,-1029
736,8.402119,-1,-1,1,1,-3,-1025
737,8.413798,0,0,0,-4,0,-1027
738,8.425459,0,-1,1,-3,-4,-1028
739,8.437038,0,0,1,2,-2,-1033
740,8.44862,0,-1,0,3,3,-1021
741,8.460172,0,0,1,1,-2,-1027
742,8.471757,0,-1,0,-1,3,-1020
743,8.483295,-1,0,1,-2,2,-1023
744,8.494818,0,0,0,4,0,-1026
745,8.506333,-1,-1,0,-2,1,-1030
746,8.517868,-1,0,0,-2,2,-1019
747,8.529514,0,-1,-1,-4,3,-1020
748,8.541203,0,0,0,1,-1,-1018
749,8.552848,0,0,0,-2,-1,-1027
750,8.564496,-1,0,1,0,-4,-1026
751,8.576172,0,0,1,0,3,-1030
752,8.587829,-2,-1,0,-1,0,-1022
753,8.599477,-1,-1,0,1,-2,-1021
754,8.611195,0,-1,0,0,1,-1022
755,8.622854,-1,0,0,3,0,-1021
756,8.634521,0,0,0,0,-5,-1030
757,8.646205,-1,-1,0,0,-3,-1024
758,8.65787,-1,1,1,2,-1,-1019
759,8.669515,-1,-1,0,4,-3,-1020
760,8.681198,-1,0,0,-1,2,-1025
761,8.692855,0,0,1,1,-3,-1026
762,8.704508,-1,-1,2,0,3,-1027
763,8.716149,0,0,0,2,0,-1024
764,8.727835,0,0,1,1,2,-1028
765,8.739447,0,-1,1,0,-1,-1023
766,8.751017,0,-1,1,1,4,-1024
767,8.762574,0,0,0,-3,0,-1028
768,8.774154,-1,0,0,1,0,-1019
769,8.785729,0,0,0,2,0,-1019
770,8.797306,0,0,1,0,0,-1027
771,8.808848,-1,-1,1,-1,-2,-1019
772,8.820394,-1,-1,0,0,0,-1022
773,8.831947,0,0,1,-1,2,-1024
774,8.843635,-1,0,0,-1,0,-1027
775,8.855313,-1,0,0,1,2,-1022
776,8.866965,0,0,1,4,0,-1029
777,8.87864,0,0,0,-1,3,-1027
778,8.890314,0,-1,1,-3,3,-1025
779,8.901967,0,0,0,-3,-2,-1021
780,8.913625,0,0,0,-2,2,-1030
781,8.92531,0,0,0,-2,-1,-1024
782,8.936965,-1,-1,0,2,0,-1027
783,8.948625,0,-1,0,-2,-4,-1030
784,8.960294,-1,0,0,-2,-4,-1023
785,8.971943,0,1,0,3,1,-1021
786,8.983592,0,-1,0,0,2,-1021
787,8.99523,0,0,1,-2,0,-1024
788,9.006924,0,-1,0,0,1,-1025
789,9.018577,-1,-1,0,-3,0,-1022
790,9.030344,0,-1,0,0,-1,-1026
791,9.042033,0,0,0,1,1,-1024
792,9.053605,-1,-1,0,-3,-2,-1025
793,9.065154,1,0,1,1,-2,-1022
794,9.076695,0,-1,0,-1,1,-1023
795,9.088234,0,0,0,-2,-2,-1024
796,9.099777,-1,0,1,0,3,-1022
797,9.111318,-1,0,0,-1,3,-1024
798,9.122862,0,-2,0,-3,1,-1025
799,9.134425,-1,0,1,-2,-1,-1019
800,9.146137,0,-1,1,-1,-2,-1025
801,9.157823,0,-1,1,2,-2,-1017
802,9.169481,0,0,0,5,1,-1023
803,9.181147,0,-1,0,-2,3,-1024
804,9.192793,-1,-1,1,-1,2,-1027
805,9.204441,-1,0,0,0,-2,-1025
806,9.216122,-1,0,0,0,3,-1022
807,9.22779,0,-1,0,0,2,-1023
808,9.239447,0,-1,0,-2,1,-1032
809,9.251017,-1,-1,1,0,-3,-1022
810,9.262578,0,0,0,1,3,-1021
811,9.274149,0,0,1,-1,1,-1027
812,9.285731,0,0,1,-3,-1,-1029
813,9.297277,0,-1,0,1,-1,-1028
814,9.308817,0,-1,0,-2,2,-1021
815,9.320357,0,0,1,-1,-1,-1024
816,9.331912,0,0,0,4,2,-1024
817,9.343615,0,0,0,-1,2,-1024
818,9.355288,0,-1,0,-1,1,-1040
819,9.366949,-1,0,1,2,3,-1024
820,9.378625,0,-1,1,-3,-4,-1023
821,9.390296,0,-1,1,3,1,-1024
822,9.401948,-1,-1,1,-1,-1,-1027
823,9.413614,-1,0,1,1,1,-1023
824,9.42528,-1,0,1,-2,0,-1026
825,9.43695,0,-1,0,-2,-2,-1031
826,9.448601,0,-1,0,3,2,-1026
827,9.460265,-1,0,0,0,2,-1022
828,9.471907,0,0,1,-3,-2,-1030
829,9.483574,1,0,0,2,4,-1029
830,9.495215,-1,0,0,1,-1,-1023
831,9.506888,-1,0,1,-1,2,-1024
832,9.518564,-1,0,0,2,-3,-1020
833,9.530213,0,0,0,-1,2,-1025
834,9.541894,-1,0,1,2,1,-1023
835,9.553608,0,0,0,0,-1,-1031
836,9.565172,-1,0,0,0,2,-1028
837,9.576717,0,0,1,0,0,-1026
838,9.588295,-1,-1,1,-3,-2,-1025
839,9.599843,0,0,0,1,4,-1026
840,9.611392,-1,-1,0,-5,-3,-1028
841,9.622952,0,0,0,-2,0,-1019
842,9.63452,-1,0,1,-5,0,-1020
843,9.646112,0,0,0,-3,3,-1023
844,9.657757,0,0,0,-4,3,-1022
845,9.669433,-1,-1,1,1,-1,-1026
846,9.681087,0,-1,0,7,-5,-1033
847,9.692734,-1,0,0,-1,-5,-1025
848,9.704389,0,-1,0,-3,-4,-1023
849,9.716029,0,0,1,1,6,-1033
850,9.727683,0,-1,1,-1,2,-1020
851,9.739334,-1,-1,0,0,1,-1029
852,9.750999,0,-1,0,-1,1,-1018
853,9.762579,0,0,0,-2,2,-1022
854,9.774153,-1,0,1,-1,-2,-1028
855,9.785765,0,-1,0,3,2,-1024
856,9.797318,0,0,1,2,-2,-1023
857,9.808866,0,0,1,-2,0,-1022
858,9.820409,0,0,0,-1,3,-1024
859,9.831989,0,0,1,2,0,-1024
860,9.843538,0,-1,1,3,2,-1024
861,9.85512,0,0,1,-1,0,-1019
862,9.866813,0,0,1,3,-1,-1025
863,9.878469,0,-2,0,0,-1,-1033
864,9.890155,0,0,0,1,0,-1020
865,9.901813,-1,0,0,0,-2,-1029
866,9.913454,0,0,1,-4,1,-1029
867,9.925103,0,-1,0,2,-2,-1032
868,9.936742,0,0,0,0,0,-1026
869,9.948383,0,0,0,-3,-2,-1025
870,9.960098,0,-1,0,-2,-3,-1016
871,9.971793,0,0,1,2,2,-1023
872,9.983343,-1,-1,0,-1,1,-1024
873,9.994901,-1,0,0,-3,2,-1024
874,10.006461,-1,-1,0,-4,-5,-1024
875,10.018015,0,0,1,0,2,-1018
876,10.029572,0,0,0,-2,0,-1022
877,10.041156,0,0,0,1,1,-1021
878,10.052708,0,-1,1,0,-4,-1020
879,10.064276,0,0,1,-3,1,-1029
880,10.075901,-1,-1,1,-3,0,-1027
881,10.087566,0,0,0,-1,3,-1021
882,10.099219,-1,-1,0,1,-2,-1025
883,10.110915,0,-1,0,-3,-2,-1024
884,10.12258,0,-1,1,2,2,-1031
885,10.134278,0,0,1,-2,2,-1023
886,10.145943,-1,-1,0,-1,-2,-1023
887,10.157613,0,0,1,-2,-1,-1028
888,10.169295,0,0,0,2,3,-1021
889,10.180946,-1,0,0,1,-2,-1023
890,10.192501,0,-1,0,-2,1,-1025
891,10.204047,0,-1,0,-2,1,-1026
892,10.215595,-1,0,1,-2,-2,-1025
893,10.227149,0,-1,0,-1,-2,-1027
894,10.238709,-1,-1,0,1,-6,-1024
895,10.250267,0,-1,0,0,1,-1025
896,10.261835,0,0,0,4,-2,-1028
897,10.273421,0,0,1,0,-3,-1022
898,10.28506,0,0,1,0,-1,-1024
899,10.29671,-1,0,1,4,-1,-1020
900,10.308363,0,-1,0,-1,3,-1017
901,10.320007,0,-1,0,-1,0,-1027
902,10.331675,0,-1,-1,1,-3,-1019
903,10.343327,0,0,1,-2,-2,-1028
904,10.354969,0,0,0,0,-1,-1026
905,10.366636,-1,0,1,-1,2,-1024
906,10.378323,-1,0,0,1,1,-1028
907,10.389981,0,0,0,1,0,-1018
908,10.401536,0,-1,1,3,1,-1029
909,10.41308,0,0,0,0,2,-1028
910,10.424623,0,0,0,0,-4,-1026
911,10.43617,0,0,0,0,0,-1028
912,10.447749,0,0,0,1,2,-1030
913,10.459301,0,0,0,2,1,-1031
914,10.470823,-1,-1,0,-3,3,-1024
915,10.482354,0,-1,0,2,-4,-1019
916,10.494019,0,0,0,-1,2,-1024
917,10.505691,0,-1,1,-2,7,-1023
918,10.517343,-1,-1,0,-1,0,-1026
919,10.528989,-1,-1,1,0,-2,-1025
920,10.540637,0,0,0,-2,-2,-1019
921,10.552307,0,0,0,3,-2,-1025
922,10.563956,0,-1,0,-1,2,-1021
923,10.575601,0,0,1,-1,0,-1023
924,10.587273,0,0,0,1,0,-1027
925,10.598924,-1,-1,1,3,0,-1029
926,10.610486,-1,-1,1,1,-1,-1029
927,10.622037,-1,0,1,3,1,-1026
928,10.633607,0,0,0,-2,-6,-1026
929,10.64515,0,0,0,4,-2,-1024
930,10.656719,-1,-1,1,0,-1,-1024
931,10.668268,-1,-1,0,0,6,-1022
932,10.67981,-2,0,1,-5,1,-1024
933,10.691393,0,-1,0,1,-1,-1020
934,10.703064,0,0,1,0,2,-1027
935,10.714713,-1,-1,0,2,5,-1028
936,10.726383,0,0,0,-1,-1,-1026
937,10.738065,0,0,1,1,-1,-1021
938,10.749749,0,0,1,-1,3,-1024
939,10.761441,-1,-1,0,1,-4,-1024
940,10.773086,0,0,0,3,3,-1027
941,10.784729,0,-1,0,1,0,-1026
942,10.796395,0,-1,0,-1,0,-1020
943,10.808049,0,0,1,0,-2,-1030
944,10.819608,0,1,1,0,-1,-1018
945,10.831164,0,0,1,3,1,-1024
946,10.842756,-1,-1,0,4,6,-1021
947,10.854335,0,0,1,-1,0,-1020
948,10.86586,0,0,0,2,-4,-1023
949,10.877406,0,0,0,2,2,-1027
950,10.888945,-1,0,1,2,3,-1024
951,10.900501,0,-1,0,1,-4,-1027
952,10.912115,0,0,0,-1,2,-1024
953,10.923762,-1,0,1,3,4,-1023
954,10.935419,0,0,0,-3,-1,-1027
955,10.947077,0,0,0,-2,2,-1020
956,10.958719,-1,-1,1,2,1,-1024
957,10.970378,0,0,1,3,-3,-1025
958,10.982055,0,0,1,1,3,-1024
959,10.993745,-1,-1,1,1,1,-1028
960,11.005414,-1,-1,0,0,-5,-1032
961,11.017072,0,0,0,1,-2,-1024
962,11.02864,-1,0,1,-3,0,-1030
963,11.04019,0,0,0,-6,-2,-1023
964,11.051761,-1,0,0,-1,1,-1024
965,11.063321,-1,-1,0,-4,1,-1022
966,11.074882,0,0,0,-2,-1,-1028
967,11.086447,0,-2,0,-1,3,-1028
968,11.098004,0,-1,0,-1,-3,-1029
969,11.109571,0,0,1,-2,1,-1026
970,11.121196,0,0,0,-2,1,-1024
971,11.132853,-1,-2,0,2,-2,-1024
972,11.144519,0,-1,0,1,-1,-1021
973,11.156184,0,-1,1,-1,0,-1022
974,11.167837,-1,-1,1,-2,1,-1032
975,11.179527,-1,-1,0,-3,2,-1035
976,11.191184,0,-1,1,0,-1,-1025
977,11.202841,0,0,1,-2,2,-1023
978,11.214544,-1,0,0,1,0,-1032
979,11.226198,0,0,0,-2,-2,-1029
980,11.237762,0,1,1,-3,0,-1020
981,11.249394,0,0,0,-3,0,-1026
982,11.260955,0,0,0,-2,4,-1027
983,11.272549,-1,0,0,0,-3,-1025
984,11.284311,-1,-1,1,0,-2,-1028
985,11.2959,1,-1,0,2,1,-1018
986,11.307469,0,0,0,3,-1,-1028
987,11.319119,0,-1,0,-1,0,-1026
988,11.330698,-1,0,1,-3,2,-1021
989,11.342259,0,0,0,0,-1,-1028
990,11.353834,-1,0,0,0,0,-1022
991,11.365384,0,-1,1,0,0,-1026
992,11.376948,1,-1,1,-1,1,-1025
993,11.388509,0,0,0,2,-3,-1023
994,11.400058,0,0,0,0,3,-1028
995,11.411625,0,1,1,-2,-4,-1028
996,11.42318,0,-1,0,-1,-4,-1023
997,11.434963,0,0,1,-5,3,-1020
998,11.44666,0,0,1,-1,-1,-1025
999,11.458331,0,-1,0,0,2,-1026
1000,11.470021,0,-1,1,0,-2,-1020
1001,11.481688,-1,0,0,1,0,-1026
1002,11.493337,0,0,1,-2,-3,-1023
1003,11.504998,0,0,1,-2,-2,-1026
1004,11.516642,0,-1,0,2,-1,-1023
1005,11.528319,0,0,1,-1,1,-1026
1006,11.539971,0,-1,1,-1,1,-1022
1007,11.551535,-1,0,1,3,-1,-1022
1008,11.563087,0,0,1,0,0,-1026
1009,11.574645,-1,0,1,-1,0,-1024
1010,11.586242,0,-1,1,-2,3,-1024
1011,11.597792,0,0,1,0,1,-1026
1012,11.609371,-1,0,0,0,6,-1017
1013,11.620912,-1,-1,0,-1,1,-1025
1014,11.632463,-1,-1,0,-2,5,-1026
1015,11.644113,0,0,0,-1,3,-1022
1016,11.655796,0,-1,1,-1,-1,-1026
1017,11.667443,0,0,0,-3,3,-1025
1018,11.679091,-1,-1,1,-2,0,-1021
1019,11.690793,0,1,0,-2,-5,-1021
1020,11.70244,-1,0,0,-1,0,-1021
1021,11.714111,-1,-1,0,-2,-5,-1030
1022,11.725794,0,0,1,1,2,-1017
1023,11.737455,0,0,1,3,-2,-1031
1024,11.749162,-1,-1,2,0,-3,-1019
1025,11.760745,-1,-1,1,2,-1,-1025
1026,11.772292,0,-1,0,2,1,-1026
1027,11.783841,0,0,1,-3,1,-1022
1028,11.795386,0,0,0,-4,-1,-1029
1029,11.806998,0,-1,0,2,-2,-1024
1030,11.818573,0,0,0,1,2,-1026
1031,11.830102,0,0,1,0,-6,-1024
1032,11.841627,-1,0,0,-3,1,-1024
1033,11.853241,0,-1,0,5,2,-1017
1034,11.864912,0,-1,1,2,3,-1025
1035,11.876568,-1,0,1,1,0,-1025
1036,11.888218,0,0,1,-1,1,-1026
1037,11.899885,0,0,0,-1,2,-1026
1038,11.911542,0,-1,0,-3,-3,-1019
1039,11.923185,-1,-1,1,1,-6,-1030
1040,11.934838,0,0,0,2,4,-1028
1041,11.946525,0,0,1,0,1,-1029
1042,11.958194,0,0,0,0,-2,-1027
1043,11.969878,-1,0,1,2,3,-1028
1044,11.981539,0,-1,1,-1,3,-1020
1045,11.993186,-1,0,0,5,0,-1024
1046,12.00484,0,-1,0,-2,2,-1027
1047,12.016519,-1,-1,1,2,0,-1017
1048,12.028199,0,1,0,-1,2,-1031
1049,12.03984,0,0,0,0,-1,-1030
1050,12.051542,0,0,0,-1,3,-1023
1051,12.063213,-1,0,0,1,-2,-1028
1052,12.074768,0,0,0,-2,-1,-1023
1053,12.086333,-1,-1,1,-1,2,-1026
1054,12.097851,0,-1,1,2,-1,-1029
1055,12.109396,0,0,1,1,-2,-1027
1056,12.120974,-1,0,1,0,1,-1028
1057,12.132522,0,0,1,-1,-1,-1025
1058,12.144098,-1,0,0,0,0,-1020
1059,12.155654,-1,-1,1,-1,2,-1024
1060,12.167285,0,0,1,0,0,-1034
1061,12.178952,0,0,0,-2,1,-1020
1062,12.190632,0,-1,1,4,4,-1024
1063,12.202297,0,-2,1,-4,-2,-1027
1064,12.213948,0,0,0,-3,-6,-1022
1065,12.225631,0,0,1,-1,1,-1025
1066,12.237298,-1,-1,1,-2,1,-1023
1067,12.248937,-1,0,0,-4,0,-1027
1068,12.260598,-1,0,1,1,1,-1023
1069,12.272279,0,0,0,1,4,-1026
1070,12.283836,0,0,0,3,-4,-1024
1071,12.295383,-1,-1,0,0,-1,-1020
1072,12.306969,0,0,0,0,1,-1019
1073,12.318516,0,0,1,1,-2,-1021
1074,12.330107,0,0,1,-2,2,-1026
1075,12.341653,0,0,0,-1,-3,-1019
1076,12.353193,0,-1,0,-4,2,-1023
1077,12.364801,0,-1,0,3,6,-1026
1078,12.376433,-1,0,1,2,1,-1026
1079,12.388089,0,0,0,0,0,-1031
1080,12.399733,0,0,0,0,4,-1027
1081,12.411387,-1,-1,0,-2,1,-1015
1082,12.423065,0,0,0,-3,0,-1028
1083,12.434725,0,0,0,-2,1,-1021
1084,12.446411,0,0,0,-2,3,-1021
1085,12.458068,0,0,0,5,2,-1024
1086,12.469759,0,-1,1,1,0,-1029
1087,12.481421,-1,0,1,-1,-4,-1031
1088,12.493069,0,-1,0,-1,-2,-1019
1089,12.504708,0,1,0,0,-3,-1025
1090,12.516354,-1,0,0,-5,-2,-1025
1091,12.528028,0,0,1,1,-2,-1026
1092,12.539674,0,0,1,2,-1,-1023
1093,12.551354,-1,-2,0,-1,-4,-1026
1094,12.563035,0,0,0,-2,-4,-1027
1095,12.574669,0,0,0,-3,2,-1028
1096,12.586376,0,0,0,-2,-2,-1024
1097,12.597932,-1,-1,0,1,2,-1021
1098,12.609489,0,-1,0,-1,0,-1022
1099,12.621042,0,-1,0,-5,1,-1023
1100,12.632589,0,0,0,-6,0,-1024
1101,12.644135,0,-1,0,-1,0,-1021
1102,12.655713,0,-1,1,-2,4,-1023
1103,12.667263,0,0,0,3,-2,-1016
1104,12.678851,0,0,1,5,5,-1028
1105,12.690474,0,-1,0,4,1,-1025
1106,12.702147,0,-1,0,1,-1,-1027
1107,12.713812,-1,-1,1,2,-1,-1028
1108,12.725519,-1,0,1,0,0,-1027
1109,12.737174,-1,0,1,-3,1,-1025
1110,12.74882,0,0,1,0,-1,-1022
1111,12.76047,0,0,0,-3,2,-1026
1112,12.772134,-1,0,0,0,-3,-1025
1113,12.78381,0,-1,1,1,6,-1020
1114,12.795458,-1,-1,1,1,-1,-1022
1115,12.807109,0,0,0,1,-1,-1022
1116,12.818795,-1,-1,0,-1,-2,-1026
1117,12.830441,-1,-1,0,0,-3,-1023
1118,12.842119,-1,-1,0,-4,-2,-1026
1119,12.853797,0,-1,0,-4,2,-1021
1120,12.865447,0,0,0,3,-2,-1024
1121,12.877097,0,0,0,1,-1,-1029
1122,12.888802,0,-1,1,1,1,-1028
1123,12.900448,0,-1,0,0,1,-1023
1124,12.912094,0,-1,0,-1,-5,-1023
1125,12.923779,0,0,1,0,-1,-1020
1126,12.935428,-1,-1,0,-2,1,-1023
1127,12.947079,-1,0,0,-1,-3,-1032
1128,12.958747,-1,0,1,2,1,-1025
1129,12.970395,0,0,0,-3,3,-1026
1130,12.982056,0,0,0,-4,2,-1023
1131,12.99373,-1,-1,0,-1,2,-1021
1132,13.0054,0,-1,0,0,2,-1028
1133,13.01705,0,0,1,-4,-2,-1027
1134,13.028697,1,0,0,1,0,-1029
1135,13.040378,-1,0,0,1,0,-1033
1136,13.052049,0,-2,0,2,1,-1020
1137,13.063699,0,-1,1,-2,1,-1018
1138,13.075348,0,-1,1,-1,2,-1022
1139,13.087037,0,0,0,0,3,-1022
1140,13.098668,0,-1,1,-3,1,-1033
1141,13.110366,0,0,0,0,3,-1028
1142,13.121928,-1,0,0,1,4,-1024
1143,13.133492,0,-1,0,0,-2,-1029
1144,13.14504,0,-1,0,0,1,-1032
1145,13.156605,0,0,0,-2,2,-1025
1146,13.168142,0,-1,0,0,-1,-1019
1147,13.179678,0,0,0,-1,-3,-1027
1148,13.191229,0,0,1,1,0,-1024
1149,13.20281,0,0,0,3,-2,-1022
1150,13.214459,0,0,0,-1,0,-1027
1151,13.22613,-1,-2,1,-1,1,-1026
1152,13.237802,0,-1,1,2,4,-1029
1153,13.249443,-1,-1,0,0,3,-1027
1154,13.261086,0,-1,1,3,-2,-1024
1155,13.272754,-1,1,1,-1,2,-1024
1156,13.284406,0,0,1,-1,0,-1024
1157,13.296075,0,-1,0,-1,4,-1027
1158,13.307729,0,0,0,1,1,-1024
1159,13.319386,1,0,0,-5,-2,-1034
1160,13.331043,0,0,0,-5,1,-1027
1161,13.34269,0,-1,0,0,-1,-1025
1162,13.354369,0,-1,0,-3,-2,-1023
1163,13.366042,0,0,1,-3,3,-1027
1164,13.377689,0,-1,0,1,1,-1025
1165,13.389331,-1,0,0,3,-3,-1022
1166,13.400992,-1,-1,0,0,-2,-1028
1167,13.412683,0,0,0,2,-1,-1027
1168,13.424331,0,-1,0,3,0,-1019
1169,13.436017,-1,0,1,-1,3,-1027
1170,13.447738,0,-1,1,-3,-1,-1031
1171,13.459412,0,-1,1,0,-3,-1023
1172,13.471074,0,-1,1,-1,0,-1021
1173,13.482732,0,0,0,0,2,-1030
1174,13.494401,0,0,0,-4,2,-1025
1175,13.506061,1,0,0,0,-3,-1022
1176,13.517769,0,-1,0,-1,-1,-1026
1177,13.529472,0,-1,0,1,1,-1025
1178,13.541032,-1,-1,1,2,-1,-1024
1179,13.552606,0,0,0,3,2,-1025
1180,13.564161,0,-1,1,-1,0,-1027
1181,13.575729,-1,0,0,0,-1,-1023
1182,13.587276,-1,0,0,-2,1,-1022
1183,13.598854,0,-1,0,-1,-1,-1021
1184,13.6104,0,0,0,-1,-2,-1023
1185,13.621986,-1,-1,0,-1,-2,-1028
1186,13.633624,0,0,0,2,-3,-1035
1187,13.645281,0,0,0,0,5,-1024
1188,13.656934,0,-1,0,-1,0,-1028
1189,13.668628,0,-1,1,-2,-1,-1025
1190,13.68029,0,0,1,2,0,-1028
1191,13.691934,0,0,1,-2,3,-1024
1192,13.703606,0,0,0,3,1,-1015
1193,13.715275,-1,-1,0,2,-2,-1024
1194,13.726931,0,0,0,-1,2,-1023
1195,13.738582,0,-1,1,-3,2,-1024
1196,13.750266,0,-1,1,0,-4,-1022
1197,13.761888,0,-1,0,-1,1,-1020
1198,13.773544,-1,-1,0,-1,0,-1027
1199,13.785202,-1,-1,0,2,0,-1020
1200,13.796849,0,0,0,2,2,-1032
1201,13.808496,0,0,0,-2,-5,-1024
1202,13.820152,-1,-1,1,-1,0,-1020
1203,13.831873,0,0,1,-2,-5,-1026
1204,13.843529,0,-1,1,-2,1,-1020
1205,13.85511,0,0,0,-5,-1,-1028
1206,13.86666,0,-1,0,-1,0,-1026
1207,13.878238,0,-1,1,-3,-2,-1025
1208,13.88979,-1,0,1,1,-2,-1025
1209,13.901341,0,0,0,-1,-5,-1024
1210,13.912892,-1,-1,0,-1,0,-1029
1211,13.924469,0,0,0,-5,4,-1026
1212,13.93603,-1,-1,1,0,-6,-1029
1213,13.947658,0,0,0,-2,4,-1017
1214,13.959313,0,0,0,2,1,-1019
1215,13.970964,0,0,0,2,3,-1030
1216,13.98265,0,0,0,0,0,-1026
1217,13.994311,0,0,0,1,-1,-1027
1218,14.005954,0,-1,0,-3,-2,-1025
1219,14.01762,0,-1,0,-4,3,-1025
1220,14.029312,0,-1,0,-1,-2,-1022
1221,14.040969,0,0,1,-4,4,-1024
1222,14.052629,0,-1,1,6,1,-1024
1223,14.064201,0,-1,0,-2,-1,-1029
1224,14.075752,0,-1,0,-1,-2,-1021
1225,14.087322,-1,-1,0,2,0,-1024
1226,14.098869,0,-1,0,-2,0,-1023
1227,14.110409,0,-1,0,-3,0,-1020
1228,14.121988,0,0,0,-1,-3,-1022
1229,14.133564,-1,0,1,-2,0,-1022
1230,14.145122,0,0,0,-1,-2,-1026
1231,14.15679,0,-1,0,-1,0,-1025
1232,14.168447,0,-1,0,-6,0,-1021
1233,14.18009,0,-1,0,-1,-1,-1030
1234,14.1918,0,-1,0,-1,0,-1025
1235,14.203461,0,0,0,3,4,-1023
1236,14.215154,0,-1,0,-2,-3,-1022
1237,14.226814,0,-1,0,2,-1,-1027
1238,14.238478,0,-1,1,1,0,-1024
1239,14.250154,0,-1,0,0,2,-1015
1240,14.261846,-1,0,1,-1,-4,-1026
1241,14.273403,-1,-1,1,1,-3,-1026
1242,14.284971,0,0,1,-1,0,-1024
1243,14.296523,-1,-1,1,-1,-1,-1014
1244,14.308095,-1,0,1,-1,1,-1025
1245,14.319643,-1,1,1,-3,-1,-1021
1246,14.33122,0,-1,1,4,-1,-1019
1247,14.342779,-1,0,0,0,-1,-1029
1248,14.354364,0,0,1,-1,3,-1028
1249,14.366007,0,0,0,-3,2,-1025
1250,14.377668,0,-1,0,2,1,-1027
1251,14.389311,0,0,1,-3,0,-1023
1252,14.400995,0,0,0,1,-1,-1021
1253,14.412655,0,0,0,0,0,-1022
1254,14.424306,0,0,0,-2,2,-1017
1255,14.435971,-1,-1,1,0,0,-1026
1256,14.447638,0,-1,1,0,1,-1022
1257,14.459303,0,-1,0,2,-2,-1027
1258,14.470975,0,-1,1,2,-2,-1025
1259,14.482559,-1,0,0,-2,1,-1026
1260,14.494098,0,0,0,1,4,-1026
1261,14.505654,1,-1,1,0,-3,-1023
1262,14.517224,0,0,0,2,0,-1030
1263,14.528782,-1,-1,0,0,0,-1028
1264,14.54035,0,-1,1,-2,0,-1023
1265,14.551904,0,0,1,0,-4,-1025
1266,14.563478,-1,0,0,-2,0,-1025
1267,14.575175,0,-1,1,0,2,-1026
1268,14.586876,0,-1,1,-3,1,-1025
1269,14.598537,0,-1,0,0,5,-1025
1270,14.610199,0,-1,0,1,2,-1028
1271,14.621895,0,-1,1,2,0,-1024
1272,14.633536,0,-1,1,3,2,-1026
1273,14.645191,0,-1,0,-4,-1,-1025
1274,14.656882,0,-1,1,-1,0,-1024
1275,14.668546,-1,0,1,1,1,-1024
1276,14.680197,-1,0,1,-1,2,-1021
1277,14.691779,-1,-1,0,0,1,-1022
1278,14.703329,-1,-1,0,1,1,-1024
1279,14.714885,0,0,2,1,-3,-1023
1280,14.726477,-1,-1,1,2,2,-1022
1281,14.738036,0,-1,1,-1,0,-1024
1282,14.749616,-1,0,0,0,-3,-1021
1283,14.76116,0,-1,1,-1,-1,-1026
1284,14.772742,0,0,0,1,3,-1029
1285,14.784362,0,-1,1,-3,-1,-1031
1286,14.796029,1,0,0,2,0,-1026
1287,14.807677,1,-1,0,-3,-2,-1028
1288,14.819328,0,0,0,3,2,-1020
1289,14.830994,-1,0,0,1,-1,-1022
1290,14.842658,0,0,1,0,4,-1023
1291,14.854316,0,-1,0,2,1,-1025
1292,14.866005,0,-1,1,1,-3,-1026
1293,14.87766,-1,0,0,-4,1,-1019
1294,14.889224,0,0,0,0,2,-1026
1295,14.900776,0,0,0,-2,2,-1027
1296,14.912341,0,-1,0,-3,2,-1025
1297,14.923881,0,0,1,-2,-1,-1032
1298,14.935427,-1,0,0,-1,-1,-1022
1299,14.946989,-1,0,1,1,-3,-1025
1300,14.958557,-1,0,1,0,1,-1027
1301,14.970099,-1,0,0,-1,-2,-1025
1302,14.981672,0,0,-1,1,3,-1021
1303,14.993292,0,-1,0,1,0,-1023
1304,15.004941,0,-2,0,-3,-2,-1022
1305,15.016607,-1,-2,1,1,1,-1026
1306,15.028272,-1,-1,1,2,-4,-1022
1307,15.039916,-1,-2,0,-6,5,-1029
1308,15.05157,-1,0,0,0,-3,-1026
1309,15.063217,0,0,0,-1,-2,-1024
1310,15.074899,0,0,0,3,1,-1025
1311,15.086583,0,-1,1,-4,-3,-1025
1312,15.098274,-1,0,0,-1,2,-1019
1313,15.109848,-1,-1,0,3,-4,-1020
1314,15.121413,0,-1,0,5,-1,-1024
1315,15.132975,-1,-1,0,2,2,-1028
1316,15.144576,0,0,0,1,2,-1020
1317,15.156117,0,-1,0,-2,-2,-1017
1318,15.167655,0,0,0,-3,-2,-1025
1319,15.179223,-1,0,0,-2,-1,-1029
1320,15.190811,0,0,0,1,-1,-1022
1321,15.202441,-1,0,0,-2,0,-1019
1322,15.214129,0,0,-1,1,4,-1026
1323,15.225789,0,-1,1,0,3,-1023
1324,15.237433,-1,-1,1,-1,2,-1026
1325,15.249079,0,-1,0,0,1,-1022
1326,15.260745,0,-1,0,1,0,-1027
1327,15.272401,0,0,1,-6,-1,-1029
1328,15.284073,0,-1,0,-3,-1,-1026
1329,15.295767,0,-1,1,-1,1,-1024
1330,15.307455,0,0,0,-1,1,-1022
1331,15.319003,0,0,1,-3,7,-1031
1332,15.33057,0,-1,0,0,2,-1029
1333,15.342103,-1,-1,1,-2,1,-1031
1334,15.353657,0,0,0,0,-1,-1028
1335,15.365226,0,0,1,-2,1,-1021
1336,15.37677,0,-1,1,3,-4,-1033
1337,15.388314,0,0,0,3,1,-1025
1338,15.399871,-1,0,0,-1,-1,-1028
1339,15.411515,-1,-1,0,2,0,-1025
1340,15.423171,-1,-1,0,-1,-1,-1031
1341,15.434881,0,0,0,3,-1,-1025
1342,15.446528,0,0,0,1,1,-1029
1343,15.458184,-1,0,1,-1,2,-1022
1344,15.469884,-1,0,0,-2,5,-1026
1345,15.481532,0,0,1,-1,-2,-1018
1346,15.493183,0,0,1,-1,-1,-1024
1347,15.504892,0,0,0,-1,-2,-1026
1348,15.516572,0,0,0,-3,3,-1024
1349,15.528137,0,0,1,0,2,-1026
1350,15.53971,0,0,1,1,-3,-1022
1351,15.551261,0,0,-1,1,1,-1021
1352,15.562844,0,-1,0,-2,4,-1027
1353,15.574386,0,0,1,2,0,-1027
1354,15.58596,0,-1,0,1,-1,-1025
1355,15.597502,0,0,1,3,3,-1028
1356,15.609045,0,0,1,-2,2,-1028
1357,15.620716,-1,0,1,-2,-5,-1026
1358,15.632383,0,0,1,-1,-3,-1027
1359,15.64404,0,0,1,-4,3,-1024
1360,15.655691,0,0,1,1,0,-1026
1361,15.667381,0,-1,0,3,4,-1018
1362,15.679054,-1,0,0,2,0,-1029
1363,15.690726,0,-1,0,-1,1,-1028
1364,15.702399,0,0,0,0,1,-1026
1365,15.714074,-1,-1,1,-4,0,-1022
1366,15.725781,-1,-1,0,-1,3,-1022
1367,15.737341,-1,0,1,0,-1,-1025
1368,15.748887,0,0,0,-2,1,-1026
1369,15.760435,0,-1,0,-3,0,-1023
1370,15.771979,-1,0,0,-4,0,-1020
1371,15.783575,0,-1,0,0,3,-1023
1372,15.795127,0,-1,1,-1,-1,-1026
1373,15.806713,0,-1,0,0,0,-1021
1374,15.818271,0,-1,0,-1,-1,-1022
1375,15.82989,0,-1,1,-5,0,-1022
1376,15.841538,0,0,1,1,1,-1024
1377,15.853191,0,-1,0,3,-1,-1026
1378,15.864875,-1,0,1,-5,0,-1031
1379,15.876525,0,0,1,-3,0,-1022
1380,15.888205,0,-1,1,2,3,-1028
1381,15.899858,-1,-1,1,2,-1,-1030
1382,15.911526,0,-1,0,-1,0,-1023
1383,15.923193,0,-1,0,0,-1,-1023
1384,15.93485,0,-1,1,2,2,-1016
1385,15.946466,0,0,0,2,1,-1028
1386,15.958026,0,-1,0,-1,1,-1027
1387,15.969602,0,0,1,3,-5,-1021
1388,15.981145,0,0,1,-1,-1,-1027
1389,15.992685,0,-1,0,-1,-2,-1028
1390,16.004226,-1,-1,0,1,4,-1025
1391,16.015766,0,-1,1,2,1,-1020
1392,16.027318,0,-1,1,-2,2,-1023
1393,16.038942,0,0,0,3,-1,-1025
1394,16.050597,0,0,0,-3,1,-1024
1395,16.062272,0,0,1,1,-3,-1022
1396,16.073927,0,-1,0,-3,0,-1026
1397,16.085599,0,0,1,1,2,-1025
1398,16.09727,0,-1,0,0,4,-1027
1399,16.108929,-1,-1,2,-4,1,-1026
1400,16.120601,0,-2,1,2,2,-1030
1401,16.132264,0,-1,2,-4,-3,-1022
1402,16.143822,0,0,1,1,1,-1023
1403,16.15537,0,0,1,0,2,-1026
1404,16.166962,-1,-1,1,1,2,-1027
1405,16.178523,-1,0,1,1,-1,-1032
1406,16.190091,-1,0,0,-1,-5,-1022
1407,16.201626,0,0,0,1,0,-1026
1408,16.213167,0,0,0,0,2,-1021
1409,16.224718,0,-1,0,-3,-1,-1022
1410,16.236276,0,0,0,-3,1,-1019
1411,16.247896,0,0,1,3,-2,-1030
1412,16.259573,0,0,1,1,-1,-1027
1413,16.27125,0,0,1,-2,-1,-1034
1414,16.282905,-1,0,0,-1,-2,-1024
1415,16.294562,1,0,1,-1,-1,-1022
1416,16.306231,-1,-1,0,-5,-2,-1030
1417,16.317882,-1,0,0,1,1,-1024
1418,16.329532,0,-1,1,0,-3,-1019
1419,16.341177,-1,-1,0,2,0,-1032
1420,16.352733,-1,0,0,-2,0,-1020
1421,16.364356,0,-1,1,2,0,-1020
1422,16.375975,0,0,0,3,4,-1017
1423,16.38756,0,0,1,-1,-1,-1026
1424,16.399106,0,-1,0,1,-1,-1023
1425,16.410652,0,0,1,0,-2,-1028
1426,16.422228,-1,0,0,0,-2,-1021
1427,16.433778,0,0,0,0,-2,-1024
1428,16.445345,0,-1,0,-5,3,-1029
1429,16.45704,0,-1,0,0,-1,-1017
1430,16.468707,-1,0,0,0,1,-1019
1431,16.480361,0,-1,1,3,0,-1025
1432,16.492026,0,0,0,-3,2,-1027
1433,16.503678,-1,-1,0,0,3,-1029
1434,16.515317,0,0,1,1,3,-1026
1435,16.526999,-1,-1,0,-2,-3,-1025
1436,16.538654,-1,0,1,5,1,-1022
1437,16.550317,0,-1,1,3,3,-1030
1438,16.562016,-1,-1,1,1,1,-1023
1439,16.573678,0,0,0,-2,-1,-1025
1440,16.585326,0,-1,1,-3,-5,-1024
1441,16.596996,0,-1,1,1,1,-1019
1442,16.60865,-1,0,1,1,-1,-1023
1443,16.620292,0,0,1,3,-1,-1028
1444,16.631982,-1,0,1,1,4,-1025
1445,16.643643,-1,0,1,1,1,-1028
1446,16.655386,-1,0,0,3,2,-1031
1447,16.667047,0,-1,1,1,-3,-1023
1448,16.678581,-1,-1,0,-2,-1,-1023
1449,16.690151,-1,-1,0,1,1,-1020
1450,16.701732,0,0,0,2,-1,-1022
1451,16.713317,0,-1,0,3,3,-1023
1452,16.724862,0,-1,0,4,0,-1027
1453,16.736402,0,0,0,-3,-4,-1019
1454,16.747952,0,-1,0,-1,-1,-1028
1455,16.759513,0,-1,0,-3,3,-1026
1456,16.771184,0,0,0,1,0,-1022
1457,16.782873,-1,0,1,-2,2,-1027
1458,16.794538,-1,-1,1,4,0,-1022
1459,16.806209,-1,-1,0,-2,-3,-1027
1460,16.817887,-1,0,1,2,2,-1021
1461,16.829531,-1,-1,0,-3,1,-1025
1462,16.841182,0,-1,1,-1,2,-1018
1463,16.852868,-1,-1,1,0,2,-1028
1464,16.86453,-1,0,0,6,-3,-1024
1465,16.87622,-1,0,0,2,-1,-1020
1466,16.887771,-1,0,0,1,2,-1028
1467,16.899331,0,0,1,-2,2,-1023
1468,16.910879,0,-1,0,-3,-3,-1032
1469,16.92245,0,-1,1,-4,-1,-1022
1470,16.934003,0,-1,1,1,-1,-1025
1471,16.945555,-1,-1,0,2,0,-1021
1472,16.9571,-1,-1,0,-2,1,-1025
1473,16.968691,-1,0,0,4,1,-1022
1474,16.980314,-1,-1,0,-2,3,-1029
1475,16.992022,0,-1,0,1,1,-1021
1476,17.003664,-1,0,0,-1,3,-1020
1477,17.015307,0,0,0,3,-2,-1032
1478,17.02698,0,0,1,2,2,-1023
1479,17.038653,0,-1,0,-3,-2,-1034
1480,17.050306,-1,1,0,2,-1,-1027
1481,17.062006,-1,0,0,2,1,-1021
1482,17.073643,0,-1,0,-2,5,-1025
1483,17.085297,0,0,1,-3,1,-1031
1484,17.096858,0,-1,0,-4,-1,-1019
1485,17.10844,-1,0,0,-3,-1,-1021
1486,17.120002,-1,-1,0,0,-1,-1023
1487,17.131672,0,-1,1,-1,-2,-1027
1488,17.143245,0,0,1,-2,-1,-1019
1489,17.154816,0,0,1,-1,-2,-1024
1490,17.16634,0,0,0,-3,-3,-1022
1491,17.177925,-1,0,1,-1,3,-1028
1492,17.189568,0,0,0,-1,-1,-1021
1493,17.201241,-1,0,0,1,-6,-1025
1494,17.212895,0,0,1,5,1,-1019
1495,17.224541,0,-1,0,0,0,-1026
1496,17.236195,-1,0,0,-1,2,-1025
1497,17.24788,-1,-1,0,-2,-2,-1025
1498,17.259527,-1,0,0,-1,-3,-1026
1499,17.271188,0,0,1,1,-2,-1026
1500,17.283344,0,0,0,0,-2,-1025
1501,17.295148,0,-1,0,1,-1,-1023
1502,17.306727,0,0,0,-4,1,-1022
1503,17.318283,0,0,0,1,-1,-1027
1504,17.32986,-1,-1,0,1,-2,-1016
1505,17.341439,0,-1,0,-2,-2,-1024
1506,17.35299,-1,0,0,-1,0,-1022
1507,17.364607,-1,0,1,1,1,-1024
1508,17.376166,0,0,0,1,-3,-1019
1509,17.387716,0,0,0,-1,0,-1011
1510,17.399363,0,0,1,-2,0,-1026
1511,17.411044,0,-1,1,0,-2,-1019
1512,17.422695,0,0,0,-2,-4,-1022
1513,17.434382,-1,0,1,0,3,-1023
1514,17.446043,-1,-1,1,-1,-2,-1030
1515,17.457694,0,0,0,0,0,-1017
1516,17.469356,0,0,0,-1,-1,-1022
1517,17.481005,-1,0,1,3,-2,-1026
1518,17.492668,-1,0,1,-4,1,-1026
1519,17.504343,-1,0,1,-1,-5,-1025
1520,17.515937,0,-1,1,-2,1,-1029
1521,17.52752,0,0,1,-3,4,-1024
1522,17.539217,-1,-1,1,2,0,-1022
1523,17.550829,-1,0,1,-4,0,-1022
1524,17.562424,0,0,0,0,1,-1019
1525,17.573998,0,0,0,-1,-1,-1027
1526,17.585606,0,-1,1,2,1,-1025
1527,17.597194,-1,0,0,-2,-1,-1028
1528,17.608872,0,-1,1,0,2,-1025
1529,17.62053,-1,-1,0,-2,1,-1028
1530,17.63218,0,-1,0,3,-1,-1019
1531,17.643884,-1,0,0,1,3,-1024
1532,17.65554,0,-1,0,2,0,-1024
1533,17.667217,-1,0,1,0,-2,-1029
1534,17.678909,-1,0,0,-1,0,-1022
1535,17.690563,-1,0,0,-2,3,-1022
1536,17.702249,1,-1,0,1,0,-1022
1537,17.713929,0,0,0,-1,0,-1028
1538,17.725479,0,0,1,-1,-2,-1025
1539,17.737046,0,0,0,1,0,-1029
1540,17.748595,-1,0,1,2,-4,-1018
1541,17.760162,-1,0,1,-1,2,-1017
1542,17.771714,-1,1,2,3,2,-1025
1543,17.783309,0,0,0,-3,0,-1025
1544,17.794868,0,-1,1,-1,-1,-1025
1545,17.806471,0,-1,1,1,0,-1024
1546,17.818121,-1,-1,1,0,-3,-1025
1547,17.829782,0,0,0,-2,0,-1025
1548,17.84143,-1,0,1,-2,3,-1025
1549,17.853125,0,-1,0,-5,-2,-1023
1550,17.864769,0,-1,1,0,6,-1030
1551,17.876418,0,-1,0,3,1,-1022
1552,17.888088,-1,0,1,-1,0,-1022
1553,17.899748,0,0,1,1,1,-1021
1554,17.911412,-1,-2,0,3,-2,-1023
1555,17.923099,0,0,1,2,0,-1032
1556,17.934659,0,0,1,-2,-1,-1020
1557,17.946244,-1,0,0,-3,-1,-1024
1558,17.957855,0,0,0,-2,7,-1024
1559,17.969426,-1,-1,0,3,-2,-1026
1560,17.98098,0,-1,0,1,0,-1028
1561,17.992524,0,0,0,2,5,-1022
1562,18.004065,0,0,1,0,3,-1031
1563,18.015636,0,0,0,-2,-2,-1015
1564,18.027314,0,0,0,0,3,-1024
1565,18.038998,0,0,0,1,1,-1033
1566,18.050657,0,0,0,-4,-3,-1030
1567,18.062338,-1,0,0,0,3,-1031
1568,18.074024,0,-1,0,-4,-1,-1030
1569,18.085688,0,-1,1,0,-1,-1026
1570,18.097372,0,-1,0,-6,1,-1023
1571,18.109052,0,0,0,0,0,-1028
1572,18.120752,-1,0,0,1,1,-1032
1573,18.132437,-1,0,1,-2,2,-1020
1574,18.144021,0,-1,0,-4,-2,-1028
1575,18.155753,0,0,1,-1,-3,-1029
1576,18.169234,0,-1,0,1,-4,-1027
1577,18.180823,0,-1,0,3,1,-1025
1578,18.192373,0,-1,0,-1,0,-1027
1579,18.203928,-1,0,-1,-1,5,-1022
1580,18.215481,0,-1,1,1,1,-1026
1581,18.227107,0,0,0,-3,2,-1025
1582,18.238697,0,0,1,0,1,-1022
1583,18.250258,-1,0,0,0,-1,-1034
1584,18.261837,0,-1,0,4,2,-1030
1585,18.273389,0,-1,1,1,3,-1025
1586,18.284953,0,0,1,-2,-2,-1022
1587,18.296519,-1,0,1,3,0,-1025
1588,18.308071,-1,0,1,1,0,-1027
1589,18.319623,-1,0,1,2,0,-1023
1590,18.331274,-1,0,0,-5,1,-1033
1591,18.342939,-1,-1,0,1,-4,-1022
1592,18.354683,-1,1,1,-2,1,-1026
1593,18.366419,0,0,0,-3,3,-1024
1594,18.378126,0,0,0,1,-2,-1024
1595,18.389793,0,0,0,-4,-5,-1028
1596,18.401444,0,-1,1,3,1,-1020
1597,18.413114,0,-1,1,-2,2,-1024
1598,18.424772,0,0,1,3,0,-1021
1599,18.436452,-1,-1,1,0,-4,-1032
1600,18.448119,0,0,1,0,-1,-1024
1601,18.45978,0,0,0,-1,-3,-1026
1602,18.471451,0,0,0,-1,-2,-1026
1603,18.483151,0,0,0,1,-1,-1024
1604,18.494814,0,0,1,-1,0,-1023
1605,18.506523,0,0,0,3,2,-1021
1606,18.51814,-1,0,0,1,6,-1028
1607,18.529796,0,0,2,3,2,-1029
1608,18.541574,-1,0,1,0,-4,-1018
1609,18.553371,-1,-1,1,0,0,-1018
1610,18.565024,0,0,0,0,0,-1025
1611,18.576702,0,0,1,-3,2,-1032
1612,18.588257,0,1,0,-1,-3,-1021
1613,18.599822,0,-1,0,-2,-1,-1026
1614,18.61137,-1,0,1,5,2,-1025
1615,18.622952,-1,0,1,-1,0,-1031
1616,18.634574,-1,0,0,1,-1,-1025
1617,18.646162,0,-1,1,-1,-2,-1028
1618,18.657729,0,0,1,-4,1,-1027
1619,18.669311,0,1,1,1,1,-1031
1620,18.680865,-1,0,1,-5,0,-1023
1621,18.692437,0,0,1,0,1,-1026
1622,18.703989,0,-1,1,-1,2,-1031
1623,18.715566,0,-1,0,-4,1,-1028
1624,18.727107,-1,0,0,3,1,-1028
1625,18.738653,0,0,0,-2,-1,-1031
1626,18.750234,0,0,1,-2,0,-1028
1627,18.761915,-1,0,1,0,-1,-1028
1628,18.773673,0,-1,1,1,0,-1025
1629,18.78537,0,0,0,1,-2,-1024
1630,18.797018,0,-1,1,3,4,-1022
1631,18.808667,0,-1,1,-3,-3,-1039
1632,18.820315,0,-1,0,2,0,-1028
1633,18.831986,0,0,0,1,-2,-1022
1634,18.843631,-1,0,0,1,-5,-1025
1635,18.855347,0,-1,1,1,1,-1023
1636,18.867065,0,-1,1,-6,-4,-1024
1637,18.878636,0,-1,0,0,-3,-1020
1638,18.890219,-1,-1,0,0,1,-1028
1639,18.901774,0,-1,0,-1,2,-1021
1640,18.913329,0,-1,1,-3,-1,-1021
1641,18.924879,0,-1,1,1,0,-1029
1642,18.936432,0,-1,1,1,-1,-1020
1643,18.947999,-1,-1,-1,-1,-2,-1030
1644,18.959579,-1,-1,1,1,1,-1025
1645,18.971231,0,-1,0,2,-3,-1025
1646,18.982902,-1,-1,0,-2,2,-1029
1647,18.994564,0,-1,0,4,2,-1025
1648,19.006262,0,0,0,2,-2,-1027
1649,19.017884,-1,0,0,0,-1,-1025
1650,19.029527,0,0,1,1,-4,-1027
1651,19.041194,0,-1,0,-1,-3,-1027
1652,19.052857,0,-1,1,-1,-3,-1026
1653,19.064524,0,-1,1,-3,-4,-1020
1654,19.076218,0,0,0,-4,-4,-1023
1655,19.087817,-1,0,0,0,-2,-1026
1656,19.099377,0,-1,1,-1,0,-1018
1657,19.110958,0,0,0,-2,3,-1019
1658,19.122579,-1,-1,1,-1,-1,-1021
1659,19.134156,0,-1,0,0,-2,-1027
1660,19.145737,-1,-1,0,0,0,-1026
1661,19.15732,-1,0,0,1,1,-1019
1662,19.168909,0,0,-1,-1,-1,-1029
1663,19.180643,0,-1,0,1,-1,-1024
1664,19.192298,0,-1,0,1,0,-1020
1665,19.203971,-1,-1,1,2,0,-1022
1666,19.215634,-1,0,1,-2,1,-1022
1667,19.227342,0,0,0,1,-4,-1028
1668,19.239031,0,-1,1,1,1,-1023
1669,19.250657,0,0,0,0,-1,-1033
1670,19.262349,-1,-1,1,-1,3,-1023
1671,19.274118,0,-1,1,1,-3,-1020
1672,19.285695,0,-1,1,-4,2,-1031
1673,19.297251,0,0,0,0,0,-1023
1674,19.308812,-1,0,1,1,-2,-1025
1675,19.320354,0,0,1,-2,-1,-1031
1676,19.331907,-1,-1,0,-1,-1,-1029
1677,19.343455,0,0,0,-1,1,-1023
1678,19.354998,0,0,0,-3,1,-1021
1679,19.366574,0,0,0,0,-1,-1020
1680,19.378261,0,0,0,0,0,-1025
1681,19.390027,0,0,1,-4,-3,-1026
1682,19.401701,0,-1,0,-2,2,-1030
1683,19.413378,0,-1,0,2,2,-1024
1684,19.425045,-1,-1,0,1,2,-1027
1685,19.436704,0,-1,0,2,-5,-1031
1686,19.448355,0,-1,0,1,1,-1024
1687,19.460018,0,0,0,-2,0,-1023
1688,19.471726,-1,0,1,-2,1,-1030
1689,19.483423,0,0,1,-2,0,-1020
1690,19.494988,0,-1,1,0,2,-1023
1691,19.506574,-1,0,0,-2,-2,-1027
1692,19.518096,0,-1,1,0,6,-1021
1693,19.529684,0,0,0,-2,-2,-1026
1694,19.541224,0,0,0,1,1,-1020
1695,19.552763,0,0,0,1,5,-1021
1696,19.564308,0,0,0,0,1,-1028
1697,19.575869,0,0,0,-3,1,-1021
1698,19.587491,0,0,1,-3,-1,-1029
1699,19.599244,-1,0,0,0,-3,-1029
1700,19.61093,-1,-1,0,6,-2,-1026
1701,19.622602,-1,-1,0,-1,3,-1017
1702,19.634268,0,-1,1,0,0,-1026
1703,19.645937,0,0,1,1,0,-1027
1704,19.657622,0,-1,-1,-1,0,-1026
1705,19.669281,0,0,0,-2,-1,-1021
1706,19.680951,0,0,0,1,0,-1025
1707,19.692548,0,0,0,0,-4,-1021
1708,19.704106,0,1,0,1,-2,-1026
1709,19.71568,0,-1,0,1,-1,-1027
1710,19.727226,0,0,0,0,-3,-1023
1711,19.738809,-1,0,0,0,-2,-1020
1712,19.750341,0,-1,0,-1,-2,-1026
1713,19.761925,0,-1,0,1,-3,-1021
1714,19.773485,0,0,1,-4,-2,-1021
1715,19.785084,0,-1,1,-4,2,-1019
1716,19.796749,0,0,0,1,1,-1030
1717,19.80841,-1,0,0,-1,2,-1021
1718,19.820058,0,0,1,-1,2,-1031
1719,19.831738,0,0,1,-3,-5,-1025
1720,19.843398,-1,-1,1,2,-1,-1024
1721,19.855062,0,-1,1,-2,-2,-1027
1722,19.866739,-1,0,0,-1,0,-1027
1723,19.878403,-1,0,0,-3,-1,-1030
1724,19.890075,0,-1,1,1,-2,-1027
1725,19.901771,0,-1,0,-2,4,-1020
1726,19.913332,-1,0,1,2,-1,-1026
1727,19.924882,-1,1,0,-1,-1,-1019
1728,19.93644,-1,1,0,1,1,-1024
1729,19.947987,-1,0,1,-4,6,-1025
1730,19.959547,0,0,1,-1,0,-1019
1731,19.971125,0,0,1,-1,1,-1020
1732,19.982702,-1,-1,1,0,-1,-1024
1733,19.994273,0,0,1,-1,-1,-1024
1734,20.005892,-1,-1,1,0,1,-1021
1735,20.017552,0,-1,0,4,-2,-1031
1736,20.029231,0,-1,0,1,7,-1025
1737,20.040878,0,0,1,-1,0,-1028
1738,20.052529,0,-1,1,1,-1,-1021
1739,20.064197,-1,-1,1,0,-4,-1025
1740,20.075853,0,0,0,0,3,-1022
1741,20.087512,-1,0,0,0,-3,-1025
1742,20.0992,0,-1,0,-1,-4,-1023
1743,20.110946,0,-1,0,2,-1,-1029
1744,20.12254,-1,0,0,-1,2,-1023
1745,20.134101,0,0,0,1,1,-1025
1746,20.145663,-1,0,0,0,1,-1029
1747,20.157214,0,0,1,-1,4,-1023
1748,20.168763,-1,-1,0,-3,0,-1024
1749,20.180322,0,-1,0,-3,1,-1026
1750,20.1919,0,0,0,-2,-3,-1027
1751,20.203575,-1,0,1,2,3,-1030
1752,20.215223,0,0,0,3,1,-1026
1753,20.226909,-1,0,0,-2,0,-1024
1754,20.238594,0,0,1,2,0,-1027
1755,20.250282,0,0,0,0,-1,-1027
1756,20.261944,0,0,0,0,-2,-1030
1757,20.273615,0,0,0,2,2,-1027
1758,20.285264,1,0,1,1,1,-1022
1759,20.296935,0,-1,0,-2,-4,-1019
1760,20.308623,-1,0,-1,-2,0,-1024
1761,20.320306,-1,0,1,1,1,-1025
1762,20.331876,0,0,0,-1,-4,-1023
1763,20.343458,-1,0,1,-2,2,-1033
1764,20.355043,0,-1,0,0,-2,-1023
1765,20.366572,-1,0,0,-1,4,-1022
1766,20.378093,-1,-1,1,1,2,-1029
1767,20.389659,0,1,0,2,-4,-1029
1768,20.401205,0,0,1,-1,1,-1023
1769,20.412812,0,-1,0,2,-4,-1022
1770,20.424469,0,1,0,-1,2,-1029
1771,20.436117,-1,0,0,3,-3,-1022
1772,20.447769,-1,0,1,2,2,-1019
1773,20.459414,0,-1,1,1,0,-1039
1774,20.47108,0,-1,1,1,-1,-1018
1775,20.48273,0,0,0,0,1,-1025
1776,20.494395,0,-1,0,1,5,-1028
1777,20.506064,0,0,0,-1,1,-1029
1778,20.517757,-1,-1,1,0,-2,-1029
1779,20.529417,0,0,1,4,1,-1023
1780,20.541014,0,0,1,-3,0,-1030
1781,20.552568,-1,0,1,0,0,-1025
1782,20.564135,0,0,1,-1,2,-1022
1783,20.575683,-1,0,1,-3,-2,-1021
1784,20.587229,0,-1,1,-2,0,-1022
1785,20.598815,0,-1,0,-5,1,-1029
1786,20.610466,0,0,1,-1,-2,-1026
1787,20.622101,0,0,1,2,0,-1035
1788,20.633682,0,-1,0,0,0,-1020
1789,20.645266,-1,-1,1,-2,6,-1021
1790,20.656822,-1,0,0,5,-2,-1026
1791,20.6684,-1,0,1,2,3,-1024
1792,20.679938,0,-1,1,-2,-2,-1022
1793,20.691481,-1,0,0,1,1,-1027
1794,20.703061,-1,-1,0,0,-1,-1019
1795,20.714617,0,0,0,3,0,-1026
1796,20.726185,0,0,0,0,2,-1025
1797,20.737907,0,1,0,-2,1,-1026
1798,20.749613,0,0,0,1,-2,-1028
1799,20.761278,0,0,1,-4,-3,-1023
1800,20.772946,-1,0,1,2,1,-1026
1801,20.784608,0,-1,0,2,-2,-1028
1802,20.796265,-1,-1,1,3,-2,-1023
1803,20.807916,0,0,1,-1,-1,-1028
1804,20.819588,0,0,0,-2,3,-1026
1805,20.831263,-1,0,0,4,0,-1025
1806,20.842923,-1,-1,0,3,0,-1023
1807,20.854516,-1,0,0,1,-2,-1025
1808,20.866092,0,0,0,-1,2,-1029
1809,20.877674,-1,0,1,-2,0,-1025
1810,20.889215,-1,0,0,1,-1,-1024
1811,20.900761,0,0,0,-4,-3,-1017
1812,20.912308,0,0,1,-2,2,-1028
1813,20.92387,0,-1,1,0,1,-1027
1814,20.935433,0,0,1,-1,0,-1023
1815,20.947105,-1,0,0,-1,-1,-1024
1816,20.958801,0,0,1,3,0,-1025
1817,20.970468,0,0,0,-2,2,-1024
1818,20.982145,-1,0,0,-1,1,-1021
1819,20.993805,0,0,1,-1,-1,-1034
1820,21.005474,0,-1,0,-1,2,-1021
1821,21.017122,0,0,0,-2,-1,-1032
1822,21.028767,0,-1,1,2,-1,-1025
1823,21.04045,-1,-1,0,-2,2,-1024
1824,21.052104,-1,0,1,1,1,-1024
1825,21.063666,0,-1,0,-1,-1,-1025
1826,21.075218,0,0,1,0,2,-1018
1827,21.086839,-1,0,1,-3,1,-1022
1828,21.098451,0,0,1,-2,0,-1019
1829,21.110008,0,-1,1,-3,-2,-1021
1830,21.121569,-1,-1,1,-4,-3,-1027
1831,21.133117,0,0,0,1,1,-1025
1832,21.144685,0,0,1,-2,-1,-1024
1833,21.156335,-1,-1,1,-5,2,-1027
1834,21.167988,1,0,0,-1,0,-1022
1835,21.17964,0,-1,0,-2,-2,-1025
1836,21.191288,0,0,0,1,0,-1024
1837,21.20293,0,0,1,2,-3,-1018
1838,21.214629,0,0,1,0,0,-1028
1839,21.226343,0,0,1,0,2,-1019
1840,21.23801,0,-1,1,5,5,-1023
1841,21.249696,-1,0,1,0,1,-1019
1842,21.261376,-1,0,0,0,0,-1035
1843,21.272938,0,-1,1,1,-3,-1026
1844,21.284485,-1,0,0,0,1,-1022
1845,21.29604,0,-1,0,-1,1,-1022
1846,21.307594,0,-1,1,0,3,-1023
1847,21.319164,0,-1,1,3,-1,-1024
1848,21.330736,0,0,-1,3,4,-1025
1849,21.342323,0,-1,1,-2,3,-1028
1850,21.353935,0,-1,0,2,0,-1024
1851,21.365561,0,0,0,1,1,-1030
1852,21.377217,0,0,1,5,-3,-1019
1853,21.388874,-1,0,1,-4,4,-1027
1854,21.400538,-1,1,1,-2,2,-1027
1855,21.4122,-1,0,1,1,1,-1028
1856,21.423857,0,-1,1,-1,1,-1024
1857,21.435519,0,-1,1,1,1,-1029
1858,21.447222,0,-1,1,0,1,-1021
1859,21.458927,0,-1,0,-2,-1,-1022
1860,21.470488,0,0,0,2,-5,-1022
1861,21.482046,-1,0,0,0,-1,-1031
1862,21.493618,-1,0,1,-4,1,-1030
1863,21.505177,0,0,0,1,0,-1030
1864,21.51672,0,0,1,6,-2,-1028
1865,21.528264,0,0,1,-3,3,-1032
1866,21.539812,-1,0,0,-1,-2,-1024
1867,21.551361,0,0,0,-3,1,-1022
1868,21.562958,-1,0,0,-1,-2,-1028
1869,21.574606,-1,-1,1,-3,1,-1025
1870,21.58631,-1,0,0,-6,-2,-1024
1871,21.598009,0,0,0,0,2,-1024
1872,21.609684,-1,0,0,0,4,-1025
1873,21.621373,0,0,0,-3,-1,-1026
1874,21.633078,0,0,1,0,-3,-1025
1875,21.644796,-1,-1,0,0,-2,-1020
1876,21.656466,0,0,1,0,-3,-1021
1877,21.668146,0,0,1,1,-2,-1024
1878,21.679843,-1,0,2,0,-2,-1023
1879,21.69141,0,0,1,1,0,-1021
1880,21.70297,-1,1,1,0,-6,-1023
1881,21.714537,-1,1,0,-2,-4,-1020
1882,21.726099,0,-1,0,-1,5,-1033
1883,21.737669,0,-1,0,-1,1,-1031
1884,21.749217,0,0,0,-1,-2,-1030
1885,21.760809,-1,0,1,1,2,-1025
1886,21.772396,1,-1,0,1,0,-1024
1887,21.784009,0,-1,0,1,1,-1026
1888,21.795681,0,0,1,3,0,-1024
1889,21.807339,0,-1,1,0,0,-1031
1890,21.819031,0,-1,1,0,0,-1033
1891,21.830701,0,-1,0,1,-1,-1022
1892,21.842386,0,-1,0,0,-1,-1025
1893,21.854068,0,0,0,-2,0,-1021
1894,21.86574,-1,-1,0,0,-1,-1029
1895,21.877406,0,-1,0,-2,0,-1031
1896,21.889083,0,0,0,1,-3,-1028
1897,21.900662,-1,0,0,0,1,-1030
1898,21.912213,-1,-1,1,-1,3,-1024
1899,21.923781,0,0,0,0,2,-1034
1900,21.935322,0,0,0,-2,0,-1026
1901,21.946873,0,-1,0,-2,1,-1023
1902,21.958449,-1,0,1,-1,1,-1031
1903,21.970007,-1,-1,1,2,2,-1021
1904,21.98157,0,0,1,3,-5,-1026
1905,21.99321,0,0,0,-1,-1,-1026
1906,22.004868,0,-1,1,1,0,-1024
1907,22.016519,0,0,0,1,-3,-1023
1908,22.028191,0,0,0,1,0,-1020
1909,22.039837,0,-1,2,1,-2,-1024
1910,22.051526,0,0,0,1,0,-1025
1911,22.063203,0,-1,1,-2,1,-1020
1912,22.074906,0,0,0,1,0,-1027
1913,22.08656,0,-1,0,1,-4,-1029
1914,22.098088,0,0,1,1,4,-1027
1915,22.109615,-1,-1,1,-3,0,-1023
1916,22.121167,0,0,1,-2,4,-1022
1917,22.132715,0,0,1,0,1,-1024
1918,22.14426,-1,0,1,-1,-3,-1026
1919,22.155804,0,-1,1,0,3,-1020
1920,22.167393,0,0,0,3,0,-1021
1921,22.178954,-1,0,0,-1,-4,-1028
1922,22.190542,0,-1,0,-2,-3,-1031
1923,22.202216,-1,0,-1,-2,0,-1023
1924,22.213885,0,-1,1,-4,2,-1022
1925,22.225614,0,-1,1,0,0,-1029
1926,22.237261,0,0,1,-3,-1,-1023
1927,22.248934,0,-1,1,-2,-5,-1029
1928,22.260594,-1,-2,1,-2,1,-1024
1929,22.272234,0,0,1,-3,2,-1022
1930,22.2839,0,-1,0,0,-3,-1021
1931,22.295571,0,-1,1,2,0,-1021
1932,22.307119,-1,-1,1,0,-2,-1020
1933,22.318693,0,0,1,-4,3,-1024
1934,22.330246,-1,0,0,2,2,-1028
1935,22.341796,-1,-1,1,-2,4,-1027
1936,22.353374,-1,-1,0,-1,0,-1029
1937,22.364924,-1,0,0,-5,1,-1026
1938,22.376478,0,0,0,0,-1,-1017
1939,22.388041,0,-1,0,0,0,-1035
1940,22.399652,0,0,1,1,1,-1026
1941,22.411315,-1,0,1,1,1,-1026
1942,22.422969,1,-1,0,0,0,-1027
1943,22.434666,0,0,0,1,2,-1021
1944,22.446326,-1,1,0,-1,4,-1029
1945,22.458001,0,0,0,-1,5,-1024
1946,22.46967,0,1,1,0,2,-1023
1947,22.481328,-1,0,0,0,1,-1024
1948,22.492985,-1,1,0,2,1,-1021
1949,22.504663,0,-1,0,-2,-2,-1024
1950,22.516273,0,0,0,0,2,-1025
1951,22.52783,0,-1,0,-3,-2,-1021
1952,22.539396,0,0,1,-7,0,-1025
1953,22.550958,0,-1,0,-4,2,-1025
1954,22.562561,0,0,1,1,-2,-1024
1955,22.574159,0,-1,1,-1,2,-1024
1956,22.585737,1,0,0,1,1,-1025
1957,22.597299,-1,-1,1,-1,2,-1026
1958,22.608945,-1,0,1,-6,5,-1024
1959,22.620605,-1,-1,1,2,-3,-1026
1960,22.632275,-1,0,0,-1,2,-1018
1961,22.64395,-1,0,0,1,-1,-1023
1962,22.655608,-1,1,1,2,3,-1025
1963,22.667283,0,-1,0,4,-1,-1023
1964,22.678942,-1,-1,0,2,2,-1022
1965,22.69064,0,-1,0,-2,0,-1024
1966,22.702338,0,-1,0,-3,2,-1028
1967,22.713994,-1,0,1,0,-3,-1019
1968,22.725551,0,0,1,-2,-1,-1025
1969,22.737163,-1,-1,1,1,-2,-1020
1970,22.748824,-1,-1,1,3,3,-1035
1971,22.760412,0,0,0,-3,-2,-1025
1972,22.772029,-1,0,0,-3,3,-1024
1973,22.783595,0,0,0,3,-1,-1026
1974,22.795171,-1,0,0,0,-3,-1027
1975,22.806809,0,0,0,-2,-3,-1013
1976,22.818487,0,0,0,-3,-4,-1023
1977,22.830166,0,0,0,-5,-1,-1029
1978,22.841856,0,0,1,-1,2,-1027
1979,22.85351,0,-1,1,0,1,-1025
1980,22.86518,0,0,1,-2,0,-1029
1981,22.876832,0,0,1,-1,-1,-1025
1982,22.888479,0,0,0,-1,4,-1020
1983,22.900126,0,0,0,-2,-1,-1019
1984,22.91181,-1,-1,1,1,0,-1027
1985,22.92347,0,-1,0,3,-1,-1032
1986,22.935101,0,-1,1,0,0,-1029
1987,22.946673,0,-1,0,-1,-3,-1029
1988,22.958275,0,0,0,-2,-3,-1022
1989,22.969855,0,0,1,-2,-1,-1018
1990,22.981409,-1,0,-1,-2,0,-1027
1991,22.992952,0,0,1,-2,1,-1023
1992,23.004503,0,0,0,1,-4,-1023
1993,23.016068,0,-1,0,-1,1,-1025
1994,23.027722,0,0,1,2,1,-1021
1995,23.039376,0,0,0,2,0,-1028
1996,23.051081,0,0,0,-3,1,-1028
1997,23.062758,0,0,0,-2,-2,-1029
1998,23.07442,0,0,0,3,0,-1024
1999,23.086078,0,-1,0,-3,0,-1020
