sample,t_s,gyro_x,gyro_y,gyro_z,accel_x,accel_y,accel_z
0,1.3e-05,6,9,12,19,4,-1022
1,0.011408,4,8,10,16,6,-1020
2,0.022632,2,7,10,13,10,-1018
3,0.033816,2,7,10,18,2,-1023
4,0.04501,1,7,9,15,8,-1026
5,0.056199,2,8,9,16,4,-1022
6,0.067396,1,6,11,14,6,-1030
7,0.07856,1,6,9,21,5,-1020
8,0.089748,1,7,9,17,9,-1025
9,0.100936,2,6,10,18,5,-1028
10,0.112126,2,7,9,15,8,-1025
11,0.123313,2,7,9,13,2,-1020
12,0.1345,2,7,9,19,3,-1026
13,0.145684,2,7,9,17,7,-1030
14,0.15687,2,6,9,13,1,-1024
15,0.168054,2,6,9,15,8,-1023
16,0.179239,2,6,9,17,7,-1021
17,0.190429,2,6,9,12,7,-1026
18,0.201618,1,7,9,16,8,-1027
19,0.2128,2,6,10,19,4,-1022
20,0.223983,2,7,10,11,9,-1024
21,0.235169,2,8,9,18,8,-1021
22,0.246381,2,5,9,18,8,-1028
23,0.257628,2,6,9,16,2,-1030
24,0.268823,1,6,10,14,5,-1022
25,0.280011,2,5,9,16,3,-1026
26,0.291197,1,5,9,16,8,-1021
27,0.302374,1,5,9,17,7,-1024
28,0.313555,1,6,9,15,7,-1023
29,0.324743,1,6,10,16,6,-1025
30,0.335928,1,6,10,18,5,-1026
31,0.347113,1,7,10,15,3,-1025
32,0.358309,1,6,10,17,6,-1027
33,0.369496,1,6,9,19,5,-1024
34,0.38068,1,4,9,18,6,-1022
35,0.391865,0,5,10,14,2,-1022
36,0.403051,1,5,10,17,10,-1025
37,0.414253,1,6,9,19,6,-1019
38,0.425438,1,5,9,17,12,-1024
39,0.436621,2,5,8,15,4,-1029
40,0.447807,2,4,9,19,7,-1025
41,0.45905,2,5,9,17,4,-1024
42,0.470243,1,5,10,19,4,-1033
43,0.481434,1,5,10,21,7,-1026
44,0.49262,1,3,9,15,7,-1027
45,0.503807,1,4,10,17,6,-1029
46,0.51499,2,4,10,17,3,-1026
47,0.526187,1,5,10,15,7,-1022
48,0.537373,1,5,9,17,3,-1023
49,0.548556,1,5,9,15,3,-1024
50,0.559745,2,6,9,12,4,-1016
51,0.570929,2,7,9,13,5,-1024
52,0.582117,2,4,9,15,7,-1026
53,0.593307,1,4,9,20,6,-1028
54,0.604492,2,6,9,21,0,-1022
55,0.615674,2,6,9,13,6,-1018
56,0.626863,2,7,9,16,5,-1020
57,0.638005,2,5,9,13,10,-1023
58,0.649189,1,5,9,16,9,-1023
59,0.66037,2,5,10,17,4,-1027
60,0.671555,1,6,9,14,5,-1021
61,0.682744,1,5,10,11,9,-1021
62,0.693937,2,4,9,15,6,-1022
63,0.705119,2,5,9,18,5,-1023
64,0.716302,1,6,9,16,5,-1027
65,0.727492,2,6,9,15,8,-1029
66,0.738682,1,5,9,15,8,-1020
67,0.749869,1,5,9,18,5,-1027
68,0.761054,2,6,9,19,3,-1027
69,0.772254,2,5,9,15,6,-1024
70,0.783439,1,5,9,16,8,-1014
71,0.794628,2,6,9,16,6,-1032
72,0.805819,2,8,9,14,5,-1028
73,0.817003,2,6,9,17,8,-1023
74,0.828189,2,6,9,15,4,-1032
75,0.839373,3,7,9,16,10,-1019
76,0.850557,3,7,8,18,3,-1023
77,0.86175,3,7,8,16,7,-1027
78,0.872934,1,6,9,18,3,-1020
79,0.884116,2,7,10,15,6,-1028
80,0.895299,2,6,9,10,7,-1024
81,0.906485,2,6,8,15,6,-1023
82,0.917668,1,6,9,18,6,-1023
83,0.928851,2,5,9,15,7,-1017
84,0.940033,0,4,9,16,9,-1023
85,0.951223,1,4,9,20,7,-1026
86,0.96237,2,5,9,17,8,-1027
87,0.973573,1,6,9,13,8,-1026
88,0.984757,2,6,9,16,9,-1027
89,0.995943,1,7,9,16,5,-1024
90,1.007129,2,6,9,12,6,-1025
91,1.018317,2,7,9,11,8,-1024
92,1.029501,2,6,9,17,7,-1027
93,1.040691,2,8,9,18,5,-1023
94,1.051876,3,8,9,15,8,-1019
95,1.063061,2,7,10,17,7,-1019
96,1.074253,2,7,10,18,9,-1026
97,1.085436,2,6,9,30,8,-1024
98,1.096623,3,8,10,16,5,-1022
99,1.107809,2,8,9,16,8,-1026
100,1.118993,2,8,8,15,8,-1022
101,1.130199,2,6,10,13,4,-1024
102,1.141381,1,5,10,16,7,-1026
103,1.152565,1,5,10,18,8,-1020
104,1.163748,2,6,10,15,6,-1024
105,1.174929,2,6,9,18,4,-1025
106,1.186116,1,6,10,14,10,-1024
107,1.197299,2,6,9,17,2,-1024
108,1.20848,2,7,9,13,4,-1022
109,1.219664,2,6,9,17,8,-1026
110,1.230855,2,6,9,14,6,-1026
111,1.242005,2,6,10,16,6,-1019
112,1.253189,2,6,9,15,7,-1024
113,1.264377,2,7,8,14,4,-1024
114,1.275559,2,6,9,12,9,-1021
115,1.286745,2,6,10,16,4,-1021
116,1.297932,2,6,9,13,7,-1025
117,1.309118,3,6,9,19,6,-1027
118,1.320301,2,6,9,15,7,-1022
119,1.331485,2,5,9,16,9,-1022
120,1.342677,2,6,9,15,6,-1023
121,1.353863,2,6,8,15,11,-1030
122,1.365048,2,6,9,19,7,-1022
123,1.376231,1,6,9,17,6,-1021
124,1.387416,2,6,10,17,6,-1016
125,1.398606,2,6,9,16,5,-1023
126,1.409788,1,5,9,19,3,-1024
127,1.420972,1,5,9,15,10,-1023
128,1.432157,2,6,10,13,7,-1023
129,1.443345,1,5,10,18,6,-1026
130,1.454533,1,4,9,14,8,-1025
131,1.465721,2,5,8,20,5,-1024
132,1.476907,2,4,9,17,1,-1026
133,1.488113,1,4,8,15,4,-1024
134,1.499299,2,6,10,17,5,-1027
135,1.510486,2,6,10,16,4,-1024
136,1.521669,2,7,9,21,8,-1020
137,1.532851,2,8,10,18,9,-1021
138,1.544037,2,7,10,11,5,-1030
139,1.555223,2,8,9,12,8,-1025
140,1.566374,2,7,9,18,6,-1029
141,1.577558,3,8,8,18,8,-1030
142,1.588743,2,7,9,12,5,-1030
143,1.599927,2,8,9,18,6,-1027
144,1.611111,2,7,9,17,9,-1016
145,1.622305,2,7,9,16,9,-1022
146,1.633488,2,7,9,14,5,-1027
147,1.644671,1,6,9,15,7,-1025
148,1.655854,2,7,9,12,7,-1022
149,1.66704,1,6,9,17,6,-1026
150,1.67824,1,7,9,19,11,-1024
151,1.689424,2,6,9,16,4,-1025
152,1.700607,2,9,9,15,7,-1025
153,1.711792,2,8,9,16,6,-1025
154,1.722974,2,7,9,11,5,-1021
155,1.734159,2,6,9,18,8,-1014
156,1.745347,2,7,10,16,6,-1030
157,1.75653,2,6,9,17,6,-1018
158,1.76772,2,7,9,20,5,-1023
159,1.778927,1,5,9,14,7,-1021
160,1.790117,1,5,9,17,5,-1023
161,1.8013,1,5,9,11,9,-1023
162,1.812484,1,4,10,18,7,-1027
163,1.82367,1,5,10,19,2,-1020
164,1.834857,2,5,9,16,8,-1023
165,1.846015,2,5,9,15,6,-1020
166,1.857204,2,6,9,15,5,-1022
167,1.8684,3,7,9,19,10,-1025
168,1.879592,2,6,10,18,7,-1029
169,1.890744,2,5,9,13,6,-1023
170,1.901939,2,6,10,18,7,-1027
171,1.913125,1,5,9,15,7,-1025
172,1.924309,1,4,10,16,6,-1019
173,1.935494,1,5,9,16,4,-1019
174,1.946684,1,5,10,15,8,-1023
175,1.957869,1,4,10,15,8,-1025
176,1.969053,1,3,10,14,5,-1016
177,1.980234,1,5,10,15,6,-1025
178,1.991419,2,6,10,15,6,-1026
179,2.002608,2,6,10,12,4,-1026
180,2.013796,2,6,10,17,6,-1023
181,2.024982,1,5,10,17,3,-1031
182,2.036166,2,5,10,19,8,-1025
183,2.047354,2,5,10,16,5,-1017
184,2.058552,1,5,9,11,4,-1028
185,2.069741,1,3,9,16,4,-1023
186,2.080923,2,4,9,18,9,-1021
187,2.09211,2,4,9,14,8,-1027
188,2.103295,1,6,9,20,8,-1025
189,2.114483,1,3,9,20,5,-1025
190,2.125672,1,4,9,16,6,-1024
191,2.136858,2,5,9,15,6,-1021
192,2.148043,2,4,9,17,11,-1021
193,2.159225,1,4,10,17,8,-1026
194,2.170373,1,4,10,13,7,-1026
195,2.181557,1,4,9,16,5,-1020
196,2.19274,1,5,9,15,4,-1025
197,2.203939,2,5,10,15,6,-1023
198,2.215124,2,5,8,18,10,-1019
199,2.226319,2,7,9,17,9,-1027
200,2.237504,2,7,9,17,3,-1026
201,2.248688,1,5,10,17,4,-1019
202,2.259871,1,6,9,13,8,-1015
203,2.271059,3,6,9,20,3,-1027
204,2.282248,2,5,9,16,6,-1020
205,2.29343,2,5,9,13,8,-1029
206,2.304614,2,6,9,15,2,-1028
207,2.315798,2,4,9,16,2,-1028
208,2.326983,2,4,9,19,6,-1023
209,2.338179,2,6,9,16,6,-1020
210,2.349361,1,6,10,15,5,-1026
211,2.360543,2,5,9,15,5,-1023
212,2.371725,1,5,10,18,6,-1028
213,2.382934,1,7,9,17,9,-1022
214,2.39414,2,6,10,18,5,-1020
215,2.405329,2,5,10,15,4,-1024
216,2.416513,2,5,9,16,7,-1021
217,2.427702,2,6,9,13,9,-1027
218,2.438892,2,7,9,15,8,-1026
219,2.45008,2,5,9,16,7,-1023
220,2.461267,1,6,10,11,8,-1029
221,2.472455,2,6,9,11,9,-1028
222,2.483644,2,8,10,18,6,-1019
223,2.494833,2,6,9,15,6,-1020
224,2.506022,2,6,9,19,8,-1021
225,2.51758,2,6,10,15,5,-1019
226,2.529164,2,6,9,19,4,-1022
227,2.540709,2,6,9,12,9,-1029
228,2.552262,2,5,9,13,2,-1023
229,2.563836,1,5,9,13,9,-1028
230,2.575383,1,6,9,16,3,-1024
231,2.586942,2,6,9,14,6,-1020
232,2.598525,2,5,9,19,7,-1024
233,2.6101,2,6,9,16,10,-1023
234,2.621755,1,6,9,15,8,-1022
235,2.633421,2,6,9,17,8,-1021
236,2.64507,2,6,9,20,9,-1030
237,2.656735,2,5,10,15,7,-1018
238,2.668389,2,6,10,16,9,-1026
239,2.680035,2,5,10,13,4,-1022
240,2.69169,2,6,9,19,6,-1025
241,2.703361,1,5,10,16,5,-1021
242,2.71505,2,5,10,14,6,-1018
243,2.72671,2,6,9,15,4,-1024
244,2.738382,2,6,10,14,9,-1026
245,2.750035,1,6,9,15,8,-1029
246,2.761691,2,6,9,18,8,-1019
247,2.773357,2,7,9,19,6,-1024
248,2.785012,2,6,9,20,7,-1023
249,2.79667,2,5,10,18,11,-1023
250,2.808363,1,5,9,17,9,-1023
251,2.820018,1,5,9,18,6,-1023
252,2.831692,2,6,9,16,4,-1024
253,2.843352,2,5,9,16,7,-1019
254,2.855043,2,5,9,13,6,-1016
255,2.866713,1,6,10,15,5,-1019
256,2.878382,2,6,9,16,11,-1018
257,2.89005,1,6,9,17,4,-1024
258,2.901717,2,5,9,16,8,-1025
259,2.91338,2,5,10,15,6,-1018
260,2.925049,2,5,9,14,7,-1026
261,2.936739,2,5,9,16,9,-1021
262,2.94839,1,6,10,16,5,-1021
263,2.960059,2,5,10,16,5,-1028
264,2.971719,1,5,10,18,7,-1023
265,2.983398,1,6,10,16,5,-1023
266,2.995075,2,6,9,11,9,-1026
267,3.00675,3,6,10,20,6,-1020
268,3.018481,2,6,9,15,7,-1024
269,3.030125,1,5,9,14,10,-1025
270,3.041688,1,6,10,16,7,-1021
271,3.053254,1,6,10,17,6,-1017
272,3.064809,2,6,10,20,6,-1023
273,3.076356,2,5,10,17,8,-1023
274,3.087911,2,6,9,15,4,-1025
275,3.099462,2,6,9,23,9,-1019
276,3.111051,1,6,9,16,4,-1021
277,3.122595,2,6,9,11,6,-1029
278,3.134243,2,6,9,16,5,-1025
279,3.145907,2,5,9,16,8,-1024
280,3.157568,2,6,9,20,10,-1020
281,3.169225,2,7,10,15,4,-1026
282,3.180881,2,6,9,15,8,-1019
283,3.192527,1,5,9,15,7,-1024
284,3.204177,2,5,10,18,7,-1023
285,3.215848,2,5,9,13,3,-1023
286,3.227503,1,6,9,17,6,-1021
287,3.239181,2,6,9,13,6,-1027
288,3.250794,2,6,9,15,6,-1029
289,3.262339,1,6,10,14,5,-1020
290,3.273855,2,6,9,16,7,-1022
291,3.285409,1,5,9,16,7,-1027
292,3.296983,2,5,10,17,3,-1027
293,3.308544,1,6,10,15,5,-1026
294,3.320084,2,5,9,19,10,-1026
295,3.331638,2,6,9,16,5,-1018
296,3.343315,2,6,9,15,8,-1022
297,3.355008,2,5,10,18,6,-1022
298,3.366643,2,5,9,17,9,-1028
299,3.378296,2,6,10,16,4,-1029
300,3.389979,2,5,9,11,6,-1029
301,3.401635,2,5,9,12,4,-1027
302,3.413287,2,5,9,19,9,-1029
303,3.424938,2,6,10,17,7,-1024
304,3.436607,2,6,10,12,7,-1021
305,3.448184,1,6,10,14,5,-1018
306,3.459771,1,5,9,18,9,-1021
307,3.471328,2,6,10,16,8,-1023
308,3.482913,2,6,10,11,7,-1013
309,3.494477,1,6,10,15,3,-1024
310,3.506038,1,5,10,18,6,-1025
311,3.517589,1,6,9,16,8,-1020
312,3.529141,1,6,10,18,6,-1023
313,3.540725,2,6,9,19,7,-1027
314,3.552388,2,7,9,17,1,-1029
315,3.56409,2,6,10,17,4,-1017
316,3.575757,2,6,9,16,11,-1029
317,3.587413,1,6,9,15,5,-1026
318,3.599079,2,5,9,17,12,-1022
319,3.610772,2,6,9,18,10,-1020
320,3.622431,2,5,9,17,4,-1024
321,3.634115,2,6,10,22,5,-1028
322,3.645788,1,6,10,14,8,-1027
323,3.657465,1,6,9,17,5,-1029
324,3.669068,1,5,9,17,9,-1025
325,3.680653,2,6,9,17,8,-1025
326,3.692196,2,6,10,19,6,-1019
327,3.703767,1,5,10,19,6,-1025
328,3.715314,2,5,9,17,9,-1028
329,3.72686,2,6,8,19,5,-1022
330,3.738408,2,6,9,13,8,-1018
331,3.749975,1,7,10,17,9,-1028
332,3.761621,1,6,10,19,8,-1024
333,3.773283,2,6,9,14,5,-1024
334,3.784942,2,7,9,15,5,-1021
335,3.796598,2,5,9,16,6,-1021
336,3.80824,1,5,10,13,5,-1016
337,3.819888,2,6,9,18,3,-1025
338,3.831555,2,5,9,16,6,-1025
339,3.843214,2,6,9,18,3,-1027
340,3.854877,2,5,9,23,7,-1027
341,3.866452,2,6,10,13,9,-1019
342,3.878003,1,6,10,17,9,-1021
343,3.88955,1,6,10,17,6,-1023
344,3.90109,1,6,9,13,7,-1022
345,3.912633,1,6,10,15,7,-1018
346,3.924173,2,5,9,15,4,-1018
347,3.935758,1,6,9,18,8,-1023
348,3.947302,2,5,10,13,5,-1021
349,3.958921,2,6,9,18,8,-1028
350,3.970619,1,5,9,16,4,-1028
351,3.982278,2,6,9,18,6,-1025
352,3.993931,1,6,8,15,6,-1026
353,4.005599,1,5,9,17,8,-1020
354,4.017241,1,6,10,16,8,-1027
355,4.028885,1,5,10,20,6,-1025
356,4.040592,1,5,9,15,6,-1022
357,4.052248,1,5,9,17,4,-1027
358,4.063909,1,6,10,15,4,-1023
359,4.075561,1,6,10,18,6,-1015
360,4.087216,2,6,9,18,9,-1024
361,4.098887,2,6,9,15,7,-1023
362,4.110537,2,6,9,19,3,-1025
363,4.122199,1,6,10,16,10,-1020
364,4.133866,1,5,9,14,9,-1024
365,4.145514,1,6,10,15,5,-1030
366,4.157208,2,5,9,17,6,-1028
367,4.168846,1,6,9,14,10,-1018
368,4.180495,2,5,9,15,3,-1020
369,4.192161,1,6,9,17,5,-1019
370,4.203827,2,6,9,14,8,-1022
371,4.215479,2,6,9,15,4,-1027
372,4.227171,1,6,9,12,5,-1025
373,4.238832,1,5,10,14,5,-1023
374,4.250502,2,6,10,21,7,-1023
375,4.262207,2,6,10,17,4,-1022
376,4.273864,2,5,9,12,4,-1026
377,4.285515,2,6,8,16,2,-1023
378,4.297185,2,6,10,17,4,-1021
379,4.308847,1,6,10,14,5,-1022
380,4.3205,1,5,9,15,9,-1022
381,4.332143,2,6,9,16,5,-1029
382,4.343835,1,5,10,14,7,-1019
383,4.355551,2,5,10,16,5,-1026
384,4.367245,2,6,9,15,6,-1030
385,4.378955,2,6,10,16,5,-1023
386,4.390538,1,6,9,16,5,-1031
387,4.402089,2,6,9,17,8,-1026
388,4.413682,2,6,10,12,3,-1028
389,4.425233,2,6,9,13,4,-1027
390,4.436797,2,5,9,14,11,-1022
391,4.448352,2,5,10,19,7,-1024
392,4.459907,2,6,9,18,5,-1025
393,4.471471,2,6,9,15,6,-1018
394,4.483125,1,5,9,17,9,-1019
395,4.494808,2,6,9,16,8,-1029
396,4.506487,1,5,9,15,4,-1023
397,4.518123,2,6,9,16,3,-1022
398,4.529818,2,6,9,13,6,-1022
399,4.541494,2,6,9,20,3,-1020
400,4.553219,1,5,10,16,6,-1023
401,4.5649,1,6,8,15,7,-1026
402,4.576576,3,6,9,15,10,-1017
403,4.58824,2,6,10,14,5,-1022
404,4.599893,2,6,9,15,5,-1021
405,4.611566,2,5,9,18,5,-1026
406,4.623224,2,5,9,14,4,-1023
407,4.634893,1,5,9,19,3,-1021
408,4.646567,2,6,9,17,7,-1023
409,4.658242,3,6,9,17,9,-1025
410,4.669868,2,5,10,15,10,-1025
411,4.681537,2,6,9,16,7,-1024
412,4.693088,1,5,9,19,8,-1017
413,4.704637,1,6,10,17,7,-1026
414,4.716188,1,5,10,16,7,-1025
415,4.727768,1,5,8,18,5,-1034
416,4.739321,1,6,9,16,6,-1022
417,4.750905,2,5,9,18,5,-1026
418,4.762484,1,6,9,15,8,-1024
419,4.774052,2,6,9,16,6,-1024
420,4.785715,1,6,9,15,4,-1020
421,4.797382,1,5,9,16,4,-1034
422,4.809028,2,6,9,15,9,-1024
423,4.820684,2,5,9,15,6,-1022
424,4.832342,2,6,9,13,7,-1026
425,4.843996,1,6,9,13,6,-1028
426,4.855671,2,5,10,19,3,-1025
427,4.867329,1,5,9,15,7,-1026
428,4.87904,1,6,10,17,6,-1024
429,4.890713,2,6,9,20,6,-1025
430,4.902278,2,5,10,14,5,-1026
431,4.913857,2,5,10,15,5,-1021
432,4.925427,2,5,9,16,5,-1024
433,4.93699,2,5,10,17,4,-1025
434,4.948534,2,5,10,13,5,-1025
435,4.960116,2,5,9,19,8,-1027
436,4.971711,2,6,10,12,7,-1026
437,4.98332,1,5,10,12,6,-1019
438,4.994964,2,5,10,17,7,-1021
439,5.006646,2,5,9,15,10,-1020
440,5.018306,2,6,9,21,6,-1028
441,5.029997,2,7,10,17,3,-1017
442,5.041656,1,6,9,15,6,-1024
443,5.053311,1,6,9,15,7,-1015
444,5.064961,1,5,9,14,8,-1027
445,5.076612,1,6,9,16,4,-1023
446,5.088287,2,5,9,13,7,-1023
447,5.099949,1,4,9,21,11,-1028
448,5.111597,1,5,9,15,8,-1027
449,5.123305,2,6,9,16,6,-1023
450,5.134956,2,5,9,16,7,-1028
451,5.146628,1,6,9,13,6,-1023
452,5.158329,2,6,9,16,5,-1022
453,5.169995,2,6,8,19,5,-1023
454,5.181637,2,6,9,18,3,-1025
455,5.193345,1,5,9,17,4,-1015
456,5.204986,0,5,9,20,4,-1022
457,5.216712,1,6,9,19,5,-1019
458,5.228369,2,6,9,15,8,-1026
459,5.240009,2,6,10,16,7,-1021
460,5.251653,2,5,9,20,8,-1023
461,5.263329,1,6,10,16,8,-1024
462,5.275003,2,6,10,19,10,-1014
463,5.286634,2,6,9,17,4,-1023
464,5.298385,1,6,9,12,6,-1022
465,5.310054,1,5,10,18,8,-1024
466,5.321611,2,6,9,14,9,-1028
467,5.333168,1,6,9,13,4,-1023
468,5.344718,2,6,9,14,6,-1023
469,5.356275,1,6,9,12,8,-1025
470,5.367871,1,5,9,15,6,-1024
471,5.379561,2,6,9,14,10,-1021
472,5.39114,2,5,9,14,5,-1023
473,5.402728,1,6,9,12,5,-1023
474,5.414296,2,5,9,14,5,-1028
475,5.425913,1,6,9,18,6,-1022
476,5.437492,2,5,9,18,5,-1022
477,5.44904,1,6,9,11,5,-1025
478,5.460594,2,6,8,16,8,-1023
479,5.472155,1,5,9,17,2,-1022
480,5.483707,2,6,9,13,7,-1030
481,5.495294,1,5,9,15,10,-1023
482,5.506975,1,5,9,17,7,-1022
483,5.518621,2,6,10,16,6,-1023
484,5.530397,2,6,10,16,6,-1024
485,5.542079,1,5,9,14,5,-1022
486,5.55376,2,6,9,16,4,-1027
487,5.565656,2,6,10,18,5,-1022
488,5.577476,2,7,9,19,5,-1021
489,5.589179,2,6,9,14,8,-1023
490,5.600855,1,6,9,15,9,-1018
491,5.61261,2,6,10,16,7,-1019
492,5.624293,1,6,10,20,6,-1027
493,5.635862,2,6,9,16,8,-1022
494,5.647412,2,5,9,17,6,-1024
495,5.658967,2,5,10,20,8,-1017
496,5.670528,2,7,9,14,7,-1022
497,5.682102,2,5,9,15,5,-1020
498,5.693665,1,7,9,18,3,-1022
499,5.705231,2,6,9,14,5,-1023
500,5.716792,1,5,10,18,8,-1021
501,5.728426,1,5,9,20,12,-1021
502,5.740079,2,5,8,16,6,-1021
503,5.751775,1,5,10,16,1,-1024
504,5.763446,1,5,9,15,4,-1026
505,5.77512,2,6,9,22,5,-1025
506,5.786787,1,6,10,16,8,-1024
507,5.798462,1,6,10,16,5,-1026
508,5.810127,1,6,9,16,8,-1028
509,5.821816,2,5,9,18,5,-1027
510,5.83347,2,5,9,16,6,-1018
511,5.84503,2,5,9,13,10,-1020
512,5.856587,1,6,9,16,10,-1020
513,5.868147,2,6,9,17,7,-1019
514,5.879686,2,6,9,15,9,-1015
515,5.891227,2,6,10,18,7,-1025
516,5.902839,2,6,9,16,8,-1025
517,5.914387,1,6,9,14,6,-1024
518,5.925949,1,5,9,17,6,-1010
519,5.937569,2,5,9,11,6,-1026
520,5.949218,2,5,9,19,6,-1021
521,5.960871,1,6,9,13,11,-1019
522,5.972511,2,6,9,15,8,-1017
523,5.984198,1,5,9,18,10,-1026
524,5.995957,2,6,10,16,8,-1029
525,6.007603,1,6,9,18,9,-1026
526,6.019304,2,6,9,19,4,-1027
527,6.030955,2,6,9,16,6,-1026
528,6.042518,1,6,9,13,8,-1024
529,6.054097,1,6,10,17,6,-1028
530,6.065646,2,6,9,17,8,-1024
531,6.077212,2,5,10,16,5,-1023
532,6.088774,2,6,10,15,4,-1023
533,6.100325,2,6,9,16,2,-1029
534,6.111872,2,6,10,17,6,-1029
535,6.123416,2,6,10,20,3,-1027
536,6.135022,1,6,9,16,10,-1021
537,6.146654,2,6,9,15,2,-1019
538,6.158351,2,5,9,15,7,-1028
539,6.170009,2,6,10,13,9,-1024
540,6.181686,2,5,10,13,4,-1027
541,6.19333,2,6,9,14,8,-1022
542,6.204979,2,5,10,15,10,-1026
543,6.21664,2,5,10,14,7,-1018
544,6.228313,2,7,10,14,3,-1024
545,6.239981,2,6,9,12,5,-1029
546,6.251681,2,6,9,17,6,-1026
547,6.263301,1,6,9,13,10,-1023
548,6.274887,1,6,9,21,6,-1027
549,6.286452,1,5,10,16,6,-1023
550,6.298012,1,6,10,14,7,-1022
551,6.309556,1,6,9,16,5,-1021
552,6.321096,2,6,9,16,7,-1022
553,6.332636,2,6,10,13,6,-1022
554,6.344196,2,6,10,15,9,-1030
555,6.355821,2,5,9,15,4,-1020
556,6.367469,2,6,9,18,9,-1025
557,6.379155,2,6,9,17,4,-1020
558,6.390825,1,6,9,15,5,-1021
559,6.4025,1,7,9,10,9,-1023
560,6.414126,1,6,9,16,10,-1026
561,6.425798,1,6,9,15,8,-1027
562,6.437442,1,5,10,16,5,-1020
563,6.449098,1,5,9,14,5,-1023
564,6.460774,2,5,9,13,2,-1028
565,6.47233,2,5,10,14,7,-1031
566,6.483876,1,5,10,14,5,-1027
567,6.495424,2,6,10,20,10,-1029
568,6.506998,2,6,9,14,5,-1023
569,6.518572,1,5,9,15,10,-1024
570,6.530147,2,6,9,17,7,-1019
571,6.541694,2,5,9,18,8,-1026
572,6.553266,2,6,10,17,7,-1022
573,6.564882,1,5,10,16,4,-1023
574,6.576558,2,6,9,12,7,-1023
575,6.588211,1,5,9,18,7,-1025
576,6.599865,1,5,9,20,6,-1023
577,6.611536,1,6,10,14,7,-1018
578,6.623204,2,5,9,18,8,-1028
579,6.634941,2,6,10,16,7,-1019
580,6.646616,1,5,10,16,9,-1021
581,6.658317,1,6,10,14,5,-1017
582,6.669988,2,7,9,16,4,-1020
583,6.681561,2,6,9,16,9,-1023
584,6.693139,2,6,9,10,8,-1025
585,6.704688,1,5,9,12,5,-1022
586,6.716246,1,5,9,17,7,-1030
587,6.727789,0,6,9,12,5,-1013
588,6.739335,1,5,10,20,9,-1028
589,6.750886,1,6,10,16,9,-1023
590,6.762462,2,5,10,12,7,-1025
591,6.774123,2,6,9,15,6,-1026
592,6.785796,1,5,9,12,4,-1022
593,6.797448,1,5,10,15,7,-1014
594,6.809136,1,6,9,17,5,-1023
595,6.820799,2,6,9,17,3,-1022
596,6.832453,2,6,9,15,8,-1026
597,6.844106,2,6,9,15,5,-1022
598,6.855777,2,5,9,16,4,-1028
599,6.867428,1,6,9,15,5,-1025
600,6.878986,2,6,9,15,6,-1028
601,6.890567,1,6,9,17,8,-1027
602,6.902097,2,6,9,14,3,-1025
603,6.913644,2,5,10,16,6,-1025
604,6.925218,2,6,10,15,6,-1018
605,6.936766,2,5,9,15,8,-1020
606,6.948312,1,6,10,18,6,-1023
607,6.959893,2,6,10,10,6,-1027
608,6.97151,2,5,10,16,6,-1021
609,6.98317,2,6,9,15,5,-1026
610,6.994838,2,6,9,11,8,-1026
611,7.006568,2,5,8,17,5,-1021
612,7.018245,1,6,9,17,10,-1021
613,7.029868,2,5,9,14,7,-1023
614,7.041535,2,7,9,17,5,-1025
615,7.053183,1,5,9,14,7,-1023
616,7.064847,2,6,10,16,8,-1026
617,7.076523,1,6,9,16,5,-1023
618,7.088082,2,5,11,16,8,-1027
619,7.099641,2,5,9,14,5,-1038
620,7.111198,2,5,9,18,9,-1018
621,7.12276,2,6,10,15,7,-1029
622,7.134334,2,6,9,18,3,-1023
623,7.145854,2,6,9,15,6,-1022
624,7.157401,2,5,9,18,4,-1019
625,7.16895,1,5,9,16,3,-1025
626,7.180604,1,5,9,19,4,-1027
627,7.192257,1,6,9,17,6,-1019
628,7.203935,2,6,9,16,4,-1026
629,7.21558,1,5,9,18,8,-1026
630,7.227233,2,6,9,18,9,-1022
631,7.238919,2,6,9,14,1,-1027
632,7.250568,2,6,9,18,9,-1026
633,7.262248,2,6,10,19,7,-1026
634,7.273957,2,6,10,14,4,-1023
635,7.285611,2,6,9,20,5,-1019
636,7.297162,2,6,10,20,6,-1027
637,7.308719,2,6,9,16,5,-1016
638,7.320268,1,5,9,16,2,-1019
639,7.331812,2,6,9,18,4,-1020
640,7.343357,1,5,9,21,4,-1025
641,7.354936,1,5,9,18,10,-1023
642,7.366505,1,6,10,16,6,-1019
643,7.378111,2,5,10,19,9,-1027
644,7.389729,1,5,9,16,6,-1024
645,7.401377,2,7,9,19,7,-1025
646,7.413049,2,5,8,15,7,-1018
647,7.424696,1,5,10,15,6,-1020
648,7.436346,1,5,9,14,8,-1022
649,7.448014,2,6,9,15,6,-1023
650,7.459674,1,5,9,18,8,-1017
651,7.471329,1,6,9,19,3,-1020
652,7.483035,2,5,9,14,5,-1032
653,7.494687,2,6,9,18,4,-1027
654,7.506273,2,5,10,16,5,-1024
655,7.517854,1,5,10,16,4,-1019
656,7.529411,2,5,8,12,7,-1027
657,7.540991,2,5,10,15,5,-1026
658,7.552539,2,5,9,18,3,-1022
659,7.564107,2,6,9,14,7,-1023
660,7.575664,1,5,9,16,8,-1021
661,7.587243,2,5,9,18,6,-1023
662,7.598913,1,6,11,16,9,-1024
663,7.610585,2,6,9,13,7,-1024
664,7.622264,2,6,9,18,3,-1026
665,7.63394,1,6,10,13,5,-1019
666,7.645595,2,5,9,16,6,-1023
667,7.657238,2,6,9,19,8,-1028
668,7.668885,2,6,9,16,6,-1018
669,7.68055,2,6,9,14,4,-1025
670,7.692214,2,6,8,14,7,-1024
671,7.703887,1,6,10,19,6,-1026
672,7.715452,2,6,9,14,4,-1028
673,7.727013,1,6,9,17,7,-1024
674,7.738579,1,5,9,16,6,-1025
675,7.750169,1,6,9,12,8,-1027
676,7.761739,1,6,9,17,3,-1027
677,7.773283,1,6,10,14,8,-1027
678,7.784869,1,5,9,17,5,-1027
679,7.796436,2,5,10,12,8,-1026
680,7.808057,1,5,9,15,5,-1024
681,7.819713,1,5,10,20,8,-1027
682,7.831394,1,6,9,15,5,-1028
683,7.843059,2,6,9,18,8,-1027
684,7.854716,1,6,9,9,6,-1021
685,7.86638,2,7,9,17,5,-1026
686,7.878056,2,6,10,17,3,-1029
687,7.889709,1,6,9,21,6,-1028
688,7.901408,1,5,9,16,6,-1025
689,7.913066,2,6,9,15,9,-1022
690,7.924626,1,6,9,14,7,-1025
691,7.936167,2,5,9,15,9,-1017
692,7.94771,1,6,10,18,4,-1024
693,7.959284,2,6,9,18,5,-1029
694,7.970817,2,6,9,16,6,-1021
695,7.982338,1,6,9,20,3,-1021
696,7.993915,2,6,8,17,11,-1023
697,8.005501,1,6,9,18,4,-1022
698,8.017125,2,6,10,18,5,-1023
699,8.028799,1,6,9,17,4,-1029
700,8.040449,1,6,9,14,2,-1028
701,8.052095,1,6,9,13,2,-1022
702,8.063761,1,6,9,16,4,-1022
703,8.075418,2,7,9,15,1,-1023
704,8.08707,2,6,9,14,3,-1026
705,8.09877,2,6,9,16,4,-1016
706,8.110444,2,6,9,15,7,-1028
707,8.122123,1,6,9,14,7,-1024
708,8.133683,1,6,9,17,11,-1024
709,8.14525,1,6,10,17,10,-1015
710,8.156804,2,6,9,19,9,-1019
711,8.168376,2,6,9,19,7,-1022
712,8.179919,1,6,9,15,8,-1028
713,8.191461,2,5,9,13,4,-1026
714,8.203017,2,5,9,19,9,-1027
715,8.214583,2,6,10,13,7,-1021
716,8.226244,2,6,9,17,5,-1024
717,8.237908,1,5,9,13,4,-1023
718,8.249562,2,5,9,19,7,-1019
719,8.2612,2,6,9,14,3,-1025
720,8.272851,1,6,9,12,5,-1023
721,8.284517,2,6,10,20,7,-1018
722,8.296172,2,6,10,15,3,-1021
723,8.307821,2,5,10,19,1,-1022
724,8.319463,2,6,9,13,8,-1024
725,8.33104,2,6,9,19,11,-1025
726,8.342578,2,5,10,14,6,-1030
727,8.354096,2,6,9,16,4,-1025
728,8.365636,1,6,9,18,3,-1022
729,8.377213,2,6,10,16,6,-1028
730,8.388758,2,5,9,15,5,-1025
731,8.400305,2,6,10,15,1,-1023
732,8.411861,2,6,9,16,7,-1025
733,8.42349,1,5,9,15,6,-1023
734,8.435156,1,5,9,18,4,-1025
735,8.446821,1,5,9,19,8,-1020
736,8.458496,1,6,10,18,5,-1028
737,8.47013,1,5,10,23,8,-1025
738,8.481819,1,5,10,13,4,-1025
739,8.493477,2,5,9,18,5,-1024
740,8.505121,2,5,9,16,5,-1025
741,8.516798,2,6,9,18,6,-1028
742,8.528468,2,6,9,17,6,-1026
743,8.540022,1,6,9,15,7,-1028
744,8.551568,2,7,9,14,6,-1026
745,8.563132,1,5,9,19,6,-1022
746,8.574706,1,6,9,16,9,-1021
747,8.586266,1,6,9,15,8,-1021
748,8.597862,2,5,10,14,1,-1022
749,8.609418,1,6,9,18,2,-1022
750,8.621002,2,5,9,15,7,-1024
751,8.632625,2,6,10,18,7,-1024
752,8.644308,1,5,9,15,3,-1027
753,8.655979,2,5,9,16,1,-1029
754,8.667661,1,5,9,16,8,-1023
755,8.679305,1,5,9,12,5,-1018
756,8.690957,1,6,9,21,3,-1025
757,8.702641,1,6,10,16,6,-1023
758,8.714291,2,6,9,19,3,-1021
759,8.725955,2,5,9,13,2,-1027
760,8.737638,2,5,9,16,5,-1028
761,8.749193,2,6,9,15,7,-1029
762,8.760747,2,6,9,16,6,-1022
763,8.77229,2,6,9,16,8,-1021
764,8.783836,2,5,9,19,8,-1022
765,8.795384,2,5,10,15,6,-1022
766,8.806974,2,6,9,17,7,-1017
767,8.818521,2,6,10,15,5,-1028
768,8.830113,2,6,9,18,8,-1023
769,8.841728,1,5,9,18,5,-1025
770,8.853393,2,6,9,19,9,-1021
771,8.865075,1,6,9,18,8,-1023
772,8.87674,2,6,9,19,7,-1025
773,8.888407,2,6,9,21,9,-1026
774,8.900062,1,6,10,20,5,-1023
775,8.911712,2,6,9,17,7,-1024
776,8.923413,1,5,10,17,4,-1022
777,8.935068,1,6,9,15,5,-1026
778,8.946576,1,6,10,13,1,-1023
779,8.958097,2,6,10,13,6,-1021
780,8.969647,1,6,9,16,8,-1022
781,8.981235,1,6,9,13,4,-1025
782,8.992784,1,5,9,19,4,-1027
783,9.004357,1,6,10,20,8,-1025
784,9.015895,1,5,9,14,4,-1021
785,9.027434,1,5,8,15,10,-1022
786,9.038997,2,5,9,17,8,-1022
787,9.050632,1,5,10,16,8,-1021
788,9.062298,1,6,10,16,7,-1024
789,9.073942,1,6,9,17,7,-1020
790,9.085594,1,7,9,12,2,-1031
791,9.097244,2,6,10,17,8,-1027
792,9.108895,2,6,10,16,5,-1033
793,9.120547,2,6,9,13,6,-1017
794,9.132188,2,6,8,21,6,-1023
795,9.143849,2,5,9,17,5,-1024
796,9.155507,2,5,9,15,5,-1024
797,9.16709,2,5,9,16,3,-1015
798,9.178649,2,5,10,16,2,-1024
799,9.190224,2,6,9,18,7,-1020
800,9.20178,2,6,9,19,6,-1021
801,9.213375,2,6,10,17,7,-1020
802,9.224949,2,7,9,23,5,-1021
803,9.236497,2,6,10,12,7,-1024
804,9.248038,1,5,9,17,6,-1021
805,9.259681,1,5,9,11,4,-1016
806,9.271326,2,4,9,15,5,-1026
807,9.283008,1,5,9,15,0,-1022
808,9.294697,2,6,9,15,6,-1027
809,9.306362,2,6,10,17,2,-1026
810,9.318046,1,6,9,14,11,-1023
811,9.329692,2,7,10,13,10,-1020
812,9.341332,2,6,10,16,8,-1026
813,9.352994,1,5,9,15,9,-1028
814,9.364661,1,5,10,15,3,-1028
815,9.376226,1,6,9,18,4,-1026
816,9.387777,1,5,10,15,5,-1029
817,9.399319,1,7,9,14,6,-1019
818,9.410864,2,6,10,17,4,-1024
819,9.422469,2,5,9,16,7,-1025
820,9.434022,1,6,10,15,6,-1024
821,9.445562,2,6,9,13,7,-1024
822,9.457117,1,6,10,18,11,-1022
823,9.468818,2,5,10,12,3,-1022
824,9.480518,1,6,10,16,8,-1024
825,9.492166,1,5,9,15,5,-1024
826,9.503816,1,6,9,20,1,-1017
827,9.515464,2,6,9,18,7,-1026
828,9.527159,2,6,10,16,3,-1017
829,9.538825,2,6,10,16,3,-1023
830,9.55051,2,6,10,15,4,-1029
831,9.562188,1,5,9,21,6,-1022
832,9.573859,2,6,9,16,4,-1028
833,9.585412,1,6,9,16,0,-1015
834,9.597018,2,5,9,18,6,-1030
835,9.608607,2,6,9,14,3,-1026
836,9.62016,2,6,9,19,9,-1024
837,9.631762,2,5,9,16,6,-1021
838,9.643306,2,5,10,15,6,-1024
839,9.654816,2,6,9,22,7,-1027
840,9.666344,2,6,9,15,2,-1023
841,9.678041,1,6,10,17,4,-1022
842,9.689682,2,6,9,21,6,-1020
843,9.701337,2,5,10,13,6,-1023
844,9.712978,2,5,9,15,5,-1029
845,9.724625,2,6,10,14,8,-1025
846,9.736292,1,6,9,16,5,-1018
847,9.747935,1,5,9,17,9,-1019
848,9.759583,2,5,9,18,10,-1019
849,9.771282,1,6,10,16,5,-1024
850,9.782824,1,5,9,14,6,-1020
851,9.794339,2,5,9,14,7,-1023
852,9.805857,1,5,9,17,6,-1020
853,9.817412,2,6,9,15,8,-1027
854,9.828978,1,6,9,15,6,-1021
855,9.840528,2,5,9,17,8,-1020
856,9.852103,2,6,9,17,8,-1027
857,9.86365,2,6,9,18,7,-1023
858,9.875296,3,6,9,13,2,-1020
859,9.886977,2,6,9,16,7,-1022
860,9.898646,1,6,9,16,5,-1023
861,9.910313,2,6,9,20,6,-1022
862,9.921995,2,6,10,13,8,-1027
863,9.93371,2,6,10,15,4,-1025
864,9.945496,2,6,10,19,9,-1027
865,9.957167,2,5,9,17,6,-1022
866,9.968898,2,5,9,16,8,-1023
867,9.980625,1,6,9,17,4,-1026
868,9.992207,2,6,9,17,6,-1020
869,10.00377,1,5,9,14,10,-1024
870,10.015371,2,5,10,14,7,-1023
871,10.026973,1,6,8,19,2,-1023
872,10.038523,1,7,8,16,7,-1026
873,10.050091,1,6,9,14,3,-1026
874,10.061642,2,6,9,16,6,-1028
875,10.073209,2,7,10,22,1,-1025
876,10.084877,2,6,9,17,6,-1028
877,10.096546,1,6,10,16,3,-1025
878,10.108189,2,6,10,15,4,-1020
879,10.119837,2,5,10,16,8,-1026
880,10.131506,2,6,10,15,5,-1025
881,10.143156,1,6,9,17,5,-1026
882,10.154817,1,6,10,16,8,-1022
883,10.166512,2,6,10,14,7,-1025
884,10.178165,2,5,10,16,8,-1024
885,10.189739,2,5,10,18,1,-1022
886,10.201294,1,6,9,13,7,-1025
887,10.21286,1,5,10,17,5,-1028
888,10.224416,2,6,9,18,1,-1031
889,10.235985,2,6,8,19,9,-1022
890,10.247529,1,6,9,17,9,-1031
891,10.25906,1,6,9,12,5,-1021
892,10.270578,1,6,9,18,5,-1026
893,10.282123,2,5,9,17,7,-1022
894,10.29379,2,6,8,16,6,-1036
895,10.305443,2,6,9,18,6,-1020
896,10.317095,2,6,10,13,3,-1018
897,10.32877,1,6,9,14,6,-1027
898,10.340453,2,5,9,16,9,-1025
899,10.352108,2,6,10,19,5,-1022
900,10.363779,2,6,9,17,6,-1029
901,10.375423,2,7,9,15,3,-1027
902,10.387091,2,6,10,16,7,-1025
903,10.398778,2,5,8,17,5,-1026
904,10.41036,2,6,9,14,9,-1025
905,10.421923,2,6,9,21,8,-1022
906,10.433487,2,6,10,17,6,-1023
907,10.445028,2,5,9,16,5,-1022
908,10.456595,2,6,9,16,4,-1024
909,10.468145,1,6,9,18,8,-1021
910,10.479721,1,7,9,16,4,-1021
911,10.491302,1,6,9,15,5,-1017
912,10.502888,1,6,10,21,8,-1020
913,10.514544,2,5,9,17,7,-1016
914,10.526202,1,5,9,13,3,-1027
915,10.537907,1,5,9,13,10,-1025
916,10.549555,1,6,10,16,7,-1021
917,10.561208,1,5,9,18,7,-1023
918,10.572888,2,6,9,15,3,-1028
919,10.58453,2,5,9,14,7,-1020
920,10.596194,2,6,10,17,5,-1020
921,10.607871,2,5,10,16,5,-1020
922,10.619427,2,7,10,19,6,-1027
923,10.63099,2,6,9,14,7,-1027
924,10.64257,2,6,9,18,10,-1024
925,10.6541,2,5,10,9,7,-1025
926,10.66566,1,5,10,15,9,-1024
927,10.677226,2,5,10,17,9,-1018
928,10.688782,1,6,10,12,9,-1023
929,10.700407,1,6,9,14,4,-1025
930,10.712058,2,5,10,17,10,-1020
931,10.723766,1,5,9,18,1,-1020
932,10.735425,2,5,10,13,8,-1019
933,10.747076,2,6,9,18,6,-1022
934,10.758768,2,6,10,17,8,-1024
935,10.77044,2,6,10,15,4,-1026
936,10.782114,2,6,10,15,3,-1021
937,10.793778,1,5,9,17,7,-1018
938,10.805453,1,5,9,16,6,-1026
939,10.817115,2,6,9,16,10,-1020
940,10.828679,2,7,9,20,4,-1021
941,10.84023,2,6,9,15,6,-1022
942,10.851776,2,6,9,15,5,-1021
943,10.86332,2,6,9,15,8,-1018
944,10.87487,2,6,9,17,3,-1025
945,10.886473,1,6,9,21,11,-1026
946,10.898025,2,5,10,17,6,-1023
947,10.909608,2,5,10,18,7,-1026
948,10.921215,2,5,10,10,9,-1026
949,10.932877,2,6,10,18,5,-1026
950,10.944533,2,5,10,18,6,-1023
951,10.956219,2,6,10,17,6,-1023
952,10.967886,1,5,9,20,4,-1028
953,10.979535,1,6,10,14,7,-1018
954,10.991151,2,5,10,16,7,-1017
955,11.00281,2,5,10,15,6,-1025
956,11.014483,2,5,9,17,11,-1020
957,11.026122,2,6,9,14,7,-1028
958,11.037702,2,5,10,21,10,-1028
959,11.049267,1,5,9,17,6,-1019
960,11.060843,2,5,11,17,7,-1025
961,11.072398,1,6,10,11,9,-1025
962,11.083997,2,6,10,17,7,-1024
963,11.095546,2,5,9,15,12,-1019
964,11.107061,2,5,9,16,7,-1025
965,11.118592,2,6,10,15,5,-1026
966,11.130251,2,6,10,18,7,-1021
967,11.141913,1,6,9,15,6,-1020
968,11.153572,1,6,9,13,10,-1023
969,11.165239,1,5,9,14,8,-1020
970,11.176896,2,5,9,15,7,-1021
971,11.188548,1,5,10,15,9,-1021
972,11.200198,1,6,9,15,7,-1033
973,11.211875,1,5,10,18,6,-1024
974,11.223541,1,5,9,16,10,-1025
975,11.235198,2,6,9,16,7,-1025
976,11.246762,1,6,10,20,6,-1019
977,11.258335,2,5,9,17,6,-1024
978,11.269856,2,5,9,18,10,-1019
979,11.281441,2,6,9,11,7,-1024
980,11.292989,2,6,9,16,8,-1022
981,11.30457,1,6,9,18,5,-1028
982,11.316112,1,5,9,14,7,-1023
983,11.327667,1,5,9,17,5,-1027
984,11.339298,2,6,10,16,6,-1024
985,11.350989,2,5,10,15,3,-1023
986,11.362645,2,6,9,14,8,-1029
987,11.374313,1,5,9,17,7,-1027
988,11.386004,1,5,10,15,7,-1025
989,11.397664,3,6,10,15,9,-1025
990,11.409321,1,5,9,14,8,-1027
991,11.420989,2,6,10,12,4,-1020
992,11.432663,2,5,10,16,7,-1025
993,11.444359,1,5,10,18,6,-1023
994,11.455975,1,5,9,19,8,-1022
995,11.467529,2,6,10,18,10,-1021
996,11.479066,2,6,9,20,7,-1025
997,11.490616,2,6,10,19,6,-1022
998,11.502171,2,6,10,17,9,-1021
999,11.513722,2,6,10,16,6,-1018
1000,11.52527,2,5,9,19,10,-1031
1001,11.536831,2,6,9,17,7,-1024
1002,11.548483,1,6,9,17,4,-1024
1003,11.560207,2,6,10,17,4,-1023
1004,11.57204,3,5,9,16,4,-1021
1005,11.583724,2,5,10,1,5,-1026
1006,11.595428,2,6,10,15,7,-1025
1007,11.607091,1,6,9,12,6,-1025
1008,11.618778,1,6,9,11,7,-1017
1009,11.630439,1,5,9,15,7,-1017
1010,11.642238,2,6,9,19,9,-1023
1011,11.653926,2,6,9,17,8,-1017
1012,11.665489,1,6,9,19,9,-1019
1013,11.677036,1,6,9,18,5,-1026
1014,11.688588,1,5,9,16,9,-1019
1015,11.700139,1,6,10,19,9,-1023
1016,11.71171,2,6,10,17,5,-1028
1017,11.723428,1,7,9,16,6,-1019
1018,11.734982,1,6,9,15,5,-1022
1019,11.746609,2,6,9,19,6,-1018
1020,11.758274,2,6,9,16,7,-1022
1021,11.769939,2,6,10,17,7,-1027
1022,11.781598,1,6,10,18,6,-1023
1023,11.793265,2,6,10,15,7,-1023
1024,11.804917,1,6,10,14,7,-1023
1025,11.816557,1,5,9,15,6,-1024
1026,11.828255,2,6,9,14,7,-1024
1027,11.839912,0,6,9,20,4,-1019
1028,11.851572,2,6,9,16,3,-1028
1029,11.863274,2,7,9,18,3,-1028
1030,11.874839,2,6,9,17,8,-1027
1031,11.886395,2,5,10,19,5,-1025
1032,11.897978,3,6,9,20,8,-1022
1033,11.909525,2,5,9,14,5,-1017
1034,11.921072,2,5,10,15,4,-1025
1035,11.932619,2,5,9,15,6,-1031
1036,11.944212,2,6,9,18,6,-1026
1037,11.955772,2,6,10,13,4,-1021
1038,11.967397,2,6,9,16,3,-1028
1039,11.979065,2,6,10,16,0,-1028
1040,11.990711,1,6,10,18,8,-1024
1041,12.002385,1,6,9,15,8,-1022
1042,12.014044,2,6,9,16,4,-1022
1043,12.025711,2,6,10,17,5,-1022
1044,12.037381,2,6,10,17,6,-1023
1045,12.04903,2,6,9,18,6,-1023
1046,12.060692,2,6,10,12,7,-1026
1047,12.072352,2,5,9,20,7,-1028
1048,12.083927,2,6,9,13,6,-1019
1049,12.095483,1,6,9,16,6,-1020
1050,12.107056,2,5,9,19,8,-1026
1051,12.118581,1,6,9,17,6,-1022
1052,12.130137,2,6,9,20,4,-1028
1053,12.141708,2,6,10,15,9,-1022
1054,12.153266,2,6,10,17,8,-1022
1055,12.164845,2,6,9,14,6,-1027
1056,12.176481,2,7,8,17,3,-1021
1057,12.188178,2,5,9,15,2,-1024
1058,12.199831,2,5,10,16,5,-1024
1059,12.211504,2,6,9,19,6,-1017
1060,12.223144,2,6,10,16,6,-1026
1061,12.234838,2,6,10,15,5,-1023
1062,12.246527,2,6,9,15,3,-1024
1063,12.258195,2,6,9,16,5,-1020
1064,12.269876,2,5,10,15,6,-1025
1065,12.281527,2,6,9,15,7,-1019
1066,12.293188,1,6,9,18,7,-1023
1067,12.304872,2,6,9,15,2,-1022
1068,12.316517,1,5,9,18,6,-1028
1069,12.328188,1,6,9,17,8,-1027
1070,12.339923,2,6,10,14,4,-1026
1071,12.351585,1,6,10,17,8,-1023
1072,12.363292,2,6,10,18,4,-1021
1073,12.374998,2,5,10,16,5,-1021
1074,12.386696,2,6,10,15,8,-1022
1075,12.398252,1,6,9,14,8,-1024
1076,12.409794,1,6,9,14,8,-1027
1077,12.421338,1,6,9,18,4,-1026
1078,12.432929,2,6,9,19,6,-1017
1079,12.444483,2,6,9,14,7,-1024
1080,12.456059,2,5,10,17,8,-1023
1081,12.467601,1,5,9,17,8,-1025
1082,12.479186,2,5,9,15,5,-1019
1083,12.490923,1,6,9,20,7,-1019
1084,12.502611,1,6,9,15,9,-1022
1085,12.514282,1,5,10,20,3,-1021
1086,12.525936,2,5,9,18,7,-1019
1087,12.537616,2,6,10,13,7,-1022
1088,12.549266,1,6,10,17,2,-1026
1089,12.560938,1,5,9,19,6,-1026
1090,12.572601,2,5,10,16,8,-1030
1091,12.584269,2,6,9,17,6,-1029
1092,12.595946,1,6,10,17,8,-1024
1093,12.607501,2,6,9,13,4,-1019
1094,12.619068,2,5,9,16,6,-1024
1095,12.63063,1,5,9,16,5,-1025
1096,12.642224,2,5,9,15,6,-1026
1097,12.653852,1,6,9,16,4,-1021
1098,12.665426,2,5,9,16,7,-1023
1099,12.676968,2,5,9,19,9,-1021
1100,12.68853,2,6,10,15,5,-1026
1101,12.700156,2,6,9,14,4,-1024
1102,12.711807,2,6,9,14,10,-1018
1103,12.723476,2,5,9,14,7,-1020
1104,12.735177,1,5,9,17,8,-1025
1105,12.747026,2,7,9,17,5,-1020
1106,12.758721,1,6,10,16,5,-1027
1107,12.770387,2,6,9,16,5,-1024
1108,12.78205,2,6,9,14,3,-1023
1109,12.793741,2,5,9,16,8,-1029
1110,12.805428,1,5,9,14,3,-1024
1111,12.81698,2,7,9,17,2,-1022
1112,12.828528,2,6,9,15,6,-1023
1113,12.840081,1,5,10,14,5,-1022
1114,12.851633,1,6,10,12,2,-1017
1115,12.863202,1,5,9,21,7,-1025
1116,12.874757,2,6,9,12,5,-1021
1117,12.886341,2,6,9,20,4,-1032
1118,12.897912,2,6,9,12,8,-1026
1119,12.909524,2,6,9,17,4,-1017
1120,12.921182,2,6,9,17,8,-1028
1121,12.932885,2,6,8,14,6,-1027
1122,12.94454,2,6,9,18,5,-1028
1123,12.956198,2,6,9,17,9,-1023
1124,12.967849,2,6,10,17,6,-1030
1125,12.979503,2,6,9,12,6,-1027
1126,12.991154,2,5,9,15,7,-1021
1127,13.002807,2,5,9,16,7,-1022
1128,13.014462,2,6,9,19,6,-1020
1129,13.02613,2,5,9,16,5,-1033
1130,13.037784,2,5,9,15,4,-1023
1131,13.049443,2,6,10,11,2,-1024
1132,13.061085,2,6,9,17,7,-1017
1133,13.072761,2,5,9,18,6,-1019
1134,13.084413,2,6,9,16,6,-1021
1135,13.096057,2,6,10,14,7,-1024
1136,13.107851,2,6,10,13,5,-1021
1137,13.119513,2,5,9,13,5,-1025
1138,13.131063,1,6,8,18,7,-1028
1139,13.142618,1,6,9,14,5,-1030
1140,13.154221,2,6,9,19,2,-1020
1141,13.165848,2,6,9,17,8,-1025
1142,13.177419,2,6,9,16,5,-1027
1143,13.188963,2,6,9,19,7,-1029
1144,13.20051,2,5,9,13,7,-1030
1145,13.212074,2,5,10,19,7,-1019
1146,13.223772,1,5,10,14,7,-1023
1147,13.235432,1,5,9,10,8,-1022
1148,13.247103,1,4,9,17,6,-1027
1149,13.258788,1,5,9,17,5,-1022
1150,13.270468,2,5,9,15,6,-1016
1151,13.28213,2,6,10,17,5,-1029
1152,13.293786,2,6,10,15,6,-1027
1153,13.305465,2,6,10,16,8,-1020
1154,13.317132,1,5,9,17,6,-1026
1155,13.328794,2,5,9,10,4,-1019
1156,13.340351,1,6,9,13,6,-1028
1157,13.35194,1,5,9,17,10,-1025
1158,13.363588,1,6,10,13,5,-1025
1159,13.375138,1,5,9,17,8,-1021
1160,13.386719,1,5,10,17,6,-1024
1161,13.39827,2,6,9,17,6,-1026
1162,13.409844,2,6,10,19,5,-1028
1163,13.421393,1,5,9,16,8,-1020
1164,13.433075,1,6,10,17,8,-1023
1165,13.444751,1,6,9,20,6,-1027
1166,13.456402,1,5,9,15,6,-1027
1167,13.468054,1,6,9,11,6,-1026
1168,13.479732,2,5,10,19,4,-1033
1169,13.491411,2,6,9,15,4,-1027
1170,13.503062,2,6,9,18,9,-1025
1171,13.51471,1,5,9,14,6,-1018
1172,13.526396,1,6,9,16,10,-1024
1173,13.538106,1,6,9,15,7,-1021
1174,13.549696,1,6,8,18,9,-1026
1175,13.561254,2,5,8,17,6,-1024
1176,13.572817,2,5,9,15,10,-1022
1177,13.584359,2,6,9,16,12,-1021
1178,13.595911,2,5,10,19,8,-1031
1179,13.607463,2,6,10,16,9,-1022
1180,13.619026,1,7,9,14,8,-1021
1181,13.630593,1,6,9,12,7,-1023
1182,13.642294,2,6,10,15,11,-1027
1183,13.654003,2,6,10,12,6,-1026
1184,13.665655,2,6,10,15,5,-1024
1185,13.677342,2,5,10,17,10,-1022
1186,13.689005,2,5,9,17,7,-1025
1187,13.700656,2,6,9,16,6,-1022
1188,13.712305,2,6,9,15,5,-1028
1189,13.72398,2,6,10,18,7,-1025
1190,13.735648,1,6,9,16,3,-1025
1191,13.747308,2,5,10,16,5,-1025
1192,13.758873,2,6,9,18,8,-1028
1193,13.770533,2,5,9,14,8,-1020
1194,13.78211,2,5,10,15,6,-1018
1195,13.793692,2,5,9,12,7,-1028
1196,13.805252,2,6,9,22,8,-1019
1197,13.816816,2,5,9,20,8,-1021
1198,13.82836,1,6,10,14,11,-1028
1199,13.83992,1,6,9,17,5,-1018
1200,13.851534,1,6,10,17,3,-1022
1201,13.863184,2,6,9,14,5,-1028
1202,13.874862,1,5,9,19,7,-1025
1203,13.886524,2,6,10,15,6,-1026
1204,13.898181,1,6,9,14,3,-1025
1205,13.90986,2,6,10,12,5,-1024
1206,13.921548,1,5,9,16,5,-1017
1207,13.933199,2,6,10,17,6,-1018
1208,13.944869,2,6,9,18,7,-1027
1209,13.956525,1,7,9,16,8,-1026
1210,13.968082,1,5,9,14,3,-1025
1211,13.979634,1,6,9,17,7,-1027
1212,13.991201,2,6,10,19,5,-1029
1213,14.002817,2,5,9,14,7,-1027
1214,14.014341,1,5,9,15,9,-1030
1215,14.025912,1,6,9,9,7,-1022
1216,14.037462,2,5,9,18,7,-1028
1217,14.049079,2,5,10,17,8,-1025
1218,14.060723,2,6,9,16,7,-1013
1219,14.072385,2,6,9,15,9,-1022
1220,14.084029,1,6,9,13,8,-1024
1221,14.095678,1,6,9,16,6,-1027
1222,14.107356,1,6,9,16,7,-1024
1223,14.11903,2,6,10,16,9,-1020
1224,14.130691,2,6,9,16,3,-1022
1225,14.142387,2,6,9,14,6,-1023
1226,14.154051,2,5,9,14,7,-1023
1227,14.16574,1,5,9,17,9,-1026
1228,14.177298,2,6,9,16,3,-1027
1229,14.188857,2,6,9,14,11,-1022
1230,14.200434,2,6,9,16,3,-1022
1231,14.211988,2,5,9,19,4,-1024
1232,14.223549,2,6,9,16,8,-1022
1233,14.235116,2,6,9,16,5,-1024
1234,14.246704,2,6,9,15,7,-1024
1235,14.258343,1,5,9,15,5,-1023
1236,14.270016,2,5,9,15,5,-1027
1237,14.281678,2,6,9,12,6,-1028
1238,14.293333,1,5,10,20,9,-1024
1239,14.304992,1,5,9,13,5,-1026
1240,14.316648,2,6,9,18,8,-1023
1241,14.328329,1,6,9,14,9,-1019
1242,14.339987,2,6,10,17,7,-1018
1243,14.351644,2,6,10,17,6,-1024
1244,14.363363,1,4,10,14,6,-1022
1245,14.375027,2,5,9,17,8,-1028
1246,14.386577,2,6,9,18,6,-1022
1247,14.398162,2,6,10,15,6,-1029
1248,14.40974,1,5,9,13,5,-1032
1249,14.421324,2,7,10,15,8,-1022
1250,14.432864,1,6,9,20,6,-1023
1251,14.444411,2,6,9,15,7,-1025
1252,14.455956,1,5,10,11,5,-1030
1253,14.467509,1,6,9,20,6,-1025
1254,14.479132,2,6,10,14,8,-1026
1255,14.490793,2,6,8,16,1,-1023
1256,14.502465,2,6,9,12,8,-1024
1257,14.514122,2,6,9,19,4,-1024
1258,14.525769,1,6,9,12,5,-1025
1259,14.537431,1,5,9,18,4,-1025
1260,14.549121,2,6,9,18,3,-1025
1261,14.560785,2,6,9,15,7,-1023
1262,14.572469,1,6,9,15,5,-1028
1263,14.584137,1,6,9,17,3,-1034
1264,14.595703,2,6,10,15,10,-1018
1265,14.607255,1,6,10,17,6,-1019
1266,14.618825,2,6,9,16,8,-1029
1267,14.6304,2,5,9,16,5,-1025
1268,14.641975,2,6,9,17,4,-1025
1269,14.653574,1,6,9,18,6,-1023
1270,14.665122,2,6,10,14,9,-1022
1271,14.676695,1,6,10,13,7,-1026
1272,14.688312,2,5,9,17,5,-1030
1273,14.699986,1,6,9,17,7,-1027
1274,14.711648,2,6,10,18,7,-1027
1275,14.723352,1,5,9,16,5,-1026
1276,14.735027,1,6,10,18,9,-1029
1277,14.746691,2,6,10,16,8,-1022
1278,14.75838,2,6,9,12,5,-1022
1279,14.770035,1,6,9,16,3,-1023
1280,14.78171,2,6,10,16,6,-1021
1281,14.793388,2,6,9,18,4,-1031
1282,14.80502,2,5,10,14,11,-1025
1283,14.816576,2,6,9,14,9,-1018
1284,14.828146,1,6,9,17,8,-1021
1285,14.839699,1,6,9,13,8,-1024
1286,14.851288,2,6,9,13,10,-1017
1287,14.862823,2,5,10,15,7,-1022
1288,14.874341,2,5,9,17,8,-1023
1289,14.885929,2,6,9,15,5,-1022
1290,14.897472,2,5,9,14,8,-1029
1291,14.909054,1,5,9,14,6,-1018
1292,14.920603,2,5,10,16,6,-1024
1293,14.932161,1,6,9,16,10,-1025
1294,14.943708,2,6,10,17,6,-1024
1295,14.955326,2,5,9,12,8,-1027
1296,14.9669,2,6,9,17,4,-1038
1297,14.978462,2,6,10,13,10,-1018
1298,14.990094,1,5,9,15,4,-1020
1299,15.001728,2,6,10,12,9,-1022
1300,15.013396,2,6,10,12,1,-1027
1301,15.025068,2,6,9,19,4,-1025
1302,15.036738,2,5,10,14,5,-1021
1303,15.048391,2,6,9,15,4,-1021
1304,15.060056,1,5,9,14,6,-1016
1305,15.071732,1,5,10,14,9,-1024
1306,15.083411,1,5,10,17,11,-1024
1307,15.095093,2,6,10,18,9,-1023
1308,15.106773,1,6,9,13,8,-1027
1309,15.118428,2,5,10,20,11,-1023
1310,15.130108,2,5,10,15,8,-1024
1311,15.141762,1,5,9,14,6,-1020
1312,15.153437,2,5,10,14,5,-1024
1313,15.165096,2,6,9,17,5,-1025
1314,15.176755,2,5,9,17,3,-1028
1315,15.188397,1,6,9,13,6,-1021
1316,15.200077,2,5,9,17,7,-1025
1317,15.211769,1,6,9,14,5,-1023
1318,15.223414,1,6,10,15,7,-1025
1319,15.235072,2,6,10,15,3,-1022
1320,15.246764,1,6,10,15,8,-1025
1321,15.258421,1,7,10,17,6,-1022
1322,15.270102,2,7,9,15,6,-1027
1323,15.281753,1,6,9,16,6,-1021
1324,15.293396,2,5,9,12,4,-1021
1325,15.305055,2,6,10,18,7,-1028
1326,15.316732,2,6,9,16,7,-1025
1327,15.328311,2,5,10,11,5,-1028
1328,15.339862,2,6,9,16,2,-1031
1329,15.351432,1,6,9,18,3,-1019
1330,15.362983,2,6,10,16,5,-1027
1331,15.374559,2,6,9,15,5,-1025
1332,15.386097,1,5,9,16,8,-1032
1333,15.39766,2,5,9,14,7,-1021
1334,15.409273,2,6,9,13,4,-1022
1335,15.420893,2,6,9,16,8,-1034
1336,15.432561,1,6,9,15,2,-1025
1337,15.444228,2,5,10,17,4,-1023
1338,15.455874,2,6,9,13,3,-1025
1339,15.467527,2,5,9,17,6,-1021
1340,15.479156,1,6,9,19,5,-1027
1341,15.490806,2,7,9,14,8,-1021
1342,15.502507,2,7,10,17,7,-1023
1343,15.514178,2,7,10,20,6,-1025
1344,15.525878,1,7,9,16,9,-1021
1345,15.537528,2,5,9,15,6,-1023
1346,15.549198,2,6,10,18,7,-1023
1347,15.560851,2,6,9,13,3,-1024
1348,15.572522,2,6,9,13,8,-1023
1349,15.584181,1,6,9,13,5,-1026
1350,15.595862,1,6,9,16,8,-1023
1351,15.607506,1,6,9,12,7,-1026
1352,15.619249,1,6,9,15,4,-1021
1353,15.630884,2,5,10,15,2,-1024
1354,15.642459,2,5,9,17,7,-1022
1355,15.654081,1,6,9,16,6,-1020
1356,15.665648,2,6,9,13,5,-1021
1357,15.677189,2,6,10,16,4,-1022
1358,15.688736,2,5,9,17,7,-1025
1359,15.70028,2,5,9,20,13,-1022
1360,15.711829,1,5,9,15,5,-1021
1361,15.723381,1,5,9,20,6,-1025
1362,15.735011,2,5,9,16,6,-1022
1363,15.746639,2,6,9,16,6,-1021
1364,15.758319,2,5,9,18,5,-1022
1365,15.770002,2,5,10,14,10,-1022
1366,15.781651,2,5,9,17,5,-1022
1367,15.793339,2,6,9,12,8,-1034
1368,15.804989,2,6,10,16,8,-1027
1369,15.816644,1,6,10,17,6,-1024
1370,15.828346,2,5,10,17,4,-1024
1371,15.840016,1,5,9,12,7,-1027
1372,15.851593,1,5,9,16,5,-1020
1373,15.863172,1,6,9,16,9,-1023
1374,15.874727,1,6,9,13,5,-1024
1375,15.88628,1,5,10,18,3,-1021
1376,15.897871,2,5,9,15,6,-1016
1377,15.909439,1,5,9,14,7,-1024
1378,15.921023,2,4,9,12,8,-1027
1379,15.932591,2,5,9,12,4,-1026
1380,15.944238,2,5,10,17,4,-1022
1381,15.955903,3,6,10,14,8,-1023
1382,15.967558,2,5,9,19,10,-1021
1383,15.979233,2,6,9,17,7,-1023
1384,15.990902,2,5,9,18,9,-1023
1385,16.002559,2,6,10,13,3,-1023
1386,16.01426,1,6,9,17,8,-1025
1387,16.025935,3,5,10,17,6,-1027
1388,16.037608,2,6,10,14,11,-1023
1389,16.049265,2,6,9,15,5,-1024
1390,16.060813,2,6,10,16,3,-1028
1391,16.072355,2,6,9,13,3,-1019
1392,16.083909,2,6,9,15,4,-1025
1393,16.095456,1,5,10,15,1,-1024
1394,16.107041,2,6,10,15,4,-1027
1395,16.118574,1,6,9,17,5,-1023
1396,16.130098,2,7,9,15,8,-1022
1397,16.141656,1,6,11,14,4,-1031
1398,16.153273,1,5,9,14,4,-1017
1399,16.16492,2,5,9,15,8,-1024
1400,16.176567,2,5,9,19,10,-1029
1401,16.188227,2,6,9,13,7,-1029
1402,16.19987,2,5,9,12,9,-1023
1403,16.211515,1,6,9,16,4,-1026
1404,16.223151,2,5,9,13,9,-1026
1405,16.234855,2,6,9,13,8,-1021
1406,16.246552,1,6,10,14,10,-1023
1407,16.25821,2,6,8,17,6,-1022
1408,16.269843,2,6,10,17,7,-1027
1409,16.281411,2,6,9,16,7,-1016
1410,16.292956,1,6,9,19,5,-1022
1411,16.304507,1,6,9,15,5,-1024
1412,16.316053,2,6,9,15,4,-1024
1413,16.327624,2,6,9,14,7,-1025
1414,16.339192,2,6,9,15,8,-1025
1415,16.35076,2,5,9,18,5,-1022
1416,16.362388,2,6,10,17,3,-1027
1417,16.374051,2,6,10,16,9,-1021
1418,16.385767,2,6,10,19,7,-1023
1419,16.397436,1,5,10,18,4,-1028
1420,16.409092,2,6,9,16,2,-1025
1421,16.420771,2,6,9,17,4,-1020
1422,16.432513,2,6,10,16,3,-1027
1423,16.444202,2,6,9,16,3,-1024
1424,16.455855,1,6,9,16,5,-1029
1425,16.467434,1,7,9,13,6,-1022
1426,16.479022,2,6,9,13,2,-1020
1427,16.490582,2,5,10,20,7,-1020
1428,16.502175,2,5,9,18,8,-1021
1429,16.513714,2,5,10,16,7,-1024
1430,16.525256,1,6,9,18,4,-1022
1431,16.536801,2,6,10,13,7,-1023
1432,16.548347,2,6,9,19,7,-1026
1433,16.559916,1,5,9,15,8,-1020
1434,16.571574,2,7,10,16,6,-1026
1435,16.583243,1,5,10,17,6,-1023
1436,16.594888,1,6,10,16,7,-1023
1437,16.606573,2,6,9,17,8,-1028
1438,16.618249,2,6,9,15,1,-1023
1439,16.629909,2,5,9,13,4,-1017
1440,16.641625,1,6,9,13,3,-1022
1441,16.653281,2,6,9,17,4,-1021
1442,16.664957,2,5,10,13,8,-1013
1443,16.676536,1,6,9,13,6,-1025
1444,16.68808,1,5,10,16,4,-1021
1445,16.699627,1,6,10,16,5,-1025
1446,16.711188,2,5,10,14,9,-1024
1447,16.722735,1,6,9,13,6,-1025
1448,16.734282,1,5,8,12,5,-1029
1449,16.745848,1,5,9,15,8,-1026
1450,16.757422,1,5,10,15,3,-1019
1451,16.769059,2,5,8,19,2,-1030
1452,16.780725,1,5,9,15,6,-1029
1453,16.792366,2,6,10,12,9,-1026
1454,16.804013,2,6,9,15,5,-1015
1455,16.815684,2,6,9,18,8,-1021
1456,16.827343,1,6,10,15,2,-1028
1457,16.839019,1,5,9,17,6,-1020
1458,16.85071,1,6,9,18,4,-1022
1459,16.862401,2,6,9,15,10,-1022
1460,16.874067,2,5,9,15,6,-1023
1461,16.885671,2,5,9,13,2,-1024
1462,16.897226,2,6,9,13,6,-1021
1463,16.908779,1,6,9,15,8,-1023
1464,16.920331,1,5,9,15,6,-1018
1465,16.931904,2,6,9,15,9,-1026
1466,16.943459,1,6,9,15,6,-1021
1467,16.955036,2,6,10,17,5,-1021
1468,16.966593,1,6,9,16,6,-1027
1469,16.978277,2,7,10,17,7,-1025
1470,16.989992,2,6,11,8,9,-1023
1471,17.001649,1,6,10,17,3,-1023
1472,17.013352,2,5,10,13,5,-1023
1473,17.025,1,5,10,16,7,-1022
1474,17.03665,2,5,9,15,9,-1027
1475,17.048341,2,6,10,19,3,-1022
1476,17.059986,2,6,9,17,4,-1021
1477,17.071656,1,6,9,18,8,-1020
1478,17.083353,2,6,9,18,7,-1026
1479,17.094938,1,6,10,13,3,-1026
1480,17.1065,1,6,9,14,5,-1024
1481,17.118078,2,6,10,15,7,-1017
1482,17.129641,2,5,9,14,7,-1025
1483,17.141187,2,7,9,17,5,-1022
1484,17.152736,2,6,10,16,5,-1023
1485,17.164285,2,6,9,20,8,-1032
1486,17.175849,2,7,9,18,10,-1024
1487,17.187487,2,6,9,18,7,-1026
1488,17.199162,2,6,10,14,6,-1027
1489,17.210823,1,6,10,15,8,-1024
1490,17.222507,1,6,9,19,10,-1024
1491,17.234181,2,6,9,17,7,-1026
1492,17.245859,1,6,10,18,9,-1025
1493,17.257518,1,6,10,13,5,-1022
1494,17.269179,1,7,9,14,3,-1020
1495,17.280849,2,6,9,17,4,-1021
1496,17.292503,2,6,10,13,6,-1021
1497,17.304159,2,6,10,14,7,-1028
1498,17.315815,2,6,10,16,8,-1028
1499,17.327468,2,6,9,12,7,-1024
1500,17.339144,1,6,9,15,6,-1026
1501,17.350785,1,6,10,15,11,-1024
1502,17.362462,1,6,10,16,6,-1029
1503,17.374126,2,7,9,17,9,-1022
1504,17.385941,2,6,9,16,3,-1026
1505,17.397597,1,5,9,20,7,-1028
1506,17.409172,2,6,10,13,7,-1018
1507,17.420777,2,5,10,17,6,-1019
1508,17.432335,2,6,9,19,7,-1023
1509,17.443913,2,6,10,19,6,-1026
1510,17.45546,1,6,9,16,5,-1024
1511,17.467043,2,6,10,17,5,-1027
1512,17.478581,1,6,9,18,5,-1014
1513,17.490161,1,5,8,16,2,-1031
1514,17.501857,2,6,9,15,5,-1019
1515,17.513525,2,6,9,15,3,-1029
1516,17.525196,1,6,10,14,11,-1024
1517,17.536851,2,6,9,14,7,-1027
1518,17.548506,2,6,10,14,6,-1027
1519,17.560179,2,6,10,14,8,-1025
1520,17.571944,2,4,9,15,4,-1023
1521,17.583616,1,6,9,15,4,-1032
1522,17.595317,2,5,9,12,11,-1023
1523,17.606868,1,5,9,16,9,-1020
1524,17.618454,2,6,9,15,5,-1023
1525,17.630034,2,5,9,16,4,-1022
1526,17.641574,2,4,9,16,4,-1026
1527,17.65311,2,5,9,14,3,-1023
1528,17.664654,2,5,9,15,7,-1026
1529,17.676199,1,5,9,18,7,-1025
1530,17.687762,2,6,10,14,9,-1020
1531,17.699324,2,6,9,15,4,-1023
1532,17.710964,2,5,9,14,7,-1022
1533,17.722637,2,6,10,11,7,-1020
1534,17.734309,1,6,9,15,8,-1023
1535,17.745989,2,6,8,13,8,-1024
1536,17.757681,2,5,9,15,5,-1028
1537,17.769335,1,6,9,16,3,-1017
1538,17.780982,2,6,10,15,3,-1020
1539,17.792629,1,5,10,16,5,-1022
1540,17.804305,2,6,10,16,7,-1024
1541,17.815967,1,5,9,13,7,-1026
1542,17.827619,1,5,10,14,9,-1019
1543,17.839301,1,6,9,16,7,-1026
1544,17.850957,2,6,8,14,6,-1018
1545,17.862641,2,6,9,16,8,-1023
1546,17.874363,2,6,9,17,5,-1029
1547,17.886026,2,6,9,15,8,-1021
1548,17.897712,2,5,9,15,5,-1025
1549,17.909443,1,6,9,19,5,-1027
1550,17.921106,1,5,10,12,8,-1022
1551,17.932659,2,5,9,17,8,-1018
1552,17.944197,1,5,9,14,4,-1025
1553,17.955767,1,6,10,17,8,-1021
1554,17.967316,2,5,9,19,3,-1025
1555,17.978863,1,6,9,17,3,-1019
1556,17.99041,2,5,8,17,5,-1022
1557,18.001979,2,6,10,12,12,-1018
1558,18.013557,1,6,10,17,8,-1027
1559,18.025221,2,5,10,20,1,-1025
1560,18.036879,2,5,9,17,10,-1021
1561,18.048522,2,6,9,20,8,-1020
1562,18.060202,2,6,9,17,6,-1021
1563,18.071859,1,6,9,17,6,-1026
1564,18.083501,2,6,10,15,9,-1023
1565,18.095168,2,5,9,19,6,-1027
1566,18.106857,2,5,10,16,5,-1023
1567,18.118561,1,6,9,20,9,-1027
1568,18.130158,1,6,9,16,4,-1021
1569,18.141725,1,6,9,17,1,-1029
1570,18.153303,2,6,10,12,8,-1025
1571,18.164872,1,6,10,19,7,-1025
1572,18.176414,1,6,9,13,3,-1023
1573,18.187951,2,6,10,13,4,-1018
1574,18.199501,2,6,10,15,6,-1024
1575,18.211077,2,5,9,20,5,-1027
1576,18.222646,2,5,9,17,4,-1028
1577,18.234298,1,6,9,18,4,-1030
1578,18.245988,2,5,10,19,8,-1021
1579,18.257638,2,6,9,18,6,-1027
1580,18.269288,2,6,9,16,3,-1025
1581,18.280954,2,5,9,20,5,-1025
1582,18.292597,2,5,10,13,7,-1023
1583,18.304243,1,6,10,15,0,-1021
1584,18.3159,1,5,10,12,5,-1021
1585,18.327579,1,5,9,13,13,-1025
1586,18.339261,1,6,9,15,4,-1027
1587,18.350832,1,6,10,14,8,-1028
1588,18.36243,2,5,10,19,6,-1026
1589,18.373992,1,6,9,14,8,-1027
1590,18.385548,2,6,9,11,6,-1018
1591,18.397127,2,6,9,12,4,-1022
1592,18.408666,2,6,9,18,3,-1022
1593,18.420206,2,5,10,16,7,-1023
1594,18.431777,2,6,10,13,2,-1020
1595,18.443437,1,6,9,14,6,-1015
1596,18.455127,1,6,10,15,7,-1021
1597,18.46679,2,5,9,13,4,-1019
1598,18.47846,2,6,9,17,7,-1021
1599,18.490153,1,6,10,16,3,-1022
1600,18.50181,3,6,9,13,4,-1018
1601,18.513466,2,5,9,15,1,-1027
1602,18.525109,2,5,9,14,3,-1023
1603,18.536772,2,6,9,21,8,-1025
1604,18.548442,2,6,9,17,8,-1028
1605,18.560024,2,6,9,13,8,-1022
1606,18.57157,1,5,10,21,6,-1028
1607,18.583114,1,6,9,22,7,-1022
1608,18.594685,2,5,9,18,10,-1020
1609,18.606242,2,5,10,20,8,-1026
1610,18.617782,1,6,10,15,7,-1020
1611,18.629341,2,5,10,18,6,-1025
1612,18.643285,2,6,10,16,8,-1020
1613,18.654876,2,5,10,19,8,-1023
1614,18.666452,2,6,9,10,9,-1019
1615,18.678013,2,6,9,16,6,-1023
1616,18.689561,2,5,10,15,7,-1022
1617,18.701141,2,5,9,12,2,-1024
1618,18.712688,2,6,10,14,7,-1029
1619,18.724264,2,5,10,14,6,-1023
1620,18.735804,2,5,9,15,8,-1027
1621,18.747426,1,6,10,17,7,-1020
1622,18.75907,1,6,10,12,10,-1022
1623,18.77076,1,5,9,15,4,-1031
1624,18.782383,1,5,10,17,5,-1025
1625,18.794036,1,5,10,14,8,-1021
1626,18.805696,2,6,9,16,9,-1028
1627,18.817338,2,6,9,10,7,-1030
1628,18.828981,2,5,9,19,7,-1022
1629,18.840644,2,6,10,18,8,-1030
1630,18.852325,2,6,10,14,9,-1025
1631,18.864014,2,5,10,17,7,-1026
1632,18.875684,2,6,10,18,7,-1024
1633,18.887387,1,6,9,15,9,-1028
1634,18.89909,1,5,9,19,4,-1025
1635,18.910784,1,7,9,16,5,-1019
1636,18.922458,2,5,9,15,6,-1023
1637,18.934126,2,6,9,16,6,-1024
1638,18.945855,2,5,9,13,7,-1023
1639,18.957514,2,6,9,15,8,-1018
1640,18.969197,1,5,9,14,7,-1022
1641,18.980774,1,6,10,17,5,-1024
1642,18.992332,2,6,10,16,5,-1027
1643,19.003902,2,6,10,16,3,-1024
1644,19.015446,2,6,9,15,3,-1022
1645,19.027001,1,7,9,13,7,-1025
1646,19.038571,1,7,10,10,7,-1029
1647,19.0501,2,6,9,13,2,-1025
1648,19.061667,2,6,10,17,7,-1016
1649,19.073319,2,5,9,15,5,-1024
1650,19.084987,2,5,9,15,10,-1026
1651,19.096722,2,6,9,15,8,-1026
1652,19.108393,2,6,9,14,4,-1022
1653,19.120049,1,5,9,15,3,-1024
1654,19.13171,2,6,9,15,5,-1024
1655,19.143426,2,6,9,16,8,-1025
1656,19.15508,2,6,9,15,5,-1026
1657,19.166774,2,6,10,17,12,-1024
1658,19.178485,1,6,9,13,6,-1028
1659,19.190036,2,6,10,10,8,-1029
1660,19.201618,2,6,9,13,6,-1028
1661,19.213171,1,6,9,14,11,-1028
1662,19.224748,1,5,9,14,5,-1022
1663,19.236285,1,6,10,20,3,-1020
1664,19.247827,2,7,10,18,4,-1022
1665,19.259406,3,5,9,18,6,-1020
1666,19.270974,1,6,9,17,8,-1028
1667,19.282626,2,6,10,15,8,-1027
1668,19.294309,1,6,9,14,6,-1023
1669,19.305985,1,6,9,17,10,-1023
1670,19.317662,2,5,9,19,5,-1019
1671,19.329319,1,6,9,16,4,-1026
1672,19.340971,2,5,9,17,7,-1026
1673,19.352622,1,5,9,13,7,-1019
1674,19.364307,2,7,9,14,4,-1030
1675,19.375958,1,7,9,13,8,-1033
1676,19.387521,1,6,8,17,8,-1026
1677,19.399054,2,5,9,16,9,-1022
1678,19.410615,1,6,9,16,6,-1025
1679,19.422171,2,6,10,14,6,-1031
1680,19.433749,1,5,10,14,9,-1024
1681,19.445293,2,5,10,18,9,-1022
1682,19.456835,1,6,10,11,4,-1023
1683,19.468384,2,5,10,18,3,-1020
1684,19.479933,2,6,10,16,1,-1019
1685,19.491585,1,7,10,15,4,-1026
1686,19.503342,2,6,10,17,4,-1019
1687,19.515021,2,5,9,19,6,-1022
1688,19.526704,2,6,9,13,4,-1022
1689,19.538374,2,6,9,14,8,-1022
1690,19.550047,1,6,10,15,6,-1029
1691,19.561703,2,5,9,19,9,-1026
1692,19.57338,2,6,9,19,3,-1023
1693,19.585069,1,6,9,19,8,-1021
1694,19.596624,2,6,9,13,1,-1026
1695,19.608174,2,5,9,15,6,-1022
1696,19.619721,3,6,9,14,6,-1021
1697,19.631336,2,5,9,14,3,-1023
1698,19.642898,1,5,10,16,6,-1019
1699,19.65446,1,5,9,13,6,-1023
1700,19.666024,1,5,10,18,9,-1026
1701,19.677598,1,7,10,18,9,-1018
1702,19.689216,2,6,9,15,10,-1029
1703,19.70087,1,5,10,17,9,-1020
1704,19.712532,2,6,9,16,6,-1022
1705,19.724187,1,6,9,18,6,-1019
1706,19.735829,2,6,9,13,7,-1020
1707,19.747474,1,5,9,17,2,-1026
1708,19.759146,2,5,9,18,12,-1024
1709,19.770808,2,6,9,13,10,-1025
1710,19.782479,2,6,8,17,7,-1024
1711,19.794125,2,6,9,18,6,-1025
1712,19.805683,1,6,9,14,5,-1028
1713,19.817232,2,7,9,16,8,-1022
1714,19.82878,2,5,9,13,8,-1019
1715,19.840359,1,6,10,15,1,-1025
1716,19.851934,1,5,11,16,7,-1025
1717,19.863506,2,4,10,17,6,-1029
1718,19.875059,2,6,9,16,7,-1026
1719,19.88659,1,6,9,11,8,-1021
1720,19.898254,1,7,10,15,5,-1024
1721,19.90993,1,5,10,15,8,-1024
1722,19.92159,2,6,9,15,10,-1023
1723,19.933246,1,5,8,16,4,-1020
1724,19.94489,1,5,10,17,5,-1027
1725,19.956544,2,6,9,18,5,-1026
1726,19.968198,2,5,10,14,9,-1026
1727,19.979841,1,6,9,16,5,-1021
1728,19.991497,1,5,9,15,4,-1020
1729,20.003204,2,6,10,19,7,-1020
1730,20.014769,2,6,9,16,3,-1026
1731,20.026333,1,5,9,18,9,-1021
1732,20.037855,1,6,9,14,7,-1023
1733,20.049406,2,6,9,15,4,-1028
1734,20.060951,2,5,9,12,5,-1029
1735,20.072498,2,5,9,12,0,-1024
1736,20.084043,2,6,10,15,5,-1026
1737,20.095625,2,5,9,14,10,-1023
1738,20.107303,2,6,9,19,6,-1023
1739,20.119033,2,6,10,15,7,-1023
1740,20.130712,1,6,9,14,6,-1026
1741,20.142378,2,6,10,17,4,-1024
1742,20.154039,1,5,10,19,7,-1021
1743,20.16573,2,6,9,16,5,-1025
1744,20.177482,2,5,9,12,2,-1024
1745,20.189158,2,6,10,15,5,-1016
1746,20.200849,2,7,10,12,7,-1023
1747,20.212573,2,5,10,13,5,-1017
1748,20.224133,1,5,9,14,5,-1024
1749,20.235693,1,6,8,13,6,-1020
1750,20.247283,1,6,9,16,6,-1022
1751,20.25882,2,6,9,17,6,-1026
1752,20.270382,2,6,9,16,8,-1026
1753,20.281933,1,6,9,10,10,-1027
1754,20.293479,1,6,9,14,5,-1024
1755,20.305043,2,6,9,15,9,-1021
1756,20.316681,2,6,10,16,3,-1028
1757,20.328333,2,6,9,15,3,-1025
1758,20.340027,2,5,10,17,5,-1022
1759,20.351683,2,6,10,15,6,-1029
1760,20.363337,2,6,10,19,6,-1022
1761,20.375057,2,5,10,14,6,-1023
1762,20.386711,2,6,10,19,2,-1028
1763,20.398401,2,5,9,18,7,-1023
1764,20.410067,1,6,9,15,5,-1026
1765,20.421722,2,6,10,17,5,-1025
1766,20.433279,1,6,10,13,7,-1023
1767,20.44482,2,5,10,15,10,-1023
1768,20.456364,2,6,9,15,5,-1030
1769,20.467908,1,6,10,18,5,-1021
1770,20.479452,2,6,9,17,7,-1026
1771,20.491001,2,6,9,14,5,-1019
1772,20.50258,2,5,9,16,3,-1022
1773,20.514108,2,5,9,16,3,-1024
1774,20.525756,1,6,9,14,6,-1020
1775,20.537429,2,6,10,13,8,-1023
1776,20.549077,2,5,9,16,9,-1025
1777,20.560724,2,6,10,13,6,-1022
1778,20.572379,1,5,10,16,7,-1028
1779,20.584042,1,6,9,17,7,-1028
1780,20.595686,1,6,9,17,8,-1029
1781,20.607331,1,6,9,13,5,-1023
1782,20.61903,2,6,8,16,5,-1024
1783,20.630583,2,6,9,18,6,-1030
1784,20.642105,1,6,9,18,6,-1026
1785,20.65365,1,6,9,17,9,-1026
1786,20.665204,1,6,9,19,2,-1021
1787,20.676758,2,7,9,16,6,-1024
1788,20.688305,2,6,9,11,6,-1028
1789,20.699874,2,6,10,12,8,-1019
1790,20.711423,2,5,9,14,7,-1027
1791,20.723064,2,5,9,13,7,-1023
1792,20.734754,1,6,9,14,6,-1024
1793,20.746469,2,6,8,14,8,-1033
1794,20.758126,1,5,10,14,4,-1020
1795,20.769777,1,5,10,16,6,-1017
1796,20.781439,2,5,9,17,2,-1020
1797,20.79308,1,6,9,17,10,-1019
1798,20.804729,2,6,10,17,8,-1024
1799,20.816395,2,6,9,17,5,-1020
1800,20.827949,1,6,10,17,4,-1027
1801,20.839516,2,6,10,14,3,-1021
1802,20.851079,1,6,10,17,7,-1025
1803,20.862637,2,6,10,14,3,-1017
1804,20.874208,1,6,9,16,7,-1028
1805,20.885759,2,6,9,13,5,-1021
1806,20.8973,2,5,10,13,6,-1023
1807,20.908843,2,6,10,17,8,-1022
1808,20.920404,2,6,9,11,4,-1027
1809,20.932024,2,6,9,16,6,-1027
1810,20.943698,2,6,9,13,10,-1027
1811,20.955354,2,6,9,19,4,-1021
1812,20.967036,1,6,9,13,6,-1023
1813,20.978703,2,6,9,18,4,-1024
1814,20.990388,2,5,9,18,10,-1026
1815,21.00205,1,6,9,16,5,-1024
1816,21.0137,2,6,9,12,8,-1018
1817,21.025339,2,5,9,16,6,-1027
1818,21.03689,2,6,9,19,4,-1027
1819,21.048434,1,6,9,13,4,-1024
1820,21.059987,1,7,9,15,5,-1029
1821,21.071538,1,6,9,19,8,-1014
1822,21.08308,2,6,9,13,9,-1024
1823,21.094638,1,6,9,18,5,-1027
1824,21.106241,2,6,10,16,4,-1027
1825,21.117784,1,5,9,19,7,-1020
1826,21.129335,1,6,9,13,7,-1031
1827,21.140953,1,6,10,16,7,-1019
1828,21.152604,1,5,10,17,7,-1019
1829,21.164252,1,6,9,16,6,-1027
1830,21.175921,2,6,10,16,4,-1028
1831,21.187566,2,5,9,12,5,-1028
1832,21.199221,1,6,9,13,8,-1026
1833,21.21091,1,6,9,16,6,-1030
1834,21.222567,1,6,9,14,7,-1021
1835,21.234267,1,7,10,16,7,-1031
1836,21.245925,1,6,9,13,8,-1018
1837,21.257494,2,6,9,12,5,-1025
1838,21.269047,1,6,11,17,7,-1022
1839,21.280617,1,7,10,15,9,-1026
1840,21.292164,1,6,9,16,4,-1026
1841,21.30376,1,6,9,17,6,-1031
1842,21.3153,1,6,10,17,6,-1031
1843,21.326811,2,6,10,15,8,-1021
1844,21.338394,2,6,10,17,3,-1028
1845,21.350018,2,6,9,12,5,-1025
1846,21.361677,2,6,10,14,5,-1018
1847,21.373323,2,6,9,17,7,-1030
1848,21.384973,2,6,9,12,6,-1025
1849,21.396614,1,6,9,19,6,-1023
1850,21.40826,1,6,10,16,4,-1025
1851,21.419922,2,5,9,14,9,-1025
1852,21.431566,2,5,10,18,6,-1023
1853,21.443216,1,5,11,18,5,-1025
1854,21.454763,1,6,10,17,7,-1018
1855,21.466327,1,6,10,17,8,-1019
1856,21.477877,1,6,9,14,3,-1021
1857,21.489424,2,5,9,11,10,-1018
1858,21.500987,2,4,9,17,5,-1025
1859,21.512526,1,5,8,14,4,-1022
1860,21.524072,2,6,10,17,7,-1027
1861,21.535626,2,7,9,18,9,-1023
1862,21.547201,2,5,10,18,10,-1022
1863,21.558822,2,5,10,12,6,-1025
1864,21.570503,2,6,9,20,6,-1020
1865,21.582181,2,6,10,10,6,-1023
1866,21.59385,2,5,10,15,4,-1018
1867,21.605494,2,5,10,15,3,-1021
1868,21.617174,2,4,10,15,4,-1023
1869,21.628811,1,5,9,17,2,-1028
1870,21.640458,2,6,9,11,6,-1024
1871,21.652128,2,7,9,16,10,-1027
1872,21.663783,1,6,9,15,4,-1027
1873,21.675332,1,5,9,18,9,-1028
1874,21.686887,1,5,9,16,3,-1024
1875,21.698456,1,5,10,14,6,-1026
1876,21.710003,1,5,9,13,8,-1020
1877,21.721572,1,6,9,14,6,-1028
1878,21.733121,1,6,9,12,5,-1028
1879,21.744664,2,6,9,19,0,-1022
1880,21.756224,2,6,9,15,1,-1023
1881,21.767843,2,6,8,15,6,-1029
1882,21.779494,2,6,9,16,10,-1025
1883,21.791174,2,5,9,13,5,-1016
1884,21.802822,1,5,9,13,6,-1016
1885,21.814502,1,6,10,18,6,-1022
1886,21.826194,2,5,10,16,4,-1019
1887,21.837856,1,5,9,14,6,-1020
1888,21.849517,1,5,8,15,6,-1021
1889,21.861198,1,5,8,15,7,-1022
1890,21.872851,2,6,10,13,7,-1020
1891,21.8844,2,5,9,16,5,-1015
1892,21.895942,2,5,9,17,5,-1024
1893,21.907491,2,5,9,15,6,-1024
1894,21.919072,2,6,9,16,7,-1024
1895,21.930628,1,6,8,15,5,-1025
1896,21.942175,2,6,10,13,6,-1026
1897,21.953741,1,5,9,15,4,-1027
1898,21.965319,2,5,9,19,7,-1024
1899,21.976996,2,5,9,18,4,-1022
1900,21.988672,2,6,10,13,5,-1031
1901,22.000324,2,6,9,15,5,-1020
1902,22.011974,1,5,9,14,7,-1023
1903,22.023616,1,5,10,18,7,-1022
1904,22.035284,2,6,9,19,3,-1033
1905,22.04694,2,6,10,15,9,-1025
1906,22.058622,2,6,10,13,8,-1021
1907,22.070308,1,6,9,18,6,-1024
1908,22.081977,1,5,10,14,7,-1015
1909,22.093536,3,5,10,17,8,-1027
1910,22.105076,1,6,9,17,6,-1024
1911,22.116622,2,5,9,14,7,-1024
1912,22.128166,2,6,9,12,5,-1026
1913,22.139709,1,5,9,18,6,-1026
1914,22.151284,2,6,11,18,7,-1021
1915,22.162841,2,5,10,19,5,-1026
1916,22.174412,1,5,10,18,2,-1026
1917,22.186045,2,5,10,12,6,-1017
1918,22.197706,2,6,9,13,7,-1020
1919,22.20935,2,5,9,15,8,-1025
1920,22.22103,2,7,9,16,3,-1028
1921,22.232687,1,6,9,13,7,-1026
1922,22.244334,2,5,9,16,11,-1026
1923,22.255989,2,5,9,18,5,-1026
1924,22.267645,2,6,9,15,6,-1021
1925,22.279282,2,5,9,10,7,-1026
1926,22.290808,2,6,10,16,8,-1020
1927,22.302337,2,6,9,16,9,-1025
1928,22.313871,2,5,9,15,6,-1024
1929,22.325435,2,6,10,19,8,-1021
1930,22.336993,2,6,9,18,8,-1026
1931,22.34854,1,6,10,14,2,-1025
1932,22.360111,2,6,9,15,5,-1026
1933,22.371644,2,6,9,19,9,-1025
1934,22.383198,2,6,9,15,11,-1017
1935,22.394819,2,6,10,16,4,-1027
1936,22.4065,1,6,9,15,5,-1023
1937,22.418181,2,6,10,8,8,-1018
1938,22.429857,2,6,10,13,4,-1029
1939,22.441508,1,6,9,16,6,-1020
1940,22.453169,2,5,9,14,7,-1025
1941,22.464817,2,5,9,14,6,-1023
1942,22.476464,1,6,10,15,10,-1022
1943,22.488126,2,6,10,15,4,-1023
1944,22.499791,2,6,9,14,4,-1022
1945,22.511372,2,6,10,16,8,-1026
1946,22.522964,1,5,10,12,6,-1023
1947,22.534517,2,5,9,19,5,-1025
1948,22.546086,1,5,9,11,8,-1028
1949,22.557623,2,5,10,14,7,-1019
1950,22.569162,1,5,9,15,8,-1027
1951,22.580703,2,5,9,14,5,-1028
1952,22.592288,1,6,10,14,8,-1021
1953,22.603925,2,7,10,15,5,-1025
1954,22.615585,2,6,9,18,8,-1027
1955,22.627274,2,5,10,14,3,-1020
1956,22.638898,2,6,9,16,5,-1024
1957,22.650565,3,6,9,14,4,-1022
1958,22.662236,2,6,10,13,4,-1021
1959,22.673918,1,6,10,14,4,-1028
1960,22.685575,1,6,9,15,2,-1024
1961,22.697234,1,5,9,13,4,-1021
1962,22.708904,2,6,10,16,5,-1026
1963,22.720488,2,6,9,18,6,-1023
1964,22.732041,3,5,10,11,7,-1022
1965,22.743616,1,5,9,13,4,-1023
1966,22.755218,2,6,9,14,5,-1027
1967,22.76678,2,6,10,12,2,-1032
1968,22.778352,2,6,9,18,4,-1017
1969,22.789897,2,5,10,14,1,-1022
1970,22.801446,2,5,9,21,8,-1019
1971,22.81309,1,5,10,21,5,-1022
1972,22.824731,2,6,9,15,9,-1023
1973,22.836406,2,6,9,10,5,-1028
1974,22.848056,1,6,9,17,4,-1033
1975,22.859693,1,6,9,17,6,-1031
1976,22.871339,1,6,10,18,7,-1020
1977,22.883023,2,6,9,16,7,-1020
1978,22.894681,1,5,10,15,7,-1027
1979,22.906373,2,5,10,17,5,-1022
1980,22.918037,2,5,10,16,6,-1017
1981,22.929619,2,6,10,15,6,-1023
1982,22.941167,2,6,9,14,10,-1030
1983,22.952718,2,6,9,18,7,-1024
1984,22.96429,2,6,10,20,8,-1023
1985,22.975859,2,6,10,16,8,-1028
1986,22.987497,2,5,9,10,4,-1017
1987,22.999083,2,6,10,16,9,-1023
1988,23.010661,1,6,9,17,6,-1021
1989,23.022311,1,6,10,16,7,-1021
1990,23.033999,2,6,10,12,4,-1025
1991,23.045651,2,5,9,16,8,-1026
1992,23.057299,2,6,9,12,8,-1017
1993,23.068947,1,5,9,17,11,-1027
1994,23.080599,1,5,10,17,6,-1024
1995,23.092248,2,5,9,19,11,-1018
1996,23.103916,2,6,10,16,5,-1028
1997,23.115579,1,5,9,13,6,-1025
1998,23.127231,2,6,9,16,4,-1027
1999,23.138817,2,5,9,18,6,-1022
