sample,t_s,gyro_x,gyro_y,gyro_z,accel_x,accel_y,accel_z
0,3.1e-05,1,0,1,1031,-1,-1547
1,0.011266,0,0,2,1029,2,-1543
2,0.022464,0,-1,1,1035,0,-1547
3,0.033647,1,1,1,1033,0,-1536
4,0.04483,0,0,1,1030,0,-1541
5,0.056023,-1,1,1,1032,-1,-1540
6,0.067206,-1,-1,1,1034,0,-1546
7,0.078394,0,0,1,1031,0,-1547
8,0.089574,1,0,1,1034,0,-1549
9,0.100755,0,1,1,1034,-1,-1544
10,0.111938,1,2,0,1032,0,-1543
11,0.123128,-1,1,1,1033,-2,-1549
12,0.134282,0,0,0,1032,2,-1546
13,0.145462,0,0,1,1036,-2,-1547
14,0.156644,0,2,1,1034,-5,-1546
15,0.167825,0,1,1,1033,0,-1545
16,0.179014,1,1,1,1031,0,-1549
17,0.190207,0,1,1,1036,-4,-1547
18,0.201388,1,0,1,1029,0,-1548
19,0.212568,1,1,1,1036,0,-1541
20,0.223749,1,1,0,1032,1,-1546
21,0.234941,1,1,0,1033,2,-1544
22,0.246095,1,0,1,1033,0,-1545
23,0.257279,0,1,1,1029,1,-1539
24,0.268461,0,1,2,1037,3,-1543
25,0.279643,0,1,0,1031,-2,-1546
26,0.290833,1,1,1,1033,1,-1550
27,0.302014,0,0,1,1036,2,-1549
28,0.313196,0,2,0,1032,1,-1545
29,0.324375,0,0,1,1034,1,-1543
30,0.335557,1,0,0,1033,-1,-1541
31,0.34674,1,0,1,1034,-1,-1548
32,0.357923,0,0,1,1034,1,-1547
33,0.369105,0,0,0,1029,-1,-1540
34,0.380289,0,0,1,1030,-1,-1544
35,0.391473,1,0,1,1034,2,-1539
36,0.40265,0,0,1,1037,4,-1542
37,0.413831,1,1,1,1032,0,-1540
38,0.425014,0,1,0,1034,1,-1550
39,0.436195,1,0,0,1033,1,-1548
40,0.447376,0,0,0,1036,0,-1543
41,0.458573,0,0,1,1034,-1,-1546
42,0.469753,0,1,1,1031,0,-1542
43,0.480935,1,0,1,1031,0,-1543
44,0.492118,0,-1,1,1033,2,-1549
45,0.5033,0,-1,1,1029,0,-1542
46,0.514465,0,-1,0,1031,-1,-1545
47,0.525647,1,1,0,1032,0,-1543
48,0.536831,1,0,1,1035,-3,-1545
49,0.548023,0,0,0,1032,0,-1542
50,0.559211,0,1,1,1035,1,-1545
51,0.570399,1,1,0,1035,1,-1551
52,0.581593,1,2,2,1031,3,-1541
53,0.592914,0,-1,1,1033,0,-1548
54,0.604201,1,1,1,1032,0,-1542
55,0.615398,1,0,1,1036,-2,-1542
56,0.626591,1,0,2,1032,0,-1542
57,0.637779,1,0,2,1035,1,-1553
58,0.648972,1,-1,1,1037,0,-1545
59,0.66016,0,0,1,1035,2,-1550
60,0.671347,0,-1,1,1033,2,-1547
61,0.68254,0,-1,1,1034,5,-1543
62,0.693728,0,0,1,1032,5,-1542
63,0.704913,0,1,1,1033,0,-1545
64,0.716107,0,1,1,1033,2,-1542
65,0.727296,0,0,1,1035,0,-1549
66,0.738474,0,0,1,1034,2,-1545
67,0.749659,1,1,1,1033,0,-1540
68,0.76085,0,-1,1,1036,5,-1542
69,0.772041,0,0,1,1030,0,-1538
70,0.783227,0,-1,2,1028,5,-1545
71,0.794423,0,-1,1,1030,-2,-1541
72,0.805608,0,-2,1,1032,1,-1541
73,0.816794,0,-1,1,1033,0,-1543
74,0.827984,1,0,1,1036,0,-1538
75,0.839171,0,-1,1,1030,2,-1544
76,0.85036,0,-1,-1,1034,-2,-1548
77,0.861553,0,-1,0,1029,-3,-1546
78,0.872739,0,2,1,1033,2,-1542
79,0.883924,0,1,2,1031,-5,-1544
80,0.895108,1,1,1,1034,-2,-1542
81,0.906281,0,0,1,1032,-3,-1553
82,0.917463,-1,-1,0,1032,0,-1541
83,0.928648,0,-1,0,1033,-4,-1537
84,0.939836,1,0,1,1034,0,-1550
85,0.951023,0,-2,1,1035,-1,-1552
86,0.962214,0,0,0,1037,-1,-1543
87,0.973399,0,0,0,1037,0,-1546
88,0.984585,0,0,0,1031,-1,-1546
89,0.995772,0,0,1,1035,-1,-1544
90,1.006959,0,0,0,1031,0,-1542
91,1.018146,0,1,1,1029,1,-1542
92,1.029334,1,0,1,1031,1,-1542
93,1.040528,1,-1,1,1031,2,-1551
94,1.051713,0,1,1,1037,0,-1544
95,1.062902,0,1,1,1031,1,-1545
96,1.074096,0,0,1,1034,-3,-1544
97,1.085281,0,0,1,1031,2,-1545
98,1.096468,0,-1,1,1030,1,-1550
99,1.107651,0,-1,1,1033,-1,-1546
100,1.118837,-1,-1,2,1029,0,-1542
101,1.130029,-1,0,2,1030,0,-1542
102,1.141214,0,0,1,1033,3,-1541
103,1.152407,0,0,1,1029,0,-1554
104,1.163591,0,0,0,1030,-1,-1542
105,1.174779,0,0,1,1031,0,-1539
106,1.185962,0,0,1,1036,0,-1547
107,1.197145,0,0,1,1033,0,-1542
108,1.208333,0,0,1,1032,0,-1539
109,1.219518,0,-1,1,1032,-3,-1548
110,1.230705,0,0,0,1036,4,-1542
111,1.24189,0,-1,1,1031,3,-1549
112,1.253078,0,0,1,1033,0,-1542
113,1.26426,1,0,0,1031,2,-1544
114,1.275446,0,0,1,1034,0,-1545
115,1.286649,0,0,2,1029,0,-1544
116,1.297839,0,0,2,1033,0,-1548
117,1.309025,0,-1,2,1032,-1,-1546
118,1.32021,0,0,2,1034,1,-1546
119,1.331394,0,0,2,1032,3,-1552
120,1.342586,0,-1,1,1028,-2,-1550
121,1.353768,0,-1,1,1033,-1,-1544
122,1.364957,1,-1,1,1031,2,-1547
123,1.376143,0,-1,1,1032,-1,-1547
124,1.387326,1,-1,2,1032,-1,-1545
125,1.398518,0,-1,1,1031,0,-1553
126,1.409702,0,-1,1,1035,2,-1546
127,1.420887,0,-1,1,1031,0,-1547
128,1.432031,0,-1,1,1032,0,-1539
129,1.443217,0,-1,1,1032,0,-1544
130,1.454407,0,0,1,1036,3,-1546
131,1.46559,0,0,1,1033,0,-1545
132,1.476771,-1,-1,2,1033,2,-1543
133,1.487955,0,0,1,1029,2,-1548
134,1.499137,1,1,2,1033,1,-1545
135,1.510326,0,1,1,1031,-1,-1546
136,1.521511,1,-1,2,1034,3,-1546
137,1.532697,0,0,1,1030,1,-1541
138,1.54388,0,1,2,1031,4,-1542
139,1.555068,1,-1,2,1032,0,-1547
140,1.566253,0,0,1,1031,-1,-1539
141,1.577437,1,0,2,1029,-2,-1545
142,1.588621,0,0,2,1038,1,-1551
143,1.599806,0,1,2,1035,0,-1546
144,1.610992,0,1,2,1035,3,-1540
145,1.622177,0,1,1,1032,-2,-1553
146,1.633363,0,0,1,1030,1,-1544
147,1.644547,0,0,2,1031,-3,-1545
148,1.655729,1,1,1,1035,4,-1547
149,1.666917,0,1,1,1033,-4,-1542
150,1.678096,0,2,1,1031,0,-1548
151,1.689277,0,0,0,1031,-3,-1541
152,1.700458,0,0,1,1033,0,-1543
153,1.71164,0,-1,1,1036,-3,-1541
154,1.72283,0,-1,2,1030,0,-1545
155,1.734011,0,-1,1,1031,0,-1537
156,1.745194,0,-2,2,1034,0,-1546
157,1.756379,0,-2,1,1031,-1,-1543
158,1.767573,1,-1,0,1029,-3,-1539
159,1.778761,0,0,1,1033,0,-1543
160,1.789945,0,0,1,1026,-4,-1543
161,1.801129,0,0,0,1030,0,-1545
162,1.812314,0,0,0,1033,0,-1546
163,1.823497,1,0,0,1031,1,-1551
164,1.834651,0,0,1,1035,0,-1544
165,1.845831,0,0,1,1032,4,-1542
166,1.857014,0,-1,1,1032,-1,-1549
167,1.868201,0,-1,2,1030,4,-1540
168,1.87941,0,-1,2,1031,-1,-1544
169,1.8906,-1,0,0,1031,0,-1545
170,1.901781,0,0,2,1031,2,-1544
171,1.912992,0,0,1,1033,0,-1544
172,1.92424,0,1,2,1029,0,-1546
173,1.93543,0,0,1,1029,3,-1544
174,1.946621,0,0,2,1037,-1,-1540
175,1.957809,0,1,0,1031,1,-1547
176,1.968991,1,1,0,1029,-3,-1542
177,1.980201,1,-1,1,1031,1,-1540
178,1.991383,1,-1,2,1031,1,-1542
179,2.002576,0,-1,2,1033,1,-1547
180,2.013759,-1,-1,1,1035,0,-1545
181,2.024939,0,-2,1,1033,-1,-1548
182,2.036102,-1,0,2,1033,-2,-1545
183,2.047305,0,1,2,1031,-2,-1544
184,2.058468,0,0,1,1034,-2,-1544
185,2.069655,0,-1,1,1031,-1,-1543
186,2.08084,0,-1,0,1032,0,-1549
187,2.092025,1,-1,1,1034,-1,-1543
188,2.103208,0,0,1,1031,1,-1542
189,2.114394,0,0,1,1032,-1,-1542
190,2.125576,1,-2,1,1030,-5,-1539
191,2.136758,0,-1,1,1032,-1,-1549
192,2.147939,1,-1,2,1034,0,-1542
193,2.159133,1,-1,1,1034,1,-1543
194,2.170283,0,0,1,1031,-1,-1547
195,2.181469,0,0,0,1028,0,-1540
196,2.192651,1,0,1,1029,1,-1543
197,2.203837,0,-1,2,1033,0,-1549
198,2.215023,0,1,1,1034,0,-1544
199,2.226229,0,0,1,1031,1,-1549
200,2.237416,1,1,1,1031,0,-1550
201,2.248605,1,0,1,1032,1,-1546
202,2.259794,0,0,1,1031,0,-1543
203,2.270982,0,0,0,1038,5,-1539
204,2.282175,0,-1,2,1033,-1,-1542
205,2.293362,0,-1,1,1032,-3,-1541
206,2.304544,0,-2,1,1033,1,-1542
207,2.31573,0,-1,0,1030,-2,-1543
208,2.326926,1,-1,1,1032,2,-1542
209,2.338097,0,0,1,1034,1,-1543
210,2.349283,0,0,1,1033,-1,-1547
211,2.360473,0,-1,2,1033,0,-1549
212,2.371657,0,0,1,1034,-1,-1542
213,2.382836,0,0,2,1028,1,-1544
214,2.394019,1,0,1,1032,2,-1546
215,2.405202,0,0,1,1032,-1,-1546
216,2.416389,0,1,1,1034,0,-1543
217,2.427572,0,0,2,1035,3,-1549
218,2.438763,0,0,2,1031,0,-1544
219,2.449962,0,-1,2,1029,0,-1538
220,2.461147,0,0,1,1033,2,-1541
221,2.472329,0,-1,1,1033,2,-1537
222,2.483512,0,0,1,1033,-1,-1549
223,2.494698,0,-1,1,1033,-1,-1549
224,2.505878,1,0,2,1035,-2,-1547
225,2.517061,1,-1,1,1035,0,-1542
226,2.528243,0,0,1,1034,0,-1544
227,2.539423,0,0,2,1032,-13,-1544
228,2.550609,1,0,1,1032,1,-1540
229,2.561797,0,1,1,1033,0,-1549
230,2.57299,1,0,1,1030,-2,-1538
231,2.584211,1,0,1,1030,1,-1539
232,2.595416,0,0,1,1032,0,-1550
233,2.606612,1,0,1,1034,0,-1550
234,2.6178,0,1,1,1033,0,-1546
235,2.628985,1,0,1,1035,-4,-1549
236,2.640173,1,0,1,1031,-1,-1541
237,2.651356,0,0,1,1035,-2,-1540
238,2.662546,1,0,1,1030,2,-1545
239,2.673728,1,0,1,1034,-2,-1544
240,2.684914,1,1,2,1032,2,-1549
241,2.6961,1,1,1,1033,-4,-1544
242,2.707288,1,1,0,1032,0,-1541
243,2.718467,1,1,2,1028,0,-1541
244,2.729653,1,1,1,1034,-2,-1542
245,2.740837,1,1,1,1030,0,-1544
246,2.752023,1,0,1,1031,1,-1545
247,2.763209,0,2,1,1036,2,-1542
248,2.774398,0,2,0,1033,1,-1547
249,2.78559,0,1,2,1034,-2,-1541
250,2.796783,0,0,2,1034,1,-1544
251,2.807964,0,0,1,1035,0,-1544
252,2.819152,0,-2,2,1033,5,-1552
253,2.83035,1,-1,1,1036,1,-1544
254,2.841534,1,0,0,1030,0,-1539
255,2.852725,0,-1,1,1031,0,-1545
256,2.863917,0,1,1,1031,-1,-1544
257,2.875104,1,1,1,1034,0,-1543
258,2.886282,0,1,1,1030,0,-1545
259,2.897467,0,0,1,1029,2,-1542
260,2.908668,0,0,1,1037,0,-1542
261,2.919857,0,0,2,1030,-1,-1544
262,2.931022,1,0,1,1032,2,-1537
263,2.942231,0,1,1,1034,1,-1544
264,2.953414,1,0,1,1034,0,-1541
265,2.964597,0,-1,1,1032,0,-1540
266,2.975784,1,0,1,1035,-1,-1548
267,2.986969,0,0,1,1033,2,-1550
268,2.998154,0,1,1,1030,0,-1543
269,3.00934,0,0,1,1037,0,-1549
270,3.020522,1,0,1,1032,0,-1544
271,3.031707,0,0,2,1037,3,-1538
272,3.042894,0,0,1,1030,-3,-1546
273,3.054098,1,0,2,1032,2,-1547
274,3.065282,0,0,1,1036,-2,-1553
275,3.076467,0,-1,1,1033,-1,-1549
276,3.087652,1,-1,1,1030,-1,-1545
277,3.09884,0,-1,1,1033,2,-1545
278,3.110022,0,-1,1,1032,-3,-1548
279,3.12121,0,-1,0,1035,-5,-1545
280,3.132399,0,-1,1,1035,-1,-1542
281,3.143582,1,1,1,1032,2,-1543
282,3.154774,1,0,1,1032,1,-1541
283,3.165966,0,1,0,1028,0,-1542
284,3.17715,1,1,1,1032,-4,-1541
285,3.188339,1,2,1,1035,-4,-1547
286,3.199524,1,1,1,1036,0,-1545
287,3.210714,0,1,2,1029,0,-1541
288,3.2219,0,0,1,1032,0,-1542
289,3.233082,1,1,1,1037,0,-1550
290,3.24427,1,1,1,1028,-2,-1543
291,3.255453,1,1,1,1030,-1,-1546
292,3.266661,1,0,1,1034,-1,-1552
293,3.277845,1,-1,1,1033,0,-1539
294,3.289028,-1,0,1,1032,1,-1539
295,3.30022,1,0,1,1031,0,-1541
296,3.311402,0,0,1,1035,0,-1539
297,3.32259,0,0,1,1030,-1,-1545
298,3.333779,0,0,1,1035,-2,-1544
299,3.344964,0,1,2,1036,-1,-1542
300,3.35615,1,1,2,1034,0,-1549
301,3.367335,0,1,1,1030,0,-1546
302,3.37852,1,0,0,1032,0,-1545
303,3.389705,1,0,1,1033,-2,-1543
304,3.400893,0,-1,0,1032,-1,-1544
305,3.412081,0,1,1,1036,-4,-1549
306,3.423266,0,1,1,1031,0,-1547
307,3.434466,1,0,1,1031,0,-1546
308,3.445651,0,0,1,1034,-1,-1541
309,3.456838,0,-1,1,1031,0,-1544
310,3.468026,1,-1,1,1033,-4,-1546
311,3.479208,1,-1,2,1032,-3,-1550
312,3.490401,0,-1,0,1035,-2,-1544
313,3.501583,-1,-1,1,1029,3,-1541
314,3.512766,0,-1,1,1031,3,-1543
315,3.523952,0,0,2,1034,0,-1546
316,3.535142,0,0,1,1035,1,-1549
317,3.546327,0,0,0,1031,0,-1543
318,3.55751,0,-2,1,1034,4,-1536
319,3.568697,0,-1,1,1033,1,-1541
320,3.579882,0,-1,1,1032,-1,-1545
321,3.59107,0,-1,1,1034,0,-1545
322,3.602271,0,-1,1,1029,-2,-1546
323,3.613453,0,1,1,1032,2,-1547
324,3.624648,0,0,1,1035,1,-1547
325,3.63583,1,1,0,1032,0,-1540
326,3.647019,0,0,1,1033,3,-1538
327,3.658216,-1,1,0,1035,-1,-1542
328,3.669398,1,-1,2,1036,0,-1546
329,3.680581,0,0,2,1032,2,-1547
330,3.691763,0,0,0,1033,0,-1536
331,3.702949,0,0,1,1031,1,-1543
332,3.714097,1,1,1,1031,0,-1545
333,3.725281,1,1,1,1034,0,-1542
334,3.736463,1,1,0,1034,0,-1547
335,3.747642,0,1,1,1032,2,-1545
336,3.758833,1,1,1,1034,0,-1545
337,3.770014,1,0,1,1035,-1,-1549
338,3.781195,1,0,1,1030,1,-1548
339,3.792377,0,-2,1,1035,1,-1542
340,3.803563,1,-1,1,1035,2,-1549
341,3.814764,0,-1,1,1032,0,-1543
342,3.825947,1,0,1,1034,-1,-1540
343,3.837128,0,1,1,1034,0,-1549
344,3.848311,1,0,1,1032,0,-1540
345,3.859496,0,0,0,1035,1,-1547
346,3.87065,0,0,1,1031,-2,-1542
347,3.881831,1,0,0,1029,0,-1546
348,3.893013,0,0,0,1035,3,-1544
349,3.904195,0,-1,1,1032,1,-1543
350,3.915377,0,-2,1,1030,0,-1552
351,3.926573,0,-1,1,1031,5,-1542
352,3.937754,0,0,0,1034,3,-1544
353,3.948938,0,-1,1,1033,0,-1549
354,3.960138,1,0,1,1029,2,-1550
355,3.971659,0,0,1,1034,-4,-1548
356,3.983372,0,0,1,1031,0,-1543
357,3.995056,0,0,1,1032,0,-1543
358,4.006717,1,1,1,1031,-2,-1548
359,4.018422,1,1,1,1033,0,-1538
360,4.030134,0,1,1,1035,1,-1543
361,4.041791,1,0,1,1030,4,-1540
362,4.053458,0,0,2,1030,-2,-1547
363,4.065127,0,0,1,1031,-1,-1545
364,4.07672,0,0,1,1030,1,-1548
365,4.088277,0,0,1,1031,0,-1544
366,4.09984,0,0,1,1035,0,-1540
367,4.111424,0,0,1,1029,-5,-1547
368,4.122988,0,0,0,1034,-2,-1549
369,4.134596,1,0,1,1035,-1,-1540
370,4.146134,1,0,0,1031,2,-1549
371,4.157687,0,0,1,1033,1,-1546
372,4.169249,0,1,1,1033,0,-1545
373,4.180893,1,1,1,1033,4,-1539
374,4.192547,1,1,2,1033,0,-1547
375,4.204237,1,0,2,1032,0,-1540
376,4.215893,0,0,1,1032,0,-1544
377,4.227557,-1,0,1,1030,0,-1547
378,4.239245,-1,0,1,1030,-1,-1539
379,4.250909,0,-1,1,1033,2,-1547
380,4.262569,0,0,1,1027,-3,-1548
381,4.274284,0,0,1,1035,-2,-1542
382,4.285932,1,0,0,1034,1,-1543
383,4.297487,0,1,1,1030,-1,-1544
384,4.309077,0,0,1,1033,-1,-1542
385,4.320622,0,0,1,1033,-2,-1544
386,4.332171,0,1,1,1031,-2,-1540
387,4.343722,0,0,0,1034,2,-1542
388,4.35534,0,0,2,1031,-1,-1546
389,4.366855,1,0,1,1031,-3,-1544
390,4.378385,1,0,1,1034,0,-1546
391,4.390082,1,0,0,1032,0,-1545
392,4.401756,1,0,1,1036,-3,-1542
393,4.413414,1,0,1,1034,0,-1545
394,4.425081,1,0,1,1030,0,-1540
395,4.436744,0,-1,1,1034,1,-1539
396,4.448397,0,0,2,1031,0,-1545
397,4.460061,0,1,1,1029,2,-1544
398,4.471708,0,0,1,1035,0,-1541
399,4.483435,1,0,1,1032,1,-1541
400,4.495111,0,0,2,1035,0,-1538
401,4.506706,0,1,0,1036,-2,-1545
402,4.518267,0,1,1,1032,0,-1544
403,4.529822,1,0,1,1032,-1,-1549
404,4.541367,0,0,1,1034,0,-1544
405,4.552915,0,0,0,1034,0,-1543
406,4.564459,0,-1,0,1036,2,-1548
407,4.576031,0,0,1,1038,0,-1539
408,4.587593,0,-1,0,1031,1,-1536
409,4.599284,0,0,1,1031,0,-1543
410,4.610918,0,0,1,1031,0,-1549
411,4.622596,-1,0,1,1033,0,-1545
412,4.63427,0,0,1,1031,0,-1548
413,4.645919,0,0,1,1029,-3,-1546
414,4.657586,0,0,1,1030,-1,-1540
415,4.669242,0,0,2,1033,1,-1553
416,4.680894,0,0,1,1030,3,-1548
417,4.692556,0,0,2,1035,0,-1547
418,4.704225,1,0,2,1027,1,-1545
419,4.715877,0,0,1,1031,-5,-1550
420,4.727606,1,0,1,1033,3,-1534
421,4.739282,0,0,1,1030,1,-1548
422,4.750914,0,0,1,1033,1,-1546
423,4.762611,0,0,2,1030,2,-1546
424,4.774283,1,0,1,1038,-1,-1537
425,4.785929,0,0,1,1036,0,-1536
426,4.79763,0,0,1,1032,2,-1545
427,4.809276,1,0,1,1033,0,-1550
428,4.820927,1,1,1,1031,2,-1549
429,4.832659,0,0,1,1029,-1,-1545
430,4.844341,0,0,1,1031,-3,-1545
431,4.855996,0,-1,1,1032,5,-1545
432,4.867698,0,-1,1,1029,0,-1545
433,4.879373,1,0,1,1032,2,-1542
434,4.89105,0,0,0,1034,-2,-1547
435,4.902786,0,0,1,1035,0,-1543
436,4.91451,0,0,1,1031,0,-1543
437,4.92608,0,1,1,1034,1,-1552
438,4.937632,1,1,1,1033,0,-1543
439,4.94918,1,0,0,1032,-3,-1544
440,4.960732,0,0,1,1032,2,-1546
441,4.972306,1,0,0,1032,0,-1546
442,4.983862,0,0,1,1032,0,-1544
443,4.995433,0,0,1,1035,0,-1545
444,5.007,0,0,1,1035,-3,-1544
445,5.018666,1,0,1,1029,0,-1542
446,5.030336,0,-1,1,1036,0,-1543
447,5.041988,0,-1,1,1032,-1,-1540
448,5.053641,1,0,1,1029,-2,-1536
449,5.065281,0,0,1,1032,1,-1543
450,5.076928,1,0,1,1029,0,-1541
451,5.088601,0,1,1,1030,0,-1549
452,5.100276,1,-1,1,1032,3,-1548
453,5.111919,0,0,0,1033,1,-1546
454,5.123496,0,0,1,1034,-2,-1543
455,5.13508,0,0,1,1029,-2,-1547
456,5.146669,0,0,1,1035,0,-1545
457,5.158226,0,0,2,1031,2,-1544
458,5.169772,0,0,2,1032,-2,-1554
459,5.181322,0,0,1,1031,0,-1539
460,5.192871,1,0,1,1028,0,-1548
461,5.204429,0,0,1,1035,2,-1542
462,5.215995,1,0,1,1034,4,-1540
463,5.227644,0,0,0,1032,-1,-1547
464,5.239319,1,0,0,1031,-2,-1546
465,5.250984,1,0,1,1034,0,-1543
466,5.262658,0,0,0,1036,2,-1546
467,5.27433,0,0,1,1036,-2,-1543
468,5.285982,0,0,1,1032,-1,-1545
469,5.297635,0,0,1,1035,1,-1550
470,5.309298,0,0,1,1032,0,-1540
471,5.320976,0,0,0,1033,0,-1542
472,5.332647,0,0,2,1032,0,-1545
473,5.344222,0,0,1,1033,-3,-1548
474,5.355793,0,0,1,1031,0,-1539
475,5.367333,1,-1,2,1032,-2,-1544
476,5.378863,0,-1,1,1033,-3,-1549
477,5.390439,1,0,1,1038,2,-1546
478,5.402008,0,0,1,1032,3,-1539
479,5.413551,0,0,2,1035,1,-1549
480,5.425112,1,0,2,1027,1,-1544
481,5.436735,1,1,1,1037,2,-1539
482,5.44838,1,0,2,1033,0,-1548
483,5.460093,0,0,2,1033,0,-1545
484,5.471742,0,0,1,1034,-2,-1552
485,5.48342,0,0,1,1032,-2,-1533
486,5.495116,0,-1,1,1033,-1,-1547
487,5.506788,0,-1,0,1032,0,-1547
488,5.518453,0,0,1,1031,-2,-1543
489,5.530141,0,0,1,1030,-2,-1548
490,5.541796,0,0,1,1034,0,-1546
491,5.553359,0,0,2,1032,3,-1550
492,5.564916,0,1,1,1034,-2,-1546
493,5.576464,0,0,1,1031,0,-1534
494,5.588038,0,0,1,1034,0,-1549
495,5.599591,1,0,1,1028,3,-1546
496,5.611169,0,0,1,1036,0,-1541
497,5.622739,0,0,1,1031,-1,-1541
498,5.634315,0,0,1,1030,1,-1544
499,5.645961,0,0,1,1035,2,-1537
500,5.65761,0,0,1,1032,-1,-1546
501,5.669264,0,-1,1,1034,4,-1543
502,5.680908,1,0,1,1029,2,-1541
503,5.692584,0,0,0,1029,1,-1551
504,5.704246,0,0,2,1030,0,-1545
505,5.71589,0,0,1,1031,1,-1544
506,5.727558,0,1,1,1033,-1,-1545
507,5.739258,0,0,2,1033,0,-1543
508,5.75091,0,0,1,1032,5,-1548
509,5.762507,0,1,1,1034,0,-1547
510,5.774061,1,0,1,1032,-1,-1544
511,5.785643,1,0,1,1031,-2,-1548
512,5.797185,0,-1,1,1037,1,-1548
513,5.808725,0,0,2,1029,0,-1546
514,5.820287,0,-1,1,1032,-3,-1543
515,5.83185,0,0,1,1030,-1,-1547
516,5.843415,1,0,1,1035,0,-1538
517,5.855183,0,0,2,1034,3,-1543
518,5.866908,0,0,1,1031,0,-1545
519,5.878588,-1,0,1,1030,0,-1548
520,5.890273,0,0,1,1030,0,-1537
521,5.901954,0,0,1,1031,0,-1546
522,5.913607,0,0,2,1034,3,-1541
523,5.925265,1,0,1,1034,1,-1538
524,5.936914,1,0,1,1033,-2,-1545
525,5.948607,0,0,1,1035,0,-1538
526,5.960272,0,0,1,1031,-2,-1543
527,5.971824,0,0,1,1034,0,-1548
528,5.98334,1,1,1,1034,-2,-1546
529,5.994855,0,0,1,1034,-2,-1544
530,6.006373,0,0,1,1033,0,-1548
531,6.01792,0,0,1,1032,-2,-1545
532,6.0295,1,0,1,1033,4,-1547
533,6.041047,0,0,1,1032,0,-1545
534,6.052633,1,0,1,1036,0,-1541
535,6.064251,1,1,2,1036,-1,-1541
536,6.075927,0,0,1,1031,-2,-1545
537,6.087592,0,0,1,1031,-3,-1545
538,6.099245,0,0,0,1035,2,-1540
539,6.110927,0,1,1,1032,-4,-1539
540,6.122583,0,0,1,1029,2,-1545
541,6.134268,0,1,1,1030,0,-1546
542,6.145936,1,1,1,1037,0,-1544
543,6.157601,1,0,2,1031,3,-1544
544,6.169255,0,0,1,1035,0,-1544
545,6.180905,0,0,1,1033,2,-1548
546,6.192574,0,0,1,1027,2,-1549
547,6.204244,-1,0,2,1028,-2,-1540
548,6.215892,0,0,1,1032,1,-1544
549,6.227572,0,0,2,1031,0,-1547
550,6.239243,1,0,2,1030,0,-1544
551,6.250913,0,0,1,1035,2,-1548
552,6.26258,0,0,1,1031,0,-1539
553,6.274125,0,0,1,1034,0,-1548
554,6.285678,1,0,2,1034,1,-1543
555,6.297257,1,0,1,1032,-2,-1542
556,6.308807,0,0,2,1032,0,-1545
557,6.32039,1,1,2,1030,1,-1546
558,6.331931,0,0,2,1033,0,-1547
559,6.343482,0,0,1,1029,0,-1547
560,6.355041,0,0,1,1032,0,-1547
561,6.36662,1,1,1,1032,-1,-1534
562,6.378304,1,0,0,1033,0,-1544
563,6.389953,1,0,1,1030,0,-1547
564,6.401609,0,0,1,1035,1,-1534
565,6.413268,1,-1,1,1035,1,-1545
566,6.424932,0,1,1,1027,0,-1543
567,6.436583,0,1,2,1034,-1,-1544
568,6.448233,0,0,1,1030,-3,-1542
569,6.4599,0,0,1,1033,-1,-1547
570,6.471588,0,0,1,1035,-2,-1545
571,6.483242,0,0,1,1032,2,-1544
572,6.494917,0,0,1,1034,-2,-1545
573,6.506577,1,-1,1,1032,-1,-1545
574,6.518258,1,0,1,1031,1,-1541
575,6.52993,0,0,1,1031,1,-1544
576,6.541581,0,0,1,1033,-3,-1539
577,6.553232,0,0,1,1034,-5,-1545
578,6.564927,0,0,1,1030,0,-1540
579,6.576624,0,0,0,1033,1,-1539
580,6.588339,0,0,1,1032,-2,-1544
581,6.600102,0,0,1,1034,0,-1544
582,6.611831,0,1,2,1032,0,-1540
583,6.623563,0,0,2,1035,2,-1547
584,6.63523,0,0,1,1035,0,-1548
585,6.646919,1,0,1,1033,-4,-1548
586,6.65859,0,-1,1,1029,0,-1545
587,6.670295,1,0,1,1037,-1,-1549
588,6.681951,0,-1,1,1029,3,-1538
589,6.693604,0,0,1,1031,0,-1543
590,6.705271,0,0,1,1031,-3,-1546
591,6.716935,0,0,1,1032,1,-1541
592,6.728587,0,0,0,1030,2,-1538
593,6.740248,0,0,1,1033,3,-1539
594,6.751918,0,0,1,1034,0,-1545
595,6.763583,1,1,1,1034,-1,-1543
596,6.775275,1,0,1,1033,-1,-1539
597,6.786918,0,0,0,1035,3,-1543
598,6.798585,0,0,1,1033,0,-1547
599,6.810278,0,0,0,1032,0,-1548
600,6.821938,1,0,0,1035,0,-1546
601,6.83359,0,0,1,1032,-2,-1543
602,6.845254,0,0,1,1030,-1,-1547
603,6.856921,1,-1,1,1030,0,-1541
604,6.868595,0,0,1,1030,1,-1550
605,6.880453,-1,0,1,1027,0,-1544
606,6.892124,0,0,1,1032,-1,-1543
607,6.903727,1,0,1,1031,-1,-1547
608,6.915281,0,0,0,1032,0,-1546
609,6.926847,0,0,0,1037,0,-1539
610,6.938378,1,0,1,1032,0,-1551
611,6.949991,0,0,1,1030,0,-1544
612,6.961542,0,2,0,1032,0,-1541
613,6.973115,0,0,0,1032,0,-1545
614,6.984685,0,0,1,1030,0,-1545
615,6.996305,1,1,0,1031,-1,-1545
616,7.007954,1,1,1,1031,-2,-1540
617,7.019612,1,0,1,1036,-2,-1546
618,7.0313,0,0,1,1035,-2,-1539
619,7.042956,0,0,1,1033,0,-1538
620,7.054641,0,0,0,1031,-2,-1545
621,7.066311,0,1,1,1034,3,-1541
622,7.077955,0,0,1,1035,0,-1540
623,7.089614,0,0,1,1032,-2,-1544
624,7.101283,0,1,0,1034,1,-1542
625,7.112878,0,0,1,1032,0,-1541
626,7.124435,1,0,1,1032,5,-1542
627,7.136004,0,0,1,1034,1,-1547
628,7.147575,0,1,1,1028,1,-1546
629,7.159099,0,0,1,1036,0,-1539
630,7.17067,0,0,0,1034,1,-1543
631,7.182262,1,0,1,1031,2,-1548
632,7.193818,0,0,1,1033,-1,-1544
633,7.20544,0,0,2,1032,-3,-1541
634,7.217091,0,0,1,1032,-4,-1547
635,7.228746,0,0,1,1032,-3,-1541
636,7.240421,0,0,1,1030,-2,-1544
637,7.252067,0,-1,1,1032,3,-1540
638,7.263718,1,0,0,1032,-1,-1549
639,7.275408,1,0,1,1031,-1,-1545
640,7.287062,0,0,1,1034,1,-1543
641,7.298738,0,0,1,1036,5,-1551
642,7.310395,0,0,1,1034,-1,-1543
643,7.32199,-1,1,1,1030,-1,-1545
644,7.333535,0,0,1,1028,-2,-1543
645,7.345088,0,0,1,1033,2,-1547
646,7.356655,0,0,1,1035,0,-1542
647,7.368229,0,0,1,1034,-2,-1549
648,7.379782,1,0,2,1032,0,-1542
649,7.391358,0,-1,1,1031,-1,-1541
650,7.402916,0,0,1,1030,-1,-1546
651,7.414557,0,0,1,1035,3,-1546
652,7.426209,1,0,1,1033,0,-1542
653,7.437887,0,0,1,1032,0,-1547
654,7.449542,0,-1,1,1033,0,-1547
655,7.461194,0,0,1,1034,-1,-1549
656,7.472891,0,-1,0,1035,3,-1547
657,7.484602,1,0,1,1033,0,-1537
658,7.496292,0,0,1,1027,0,-1542
659,7.507967,0,0,0,1034,-1,-1543
660,7.519638,0,0,2,1035,3,-1544
661,7.531222,0,0,1,1031,-2,-1545
662,7.542775,0,-1,0,1034,-1,-1545
663,7.554327,1,1,1,1035,0,-1541
664,7.565879,0,0,1,1031,1,-1546
665,7.577466,0,0,1,1031,-1,-1540
666,7.589016,0,0,1,1034,-4,-1545
667,7.600601,0,0,1,1033,1,-1545
668,7.612163,0,0,1,1035,0,-1553
669,7.623788,0,0,1,1034,0,-1543
670,7.635427,0,0,1,1034,0,-1544
671,7.647093,0,0,0,1032,-3,-1547
672,7.658789,0,0,1,1031,3,-1545
673,7.670445,0,0,2,1034,1,-1539
674,7.682093,0,-1,2,1036,1,-1550
675,7.693792,0,0,0,1031,-3,-1550
676,7.705448,1,1,1,1033,-1,-1548
677,7.717128,0,-1,1,1035,-1,-1550
678,7.728802,0,-1,1,1029,0,-1542
679,7.740374,0,0,1,1034,1,-1542
680,7.751955,0,0,1,1033,1,-1545
681,7.763506,0,0,1,1032,-3,-1544
682,7.77508,0,0,1,1035,-1,-1538
683,7.786624,0,0,1,1030,-1,-1543
684,7.798179,0,0,1,1035,0,-1542
685,7.809745,0,0,1,1032,-2,-1550
686,7.821349,1,0,1,1032,-3,-1542
687,7.832987,0,0,1,1029,-2,-1542
688,7.84466,0,0,2,1034,0,-1543
689,7.856304,0,0,0,1030,-1,-1540
690,7.867955,1,0,1,1031,-1,-1551
691,7.87963,0,0,1,1030,2,-1539
692,7.891313,0,0,1,1035,0,-1542
693,7.903086,0,0,1,1030,1,-1545
694,7.914788,0,0,1,1035,0,-1547
695,7.92649,0,0,1,1030,-2,-1542
696,7.938151,0,0,2,1032,1,-1547
697,7.949805,0,0,1,1033,-2,-1542
698,7.961457,1,0,1,1032,-1,-1549
699,7.973133,1,0,1,1031,-2,-1542
700,7.984775,1,0,1,1034,-2,-1541
701,7.996423,0,0,1,1027,2,-1542
702,8.008077,0,0,1,1032,0,-1542
703,8.019738,1,0,0,1031,-3,-1545
704,8.031438,0,0,2,1033,-1,-1550
705,8.043113,0,0,1,1031,0,-1543
706,8.05467,0,0,1,1029,2,-1549
707,8.066256,0,0,1,1030,3,-1543
708,8.077798,0,0,1,1029,-4,-1544
709,8.089479,1,1,1,1035,1,-1538
710,8.101059,1,0,1,1034,-1,-1546
711,8.11261,0,0,1,1029,0,-1548
712,8.124168,0,-1,1,1032,0,-1543
713,8.135748,-1,0,2,1032,3,-1544
714,8.147428,0,0,1,1027,4,-1541
715,8.159117,0,0,1,1032,0,-1547
716,8.170793,0,0,1,1033,0,-1548
717,8.182458,0,0,1,1034,0,-1548
718,8.194146,0,0,1,1033,2,-1541
719,8.205804,0,-1,2,1030,0,-1542
720,8.21745,0,0,1,1034,0,-1543
721,8.229102,0,1,1,1031,-1,-1550
722,8.240786,1,0,1,1031,-1,-1551
723,8.252443,0,0,1,1031,0,-1543
724,8.264001,0,0,1,1038,0,-1541
725,8.275584,0,0,1,1032,0,-1553
726,8.287099,0,0,1,1031,-3,-1539
727,8.298693,0,0,1,1034,0,-1547
728,8.310258,0,-1,0,1031,0,-1540
729,8.321835,0,-1,1,1033,0,-1545
730,8.333377,1,0,1,1036,-2,-1545
731,8.344946,1,0,1,1035,-3,-1545
732,8.356565,1,0,1,1032,1,-1540
733,8.368237,0,1,1,1033,1,-1545
734,8.379889,0,0,1,1033,4,-1545
735,8.391562,1,0,1,1035,0,-1542
736,8.403214,0,0,2,1033,2,-1545
737,8.414907,0,0,1,1033,-2,-1542
738,8.426599,0,0,1,1035,0,-1542
739,8.438274,0,0,0,1030,-1,-1541
740,8.449941,0,1,0,1030,0,-1540
741,8.461625,0,0,1,1031,0,-1538
742,8.47321,1,0,1,1031,-3,-1542
743,8.484763,0,0,1,1033,0,-1543
744,8.496336,0,0,1,1035,-3,-1538
745,8.507884,0,0,1,1031,1,-1539
746,8.519471,0,0,0,1036,-2,-1546
747,8.531023,0,1,1,1031,-1,-1544
748,8.542597,0,0,1,1030,-2,-1544
749,8.554202,0,0,0,1034,1,-1541
750,8.56585,0,0,1,1032,-1,-1545
751,8.577515,0,0,1,1035,2,-1546
752,8.589162,0,0,1,1036,1,-1539
753,8.600812,0,-1,1,1032,0,-1540
754,8.612479,0,1,1,1028,3,-1539
755,8.624135,1,1,0,1035,0,-1546
756,8.635786,0,0,1,1033,3,-1545
757,8.647448,0,0,0,1036,0,-1548
758,8.659153,0,0,2,1033,1,-1546
759,8.670811,0,0,1,1029,0,-1543
760,8.68238,0,-1,1,1035,-3,-1544
761,8.693953,0,0,1,1031,1,-1547
762,8.705508,1,0,1,1034,0,-1545
763,8.717069,0,1,1,1033,-1,-1548
764,8.728621,0,-1,0,1032,-1,-1541
765,8.74019,1,0,1,1035,-1,-1539
766,8.751744,1,-1,1,1036,0,-1541
767,8.76334,1,0,1,1030,0,-1546
768,8.775029,0,0,2,1031,0,-1547
769,8.786659,0,0,1,1029,0,-1539
770,8.798341,1,0,1,1032,2,-1538
771,8.810005,0,1,1,1030,0,-1542
772,8.821646,0,0,1,1036,-1,-1543
773,8.833311,0,0,1,1031,0,-1539
774,8.844981,0,0,1,1035,0,-1550
775,8.856632,0,1,1,1034,2,-1537
776,8.868295,0,0,1,1033,-3,-1545
777,8.879965,1,0,2,1031,2,-1549
778,8.891545,0,0,1,1036,-1,-1542
779,8.903097,0,0,1,1035,0,-1546
780,8.914651,0,0,1,1032,-1,-1551
781,8.926244,0,0,1,1031,-3,-1550
782,8.937811,0,0,1,1031,0,-1544
783,8.949358,0,0,1,1037,4,-1537
784,8.960925,0,0,1,1033,1,-1548
785,8.972494,0,0,1,1032,1,-1548
786,8.984127,1,0,1,1032,0,-1544
787,8.995776,1,0,1,1031,-2,-1547
788,9.007432,0,0,1,1032,-2,-1548
789,9.019113,0,0,0,1034,-1,-1546
790,9.030783,0,0,1,1030,4,-1535
791,9.042445,0,0,1,1032,0,-1540
792,9.054135,0,0,1,1032,3,-1538
793,9.065783,0,1,1,1036,-1,-1550
794,9.077442,0,-1,1,1032,0,-1551
795,9.089104,1,0,0,1030,-1,-1543
796,9.100672,0,0,1,1033,0,-1547
797,9.112222,1,0,1,1030,-2,-1547
798,9.123767,1,0,1,1036,0,-1543
799,9.135328,0,0,1,1034,0,-1543
800,9.146911,1,0,1,1035,3,-1544
801,9.158487,1,0,1,1032,1,-1544
802,9.170081,1,0,1,1034,-1,-1549
803,9.181638,0,0,0,1031,0,-1549
804,9.193265,0,0,1,1037,-3,-1546
805,9.204936,0,0,2,1032,0,-1547
806,9.216604,0,1,1,1030,-1,-1538
807,9.228259,0,0,1,1031,-2,-1542
808,9.239907,0,1,2,1033,0,-1546
809,9.251576,1,0,1,1034,-3,-1544
810,9.263243,1,-1,0,1033,-2,-1540
811,9.274912,0,-1,1,1028,-2,-1541
812,9.286603,0,-1,1,1031,-1,-1545
813,9.298261,0,0,1,1032,0,-1542
814,9.309823,0,0,1,1032,0,-1542
815,9.321368,1,-1,1,1028,0,-1539
816,9.332919,0,-1,1,1031,1,-1544
817,9.344475,1,0,1,1031,-5,-1540
818,9.356068,0,0,1,1030,0,-1546
819,9.367618,0,0,1,1034,0,-1542
820,9.379182,0,0,1,1031,0,-1542
821,9.390754,0,0,2,1030,-2,-1550
822,9.402403,1,0,1,1033,0,-1540
823,9.414066,0,0,1,1034,1,-1552
824,9.425742,0,0,1,1034,1,-1547
825,9.437399,0,0,1,1033,-1,-1544
826,9.44905,0,0,1,1032,2,-1548
827,9.460729,0,0,1,1031,-1,-1540
828,9.472391,1,0,1,1034,0,-1548
829,9.484046,0,-1,1,1035,0,-1544
830,9.495714,0,0,1,1034,-4,-1548
831,9.507299,0,0,0,1036,1,-1541
832,9.518854,0,0,1,1029,0,-1543
833,9.530422,0,0,2,1034,0,-1544
834,9.541995,0,0,1,1032,0,-1538
835,9.553549,0,-1,1,1036,2,-1542
836,9.565105,0,-1,0,1032,0,-1545
837,9.576686,0,0,0,1031,1,-1539
838,9.58824,1,0,0,1031,-3,-1541
839,9.599812,0,1,1,1034,2,-1547
840,9.611494,0,1,1,1032,0,-1542
841,9.623162,1,0,2,1035,-3,-1548
842,9.634831,0,0,1,1028,-1,-1542
843,9.646518,0,0,1,1030,0,-1542
844,9.658147,0,1,1,1031,-2,-1541
845,9.669805,0,0,1,1033,-1,-1541
846,9.681473,0,0,2,1030,1,-1542
847,9.693138,1,0,1,1034,-2,-1545
848,9.704791,0,0,1,1031,0,-1545
849,9.716472,1,0,2,1028,1,-1539
850,9.728152,0,0,1,1032,1,-1545
851,9.739811,1,0,2,1027,0,-1545
852,9.751432,0,0,2,1030,-1,-1541
853,9.763107,1,1,1,1030,-1,-1545
854,9.774809,1,0,2,1034,2,-1546
855,9.786478,1,0,1,1032,0,-1544
856,9.798162,0,-1,1,1035,-1,-1548
857,9.809843,0,0,0,1036,0,-1543
858,9.82142,0,0,0,1034,0,-1543
859,9.832975,0,-1,0,1031,-1,-1544
860,9.844529,0,0,1,1034,-2,-1541
861,9.856086,0,-1,1,1032,0,-1553
862,9.867635,1,0,0,1031,3,-1543
863,9.879223,0,0,1,1032,1,-1544
864,9.890798,1,0,1,1033,0,-1542
865,9.902384,0,0,1,1031,0,-1544
866,9.914036,1,-1,1,1031,-1,-1540
867,9.925711,0,0,1,1033,1,-1536
868,9.937361,0,0,1,1031,1,-1544
869,9.949039,1,0,1,1034,3,-1545
870,9.960729,1,1,1,1031,-2,-1544
871,9.972396,1,0,1,1032,1,-1546
872,9.984055,0,0,0,1030,0,-1544
873,9.995713,0,0,0,1028,-1,-1545
874,10.007386,0,0,0,1030,0,-1542
875,10.019065,0,0,1,1035,-4,-1548
876,10.030623,0,1,1,1032,0,-1542
877,10.042182,0,-1,1,1032,0,-1544
878,10.053727,0,0,1,1032,-1,-1543
879,10.065281,0,0,1,1029,0,-1541
880,10.07683,1,0,0,1032,1,-1544
881,10.088399,0,1,1,1030,-2,-1545
882,10.099955,1,1,1,1031,-2,-1548
883,10.111542,0,0,1,1031,0,-1539
884,10.123183,1,0,1,1032,0,-1544
885,10.134862,1,0,1,1031,0,-1547
886,10.146537,0,0,0,1033,-4,-1544
887,10.158213,1,0,0,1031,0,-1543
888,10.169877,1,0,0,1032,-1,-1546
889,10.181529,0,0,1,1028,-1,-1547
890,10.19319,0,1,1,1033,2,-1541
891,10.204853,1,0,1,1032,-2,-1550
892,10.216511,0,0,1,1032,2,-1540
893,10.228209,1,1,1,1033,-2,-1538
894,10.23979,1,0,1,1028,1,-1548
895,10.251336,1,0,1,1032,2,-1545
896,10.262911,0,-1,1,1034,2,-1547
897,10.274487,1,-1,1,1030,0,-1542
898,10.286059,0,0,1,1027,0,-1543
899,10.2976,0,0,1,1032,-1,-1549
900,10.309149,0,0,1,1032,1,-1549
901,10.320717,0,0,0,1031,0,-1548
902,10.332379,0,0,1,1036,2,-1543
903,10.34405,0,1,1,1031,0,-1544
904,10.355719,0,0,1,1031,0,-1544
905,10.367359,0,0,1,1033,0,-1548
906,10.379032,0,0,1,1034,0,-1545
907,10.390713,1,1,2,1033,-1,-1550
908,10.40239,0,0,2,1030,-3,-1546
909,10.414047,1,0,1,1032,1,-1547
910,10.425732,0,0,1,1031,-2,-1542
911,10.437391,0,0,1,1034,0,-1540
912,10.448948,1,0,1,1036,-1,-1547
913,10.46051,1,0,1,1034,0,-1550
914,10.472071,1,0,1,1030,-3,-1537
915,10.483624,0,-1,1,1034,-1,-1541
916,10.495186,1,0,1,1032,1,-1542
917,10.506779,1,1,1,1034,-1,-1552
918,10.518355,1,1,1,1037,0,-1545
919,10.529929,0,0,1,1032,2,-1543
920,10.541618,0,1,1,1032,-4,-1544
921,10.553294,1,1,1,1035,2,-1546
922,10.564961,1,0,1,1030,3,-1541
923,10.576622,1,0,1,1034,-2,-1534
924,10.588332,0,0,1,1033,0,-1542
925,10.599987,1,0,1,1034,4,-1544
926,10.611693,1,-1,1,1032,0,-1549
927,10.62336,0,1,1,1031,2,-1544
928,10.63505,1,0,1,1032,0,-1548
929,10.646712,0,0,1,1032,0,-1544
930,10.658299,1,0,1,1034,1,-1549
931,10.669845,1,0,1,1037,-3,-1545
932,10.681393,0,1,1,1034,0,-1547
933,10.692957,0,0,1,1036,1,-1543
934,10.704509,0,0,2,1033,5,-1538
935,10.716063,1,-1,1,1033,2,-1540
936,10.727636,0,1,1,1035,0,-1546
937,10.739227,0,-1,0,1033,-1,-1544
938,10.750845,1,-1,1,1034,-1,-1546
939,10.762534,1,0,2,1034,2,-1544
940,10.774205,0,0,1,1030,0,-1541
941,10.785848,1,0,1,1034,-1,-1548
942,10.797498,0,0,1,1034,0,-1545
943,10.809169,0,0,1,1034,-1,-1548
944,10.82082,0,0,1,1034,0,-1539
945,10.832472,0,-1,1,1031,0,-1544
946,10.844131,0,0,1,1028,-3,-1542
947,10.855802,1,0,0,1034,-3,-1540
948,10.867432,1,1,1,1033,0,-1545
949,10.879095,1,0,1,1035,-1,-1541
950,10.890787,1,0,1,1035,-2,-1545
951,10.902449,1,0,1,1036,-4,-1543
952,10.914125,0,0,1,1034,-1,-1544
953,10.925799,0,0,1,1035,-3,-1540
954,10.937453,0,0,0,1030,-2,-1546
955,10.949131,1,0,1,1031,-1,-1551
956,10.960801,1,0,1,1033,-4,-1541
957,10.972456,0,0,0,1031,0,-1541
958,10.984127,0,0,1,1038,0,-1545
959,10.995778,0,0,1,1031,0,-1547
960,11.007436,0,1,1,1032,-2,-1544
961,11.019098,1,0,1,1031,2,-1546
962,11.030828,0,0,1,1036,-2,-1544
963,11.042476,0,1,1,1035,1,-1547
964,11.054157,0,0,1,1035,0,-1551
965,11.065701,0,0,1,1034,2,-1542
966,11.07725,-1,0,1,1036,2,-1549
967,11.088798,0,0,1,1036,2,-1544
968,11.100363,0,0,1,1037,1,-1542
969,11.111915,0,0,1,1035,3,-1546
970,11.123494,-1,0,0,1031,1,-1549
971,11.135048,0,0,1,1033,0,-1550
972,11.146627,0,1,1,1037,-2,-1539
973,11.158182,0,0,1,1032,-2,-1550
974,11.169822,1,0,1,1032,-3,-1550
975,11.181506,1,0,1,1030,1,-1545
976,11.193158,1,-1,2,1028,1,-1543
977,11.204815,0,0,0,1030,3,-1542
978,11.21647,0,0,1,1032,-1,-1543
979,11.228117,0,0,1,1032,1,-1546
980,11.23977,0,0,1,1037,-3,-1540
981,11.251441,0,-1,1,1034,0,-1542
982,11.263117,0,1,1,1031,-1,-1547
983,11.27479,0,0,1,1034,4,-1542
984,11.28645,0,-1,2,1031,-3,-1543
985,11.298137,1,-1,1,1034,1,-1548
986,11.309797,0,0,1,1032,-2,-1547
987,11.321449,1,0,1,1032,-2,-1543
988,11.333094,1,0,0,1032,4,-1545
989,11.344754,0,0,1,1033,-1,-1539
990,11.356417,0,0,1,1032,0,-1541
991,11.368093,1,0,1,1029,0,-1544
992,11.379767,0,-1,2,1032,-2,-1548
993,11.391461,0,0,2,1029,-3,-1542
994,11.403143,0,0,1,1032,-3,-1542
995,11.414807,0,0,1,1033,-2,-1550
996,11.426479,1,0,1,1032,0,-1547
997,11.438148,0,0,1,1033,0,-1546
998,11.449807,1,0,1,1035,1,-1548
999,11.461461,0,1,1,1035,-1,-1543
1000,11.473145,0,0,1,1035,0,-1544
1001,11.484816,0,0,2,1031,3,-1534
1002,11.496378,-1,0,0,1034,0,-1546
1003,11.507922,0,0,0,1032,2,-1545
1004,11.51949,0,-1,1,1028,-1,-1548
1005,11.531039,0,0,1,1034,-4,-1538
1006,11.542612,0,0,1,1030,0,-1545
1007,11.554132,0,0,1,1033,1,-1543
1008,11.565677,0,0,1,1034,1,-1538
1009,11.577232,0,0,2,1032,-1,-1543
1010,11.588843,0,0,1,1035,0,-1548
1011,11.600493,0,0,1,1031,0,-1548
1012,11.612164,0,0,1,1035,0,-1549
1013,11.62381,0,0,1,1030,-1,-1543
1014,11.635434,0,-1,1,1034,-2,-1546
1015,11.647084,0,0,1,1035,2,-1541
1016,11.658757,0,1,1,1039,3,-1551
1017,11.670402,0,-1,1,1030,0,-1541
1018,11.682066,1,-1,1,1034,0,-1542
1019,11.693732,1,1,0,1032,0,-1548
1020,11.705287,0,-1,1,1032,0,-1537
1021,11.716851,1,0,1,1033,1,-1543
1022,11.728408,0,0,1,1033,0,-1546
1023,11.740002,0,0,1,1033,-1,-1549
1024,11.751605,1,0,1,1030,-1,-1543
1025,11.763175,0,0,2,1032,0,-1547
1026,11.774746,0,0,2,1034,-1,-1547
1027,11.786312,0,0,1,1029,-2,-1543
1028,11.798038,0,-1,1,1029,0,-1539
1029,11.80969,0,0,0,1033,-2,-1545
1030,11.821338,0,-1,1,1032,3,-1545
1031,11.833014,0,0,1,1033,0,-1544
1032,11.84466,0,1,1,1031,1,-1537
1033,11.856308,0,0,1,1028,-1,-1544
1034,11.867963,1,1,1,1032,-2,-1545
1035,11.87963,1,1,1,1033,-2,-1541
1036,11.891307,0,0,1,1034,0,-1548
1037,11.902862,0,-1,1,1032,4,-1542
1038,11.914375,0,0,1,1031,-1,-1548
1039,11.925919,1,0,2,1032,-1,-1543
1040,11.93747,0,0,1,1032,-1,-1543
1041,11.94902,1,0,1,1034,-5,-1547
1042,11.960587,1,0,1,1029,-3,-1543
1043,11.972146,1,0,0,1035,-3,-1547
1044,11.983747,1,0,2,1032,-1,-1543
1045,11.995359,0,1,1,1031,0,-1543
1046,12.007063,0,0,2,1031,0,-1549
1047,12.018722,1,0,1,1036,-2,-1549
1048,12.030405,0,1,1,1030,1,-1540
1049,12.042055,1,0,1,1033,-1,-1545
1050,12.05371,1,0,1,1034,1,-1539
1051,12.065355,0,0,1,1034,0,-1544
1052,12.07701,0,1,2,1031,2,-1549
1053,12.088678,1,0,1,1029,-1,-1540
1054,12.100343,0,1,1,1035,1,-1542
1055,12.111892,0,0,0,1035,3,-1548
1056,12.123468,0,0,1,1031,0,-1541
1057,12.135052,0,0,1,1035,0,-1544
1058,12.146621,0,0,1,1032,1,-1545
1059,12.158297,0,0,2,1033,-4,-1544
1060,12.170048,0,0,1,1035,-2,-1545
1061,12.18161,0,1,0,1033,4,-1543
1062,12.193177,1,0,1,1033,2,-1542
1063,12.204732,1,0,2,1031,-4,-1548
1064,12.216283,0,0,1,1033,-1,-1546
1065,12.227853,0,0,1,1030,-2,-1551
1066,12.239437,1,1,1,1032,2,-1549
1067,12.250996,1,0,1,1032,0,-1545
1068,12.262561,1,0,1,1028,-3,-1547
1069,12.274132,0,0,1,1034,-2,-1542
1070,12.285672,0,0,1,1034,0,-1546
1071,12.297304,1,0,1,1034,-1,-1543
1072,12.308958,1,0,0,1031,-4,-1547
1073,12.320649,1,0,0,1029,0,-1544
1074,12.332301,1,0,0,1033,-1,-1540
1075,12.343955,0,-1,1,1035,0,-1547
1076,12.355642,1,0,1,1032,-3,-1538
1077,12.367309,0,1,1,1037,1,-1549
1078,12.378969,0,1,1,1035,0,-1538
1079,12.39066,1,-1,1,1033,0,-1542
1080,12.402324,1,1,0,1034,2,-1546
1081,12.413979,1,0,0,1030,-1,-1540
1082,12.425651,0,1,1,1027,-1,-1543
1083,12.437294,0,0,2,1031,-4,-1549
1084,12.44895,0,0,1,1032,-1,-1545
1085,12.460623,1,0,1,1032,-1,-1544
1086,12.472279,1,0,1,1033,0,-1540
1087,12.483927,1,0,1,1032,3,-1546
1088,12.495603,0,1,2,1035,-1,-1538
1089,12.507357,1,0,2,1034,2,-1542
1090,12.519045,1,1,1,1031,0,-1551
1091,12.530717,1,1,1,1031,-1,-1545
1092,12.542415,0,1,1,1035,0,-1548
1093,12.554069,0,0,1,1031,0,-1548
1094,12.565715,1,0,1,1032,2,-1547
1095,12.577385,0,0,2,1036,0,-1550
1096,12.589101,0,0,1,1031,-2,-1549
1097,12.600921,0,0,1,1034,0,-1545
1098,12.612716,0,-1,1,1030,1,-1548
1099,12.624397,0,0,1,1033,0,-1542
1100,12.635976,0,0,2,1030,-3,-1546
1101,12.647538,1,0,2,1031,0,-1541
1102,12.659104,1,0,1,1031,0,-1548
1103,12.670733,0,0,1,1033,0,-1544
1104,12.682314,0,0,1,1034,-1,-1545
1105,12.693863,1,0,1,1031,-3,-1542
1106,12.70541,1,0,1,1033,0,-1541
1107,12.717046,1,0,1,1031,-4,-1545
1108,12.728713,0,0,1,1032,-4,-1543
1109,12.740398,1,0,1,1035,3,-1549
1110,12.752059,0,-1,1,1033,-1,-1542
1111,12.763736,1,0,0,1031,-2,-1547
1112,12.775419,0,0,1,1032,-3,-1545
1113,12.787094,0,-1,1,1030,-2,-1544
1114,12.798784,1,0,1,1033,0,-1540
1115,12.810439,0,0,1,1030,3,-1545
1116,12.822106,0,-1,0,1030,0,-1537
1117,12.833767,0,0,1,1033,-3,-1542
1118,12.845427,0,0,2,1032,-2,-1547
1119,12.857069,0,0,1,1029,2,-1542
1120,12.868717,1,0,1,1035,0,-1545
1121,12.880428,0,1,0,1031,-2,-1544
1122,12.892073,0,0,1,1029,3,-1552
1123,12.903725,0,0,1,1034,2,-1535
1124,12.91544,1,0,1,1030,2,-1543
1125,12.927165,0,0,0,1031,-2,-1540
1126,12.938833,0,1,1,1032,0,-1547
1127,12.950381,0,0,1,1030,-1,-1544
1128,12.961969,0,0,1,1029,0,-1544
1129,12.973527,0,0,0,1033,0,-1548
1130,12.985084,0,-1,2,1030,2,-1540
1131,12.996664,1,0,1,1034,0,-1541
1132,13.008357,0,0,1,1034,0,-1547
1133,13.019916,0,0,2,1037,0,-1554
1134,13.031498,0,0,1,1032,-2,-1543
1135,13.043179,0,0,1,1032,0,-1538
1136,13.054862,0,-1,1,1032,0,-1547
1137,13.066546,1,0,0,1034,0,-1547
1138,13.078264,0,0,1,1033,-2,-1544
1139,13.089915,1,-1,1,1033,2,-1545
1140,13.101581,1,0,1,1032,-2,-1561
1141,13.113244,0,0,0,1031,0,-1542
1142,13.124901,0,-1,1,1031,-2,-1543
1143,13.136566,0,-1,1,1034,0,-1546
1144,13.148241,0,0,1,1032,-3,-1547
1145,13.159895,0,0,1,1033,-2,-1545
1146,13.171577,0,-1,1,1031,2,-1546
1147,13.183245,0,0,1,1030,0,-1542
1148,13.194916,0,0,1,1033,1,-1544
1149,13.206589,0,0,1,1032,-1,-1542
1150,13.218272,1,-1,1,1029,0,-1554
1151,13.22992,0,0,1,1032,-1,-1541
1152,13.241628,0,0,1,1031,-4,-1542
1153,13.253318,0,0,1,1029,0,-1544
1154,13.264967,0,0,1,1035,-1,-1541
1155,13.276632,0,0,0,1034,0,-1548
1156,13.288297,0,0,0,1035,3,-1550
1157,13.299943,0,1,1,1034,0,-1539
1158,13.311627,0,1,1,1030,0,-1538
1159,13.323293,0,0,1,1033,-2,-1545
1160,13.33497,0,0,1,1030,0,-1540
1161,13.346735,0,1,1,1032,0,-1540
1162,13.358404,0,1,0,1029,-1,-1542
1163,13.369969,1,0,2,1035,0,-1542
1164,13.38155,0,0,1,1033,1,-1551
1165,13.393099,0,0,1,1036,2,-1540
1166,13.40465,1,0,1,1031,3,-1539
1167,13.416205,0,1,1,1032,-1,-1538
1168,13.427756,0,0,1,1026,-1,-1538
1169,13.439332,0,1,1,1032,-2,-1544
1170,13.450958,0,0,1,1030,-1,-1542
1171,13.462666,1,0,1,1026,-3,-1544
1172,13.474373,-1,1,1,1032,-1,-1536
1173,13.486021,0,0,1,1031,-2,-1546
1174,13.497671,0,1,0,1034,0,-1549
1175,13.509344,0,0,1,1031,0,-1547
1176,13.520995,0,0,1,1033,0,-1539
1177,13.532647,0,1,1,1032,0,-1546
1178,13.544314,0,0,2,1031,1,-1546
1179,13.555983,1,0,1,1035,2,-1543
1180,13.567695,0,0,1,1028,-1,-1548
1181,13.579371,1,0,0,1036,1,-1542
1182,13.591047,0,1,1,1034,0,-1546
1183,13.602707,0,0,1,1028,-2,-1543
1184,13.61439,0,-1,0,1034,0,-1543
1185,13.626088,1,0,1,1032,0,-1547
1186,13.637744,1,-1,1,1036,-1,-1544
1187,13.649393,0,0,1,1036,-2,-1544
1188,13.661138,0,-1,2,1031,-2,-1550
1189,13.672809,0,-1,1,1034,-3,-1542
1190,13.684428,0,0,1,1032,1,-1548
1191,13.695984,1,0,1,1031,-3,-1549
1192,13.707566,1,0,1,1029,-1,-1551
1193,13.719092,0,0,1,1031,-1,-1538
1194,13.730616,0,0,0,1035,0,-1541
1195,13.742176,1,-1,1,1033,0,-1543
1196,13.753722,2,1,1,1032,0,-1549
1197,13.765279,1,0,1,1033,1,-1550
1198,13.776904,0,0,2,1034,0,-1543
1199,13.788567,1,0,1,1033,0,-1548
1200,13.80024,0,0,1,1031,0,-1542
1201,13.811886,1,0,2,1034,-2,-1546
1202,13.82361,1,0,1,1034,3,-1547
1203,13.835454,1,0,1,1033,0,-1545
1204,13.847175,0,0,2,1033,0,-1543
1205,13.858862,0,0,1,1030,1,-1542
1206,13.870624,0,0,1,1031,0,-1546
1207,13.882311,0,0,1,1032,-2,-1539
1208,13.893921,0,0,0,1033,-3,-1540
1209,13.905475,0,0,1,1036,0,-1549
1210,13.917053,0,1,1,1031,-3,-1546
1211,13.928593,0,0,1,1034,1,-1541
1212,13.94014,0,1,1,1027,0,-1546
1213,13.951692,0,1,1,1031,-2,-1542
1214,13.963243,0,0,1,1032,0,-1545
1215,13.974809,0,0,1,1028,0,-1536
1216,13.986555,1,0,1,1035,0,-1542
1217,13.998276,0,0,1,1032,0,-1540
1218,14.009954,1,0,1,1031,2,-1547
1219,14.021629,0,0,1,1035,0,-1544
1220,14.03329,0,1,2,1034,-1,-1545
1221,14.044969,0,0,0,1036,1,-1542
1222,14.056639,1,1,0,1033,0,-1544
1223,14.068315,0,0,0,1032,3,-1541
1224,14.07999,0,0,1,1030,-2,-1549
1225,14.091699,0,0,1,1036,2,-1541
1226,14.10326,0,-1,1,1031,0,-1550
1227,14.114838,0,0,1,1029,0,-1541
1228,14.126433,0,0,1,1029,-2,-1546
1229,14.137982,0,0,1,1032,0,-1549
1230,14.149544,1,1,1,1031,-1,-1547
1231,14.161086,0,0,1,1030,-4,-1543
1232,14.172632,0,-1,1,1031,-5,-1548
1233,14.184196,1,0,0,1032,0,-1542
1234,14.195835,1,1,1,1030,0,-1545
1235,14.2075,0,0,1,1030,0,-1550
1236,14.219195,0,0,1,1034,0,-1546
1237,14.230893,0,-1,0,1036,-1,-1549
1238,14.242561,0,0,1,1035,2,-1543
1239,14.254258,0,-1,1,1032,0,-1547
1240,14.265915,0,0,1,1034,-2,-1544
1241,14.277591,0,0,1,1030,-3,-1541
1242,14.28926,0,1,0,1036,0,-1546
1243,14.30091,0,0,1,1032,0,-1550
1244,14.312471,0,0,1,1035,-2,-1548
1245,14.324055,1,0,1,1032,-1,-1546
1246,14.335616,0,0,1,1034,0,-1548
1247,14.347173,0,-1,0,1032,-1,-1546
1248,14.358771,1,0,1,1034,-2,-1548
1249,14.370354,0,0,1,1034,-3,-1546
1250,14.381922,0,0,1,1030,-2,-1548
1251,14.3935,0,0,1,1027,0,-1543
1252,14.405122,0,0,1,1034,0,-1538
1253,14.416774,0,0,1,1034,1,-1545
1254,14.428426,0,1,1,1031,3,-1546
1255,14.440096,0,0,1,1034,-1,-1550
1256,14.451739,1,1,1,1035,-1,-1542
1257,14.463421,1,1,1,1030,-4,-1544
1258,14.475101,0,0,1,1029,-1,-1549
1259,14.486779,0,0,0,1031,0,-1544
1260,14.498419,0,0,1,1031,-2,-1547
1261,14.510117,0,0,1,1031,0,-1543
1262,14.521691,0,0,1,1033,-2,-1545
1263,14.533266,0,0,1,1029,1,-1545
1264,14.54481,0,0,1,1035,-1,-1540
1265,14.556353,0,1,1,1034,3,-1543
1266,14.567911,0,1,0,1032,0,-1539
1267,14.579484,0,0,1,1031,-1,-1550
1268,14.591071,1,1,1,1031,-3,-1540
1269,14.602686,1,-1,1,1030,-1,-1545
1270,14.614391,0,0,1,1033,0,-1538
1271,14.626065,0,0,1,1035,-1,-1542
1272,14.637722,0,1,1,1033,-1,-1545
1273,14.649383,0,0,1,1029,-4,-1546
1274,14.661032,0,1,2,1030,-2,-1544
1275,14.672684,1,0,1,1036,-3,-1539
1276,14.684346,1,0,1,1033,2,-1543
1277,14.695989,1,0,1,1030,-1,-1546
1278,14.707695,0,0,1,1031,0,-1544
1279,14.719359,-1,0,0,1034,-1,-1549
1280,14.730958,0,0,1,1032,-2,-1546
1281,14.742528,0,0,1,1035,0,-1547
1282,14.754092,1,0,1,1035,-1,-1543
1283,14.765695,1,0,1,1032,0,-1548
1284,14.777276,1,0,1,1033,0,-1542
1285,14.788821,0,0,1,1033,0,-1539
1286,14.800371,0,0,1,1030,1,-1548
1287,14.811934,0,0,0,1035,1,-1543
1288,14.823602,1,0,0,1031,0,-1541
1289,14.83529,0,1,1,1036,0,-1549
1290,14.846919,1,0,1,1034,1,-1541
1291,14.858589,0,0,1,1031,0,-1543
1292,14.870274,0,0,2,1034,2,-1551
1293,14.881938,0,0,1,1036,-1,-1543
1294,14.893591,0,-1,1,1035,-2,-1541
1295,14.90524,0,0,1,1032,3,-1541
1296,14.916906,1,0,1,1031,-2,-1547
1297,14.928572,1,0,1,1033,0,-1540
1298,14.940221,1,0,2,1032,1,-1543
1299,14.951873,0,0,2,1033,-3,-1549
1300,14.96355,0,1,1,1034,3,-1550
1301,14.975174,0,0,1,1030,1,-1545
1302,14.986842,0,0,2,1031,-2,-1537
1303,14.99852,0,0,1,1036,-2,-1541
1304,15.010144,0,0,0,1035,0,-1551
1305,15.021846,0,0,1,1034,0,-1543
1306,15.033495,0,0,1,1031,-5,-1549
1307,15.045145,1,0,0,1033,0,-1550
1308,15.056819,1,-1,1,1030,-2,-1546
1309,15.06847,0,0,1,1033,0,-1542
1310,15.080125,0,0,1,1031,0,-1543
1311,15.091793,0,0,1,1030,0,-1544
1312,15.103476,0,-1,1,1034,-1,-1546
1313,15.11515,1,0,1,1032,1,-1547
1314,15.126847,1,-1,1,1031,-1,-1549
1315,15.138544,0,0,1,1030,-3,-1549
1316,15.150135,0,0,1,1036,0,-1543
1317,15.161683,0,0,1,1031,-1,-1546
1318,15.173229,1,1,1,1033,-1,-1547
1319,15.184778,1,0,1,1033,1,-1542
1320,15.196324,0,0,1,1036,-2,-1536
1321,15.207874,0,0,1,1032,0,-1542
1322,15.219428,0,0,1,1034,0,-1546
1323,15.231026,0,0,1,1035,0,-1543
1324,15.242676,1,0,1,1032,1,-1545
1325,15.254341,0,0,0,1033,-1,-1543
1326,15.265985,0,0,1,1033,-1,-1545
1327,15.277632,0,0,1,1030,-2,-1545
1328,15.289302,0,0,0,1033,0,-1548
1329,15.300948,1,1,1,1032,0,-1542
1330,15.312597,1,0,1,1030,3,-1549
1331,15.324255,0,0,1,1033,-4,-1546
1332,15.335938,0,0,1,1035,0,-1542
1333,15.347599,1,0,1,1036,1,-1545
1334,15.359168,0,1,1,1031,0,-1543
1335,15.370773,0,0,1,1037,-1,-1543
1336,15.382389,1,0,1,1031,-3,-1540
1337,15.393943,0,0,1,1037,-3,-1545
1338,15.405513,0,0,1,1031,-1,-1541
1339,15.417056,0,1,1,1031,-1,-1543
1340,15.428604,0,0,1,1036,1,-1541
1341,15.440164,0,0,1,1034,0,-1548
1342,15.451803,0,1,1,1030,2,-1539
1343,15.463454,0,0,1,1034,0,-1542
1344,15.475146,0,0,1,1037,-3,-1546
1345,15.486832,1,0,1,1027,6,-1546
1346,15.498519,0,0,2,1033,2,-1544
1347,15.510219,0,1,1,1031,-3,-1548
1348,15.521878,1,0,1,1033,1,-1542
1349,15.533557,1,0,1,1029,-1,-1546
1350,15.545227,0,1,2,1032,1,-1544
1351,15.556901,0,1,1,1035,0,-1538
1352,15.568476,0,1,1,1032,1,-1540
1353,15.580048,1,0,1,1032,1,-1547
1354,15.591591,0,0,1,1029,1,-1546
1355,15.603149,0,0,1,1035,-4,-1549
1356,15.614733,1,0,1,1028,1,-1546
1357,15.626292,1,0,1,1029,0,-1549
1358,15.637836,0,0,1,1034,1,-1543
1359,15.649404,1,1,0,1033,-2,-1543
1360,15.661047,1,0,0,1034,0,-1549
1361,15.672701,1,-1,1,1035,0,-1541
1362,15.684352,1,1,1,1032,0,-1548
1363,15.696039,0,1,1,1034,0,-1544
1364,15.70769,0,0,1,1033,0,-1536
1365,15.719347,0,1,1,1031,1,-1546
1366,15.731036,0,0,1,1031,-1,-1542
1367,15.742661,0,0,1,1031,0,-1544
1368,15.754331,1,0,1,1034,1,-1543
1369,15.76599,0,0,0,1032,-2,-1537
1370,15.777554,0,1,1,1031,-1,-1539
1371,15.789125,0,0,0,1035,0,-1549
1372,15.800675,0,0,1,1031,-1,-1549
1373,15.812242,0,0,2,1026,-2,-1545
1374,15.823791,1,0,1,1034,0,-1545
1375,15.835342,1,0,1,1032,-1,-1547
1376,15.846926,0,1,2,1034,2,-1544
1377,15.858516,1,0,1,1030,-1,-1544
1378,15.870189,0,-1,1,1034,0,-1543
1379,15.881863,1,0,0,1033,1,-1541
1380,15.893541,1,0,1,1033,0,-1552
1381,15.905182,0,1,1,1034,0,-1542
1382,15.916832,0,-1,1,1035,1,-1550
1383,15.928489,0,0,1,1029,1,-1540
1384,15.940164,0,0,1,1031,-1,-1547
1385,15.951821,0,1,1,1034,0,-1544
1386,15.963503,0,0,1,1031,3,-1540
1387,15.975171,0,0,1,1031,-1,-1543
1388,15.986832,1,0,2,1033,1,-1545
1389,15.99852,0,0,1,1036,1,-1547
1390,16.010183,0,0,2,1034,4,-1544
1391,16.021833,1,1,1,1031,0,-1540
1392,16.033496,0,0,1,1032,0,-1540
1393,16.045162,0,0,1,1036,0,-1540
1394,16.056822,1,0,1,1031,-1,-1540
1395,16.0685,0,0,1,1027,1,-1541
1396,16.080161,0,0,1,1029,-2,-1548
1397,16.09182,1,0,1,1034,-2,-1544
1398,16.103485,0,1,1,1031,0,-1543
1399,16.115171,0,0,1,1028,1,-1547
1400,16.126833,0,0,1,1035,-1,-1543
1401,16.138477,0,0,0,1032,3,-1542
1402,16.150144,0,0,1,1034,-1,-1543
1403,16.161797,0,0,1,1029,2,-1545
1404,16.173514,0,-1,1,1036,1,-1538
1405,16.185181,1,0,0,1037,2,-1535
1406,16.196741,0,0,1,1031,-3,-1548
1407,16.2083,1,0,1,1032,-2,-1543
1408,16.219887,1,0,2,1035,0,-1543
1409,16.231486,1,0,0,1034,-2,-1545
1410,16.243032,1,0,1,1032,-4,-1546
1411,16.254618,0,1,1,1034,-2,-1539
1412,16.266132,0,0,0,1032,0,-1545
1413,16.277689,0,0,1,1030,0,-1546
1414,16.289307,0,0,2,1036,0,-1548
1415,16.300963,1,1,1,1034,0,-1546
1416,16.312639,1,0,1,1027,-1,-1542
1417,16.324292,0,0,1,1032,-1,-1547
1418,16.335952,0,0,1,1036,0,-1547
1419,16.347653,1,1,1,1036,0,-1538
1420,16.359309,0,0,1,1036,3,-1543
1421,16.37097,0,0,0,1031,-1,-1541
1422,16.382676,0,0,2,1032,-1,-1547
1423,16.394339,0,0,2,1031,0,-1541
1424,16.405898,0,0,1,1033,-1,-1544
1425,16.417441,0,0,0,1034,0,-1541
1426,16.428995,1,0,1,1032,0,-1546
1427,16.440544,0,0,1,1034,0,-1544
1428,16.452096,0,1,1,1032,-2,-1549
1429,16.463646,0,1,1,1031,2,-1545
1430,16.475234,1,0,0,1034,1,-1543
1431,16.486802,0,0,2,1028,0,-1551
1432,16.498406,0,-1,1,1034,-4,-1545
1433,16.510062,0,0,1,1033,-2,-1550
1434,16.521714,1,0,0,1036,-1,-1546
1435,16.533366,0,1,1,1032,2,-1544
1436,16.545036,1,0,1,1031,0,-1543
1437,16.556681,0,-1,1,1035,-1,-1543
1438,16.568329,0,1,1,1031,-1,-1539
1439,16.579997,0,0,1,1035,3,-1547
1440,16.591712,1,0,1,1034,-4,-1544
1441,16.603409,0,-1,1,1031,0,-1542
1442,16.614994,1,-1,1,1029,-1,-1541
1443,16.626567,0,0,0,1031,1,-1539
1444,16.638134,0,1,1,1035,0,-1545
1445,16.649683,0,0,2,1036,4,-1549
1446,16.661238,1,0,1,1031,0,-1549
1447,16.672789,0,0,1,1033,-2,-1550
1448,16.684342,0,0,1,1032,0,-1548
1449,16.695905,1,0,1,1035,-3,-1544
1450,16.707549,0,-1,1,1033,-1,-1541
1451,16.71921,1,0,1,1034,-2,-1544
1452,16.73091,0,0,1,1031,1,-1545
1453,16.742558,1,0,2,1035,-4,-1541
1454,16.754214,1,0,1,1036,0,-1540
1455,16.765899,0,0,1,1032,0,-1543
1456,16.777545,1,0,1,1031,0,-1540
1457,16.789194,0,0,2,1031,0,-1541
1458,16.800883,0,0,1,1035,0,-1537
1459,16.812535,0,-1,0,1030,1,-1547
1460,16.824095,-1,0,0,1033,0,-1543
1461,16.835644,1,0,1,1032,-1,-1542
1462,16.847218,0,0,1,1030,0,-1545
1463,16.858782,0,0,1,1027,0,-1543
1464,16.870371,0,0,1,1032,0,-1541
1465,16.88193,1,1,1,1032,0,-1542
1466,16.893481,0,1,1,1032,1,-1541
1467,16.905059,0,-1,0,1033,0,-1545
1468,16.916747,0,1,1,1035,2,-1543
1469,16.928409,0,-1,1,1032,1,-1551
1470,16.94006,1,-1,1,1031,-1,-1540
1471,16.951739,0,0,1,1031,0,-1539
1472,16.963469,1,0,1,1030,0,-1547
1473,16.975157,0,-1,1,1032,1,-1546
1474,16.986841,1,0,1,1032,2,-1544
1475,16.998534,1,0,1,1036,1,-1542
1476,17.010208,0,0,1,1031,-1,-1543
1477,17.021892,0,0,0,1033,0,-1546
1478,17.033471,1,-1,2,1029,-5,-1543
1479,17.045012,0,0,1,1034,0,-1535
1480,17.056563,1,1,1,1034,-2,-1539
1481,17.068116,-1,0,2,1032,-1,-1542
1482,17.079664,0,0,1,1031,0,-1542
1483,17.091224,0,0,1,1034,0,-1546
1484,17.102785,0,-1,2,1032,0,-1551
1485,17.114384,1,0,2,1031,-2,-1549
1486,17.126028,0,0,0,1029,-2,-1546
1487,17.137681,0,1,0,1032,-5,-1546
1488,17.14933,0,0,1,1032,0,-1541
1489,17.160999,0,1,1,1033,0,-1545
1490,17.172654,0,0,2,1035,1,-1549
1491,17.184304,0,0,2,1030,-1,-1543
1492,17.195953,1,1,2,1029,-1,-1541
1493,17.207617,1,1,1,1034,0,-1542
1494,17.219313,1,-1,1,1030,0,-1549
1495,17.230978,0,0,0,1037,-1,-1542
1496,17.242618,1,0,0,1028,1,-1539
1497,17.254216,0,-1,1,1033,0,-1544
1498,17.265762,0,1,1,1034,1,-1550
1499,17.27731,1,0,1,1031,3,-1541
1500,17.288865,1,-1,1,1034,-2,-1541
1501,17.300477,0,0,1,1031,1,-1546
1502,17.312157,1,0,1,1034,-1,-1539
1503,17.32379,1,0,0,1034,-1,-1544
1504,17.335444,0,0,1,1033,-1,-1544
1505,17.347172,0,0,1,1029,3,-1558
1506,17.358861,0,0,1,1030,-3,-1542
1507,17.370538,1,-1,1,1033,0,-1539
1508,17.382205,0,0,1,1035,-1,-1546
1509,17.393858,0,1,1,1031,-1,-1548
1510,17.405523,0,1,1,1036,2,-1542
1511,17.417193,0,0,1,1034,0,-1542
1512,17.428941,0,0,1,1032,0,-1544
1513,17.440599,0,0,1,1031,1,-1545
1514,17.452197,0,0,1,1029,0,-1545
1515,17.46375,0,0,1,1032,-3,-1542
1516,17.47534,0,0,1,1032,0,-1540
1517,17.486855,1,0,1,1030,2,-1547
1518,17.498376,0,0,1,1034,0,-1542
1519,17.509922,0,0,1,1034,0,-1544
1520,17.521478,0,0,0,1034,0,-1547
1521,17.533037,0,-1,1,1034,0,-1547
1522,17.544657,1,0,1,1037,0,-1544
1523,17.556314,0,0,2,1030,2,-1546
1524,17.567996,1,0,1,1035,4,-1541
1525,17.57968,1,0,1,1035,-2,-1547
1526,17.591362,-1,1,1,1028,0,-1545
1527,17.603052,0,0,0,1031,0,-1544
1528,17.61471,0,1,1,1029,0,-1542
1529,17.626404,0,0,1,1034,-4,-1545
1530,17.638055,0,-1,0,1033,-1,-1542
1531,17.649748,0,0,1,1032,1,-1543
1532,17.661331,1,1,1,1033,0,-1549
1533,17.672881,1,0,0,1030,0,-1541
1534,17.684454,1,0,0,1033,-1,-1545
1535,17.696059,-1,0,1,1030,-1,-1543
1536,17.707609,0,0,1,1032,-1,-1547
1537,17.719157,0,0,1,1029,-4,-1547
1538,17.73075,1,0,1,1031,1,-1544
1539,17.742321,0,1,1,1036,1,-1544
1540,17.753958,1,1,1,1031,0,-1544
1541,17.765617,1,1,1,1035,-1,-1543
1542,17.777271,0,1,1,1035,-2,-1546
1543,17.788916,0,1,1,1034,3,-1546
1544,17.800564,0,0,0,1034,0,-1551
1545,17.812235,-1,0,1,1029,0,-1543
1546,17.823885,0,0,2,1033,-1,-1535
1547,17.835555,0,0,1,1028,-5,-1542
1548,17.847245,0,0,1,1037,0,-1550
1549,17.858899,0,0,1,1031,4,-1543
1550,17.870492,0,0,1,1030,3,-1540
1551,17.882041,0,0,1,1032,-1,-1540
1552,17.893594,0,0,1,1033,-2,-1548
1553,17.905176,0,0,1,1035,0,-1549
1554,17.916725,0,0,0,1039,0,-1541
1555,17.928303,0,1,1,1034,-1,-1546
1556,17.939853,1,0,2,1031,1,-1550
1557,17.95145,1,0,1,1030,-1,-1542
1558,17.963093,0,0,1,1030,-2,-1540
1559,17.974785,1,0,1,1034,2,-1547
1560,17.986401,1,0,2,1034,2,-1539
1561,17.998053,0,0,1,1030,-3,-1541
1562,18.009727,1,0,1,1033,3,-1544
1563,18.02138,0,0,1,1032,0,-1538
1564,18.033034,0,-1,1,1033,0,-1543
1565,18.0447,0,0,1,1035,0,-1549
1566,18.056376,0,0,0,1033,0,-1543
1567,18.068048,1,-1,1,1030,0,-1541
1568,18.079611,0,0,1,1032,1,-1542
1569,18.091195,1,0,1,1034,-1,-1550
1570,18.102771,1,0,1,1033,2,-1545
1571,18.114331,1,0,0,1032,4,-1546
1572,18.125874,1,0,1,1032,2,-1544
1573,18.137419,1,1,1,1031,3,-1547
1574,18.148972,0,-1,1,1030,0,-1544
1575,18.160529,0,-1,0,1034,4,-1546
1576,18.172148,0,0,0,1034,0,-1552
1577,18.185966,0,0,0,1033,-4,-1541
1578,18.197656,0,-1,1,1031,-1,-1545
1579,18.209329,1,0,2,1031,0,-1548
1580,18.220989,0,0,1,1030,0,-1546
1581,18.232638,0,0,1,1030,3,-1540
1582,18.244294,0,0,1,1031,-4,-1544
1583,18.255967,1,0,1,1029,2,-1550
1584,18.267643,1,0,1,1034,2,-1547
1585,18.279347,0,0,1,1036,0,-1543
1586,18.29094,0,0,1,1033,0,-1546
1587,18.302506,0,1,1,1031,-1,-1549
1588,18.314056,0,1,1,1033,-1,-1541
1589,18.325601,0,1,1,1033,-3,-1546
1590,18.337141,0,0,1,1030,0,-1543
1591,18.348689,1,1,1,1031,0,-1542
1592,18.360252,0,-1,2,1032,-3,-1539
1593,18.371842,0,0,1,1033,-2,-1546
1594,18.383502,1,-1,1,1028,-1,-1544
1595,18.395186,0,0,1,1033,-1,-1549
1596,18.406848,0,0,1,1030,0,-1548
1597,18.41853,1,0,1,1028,-1,-1542
1598,18.430243,0,0,2,1033,1,-1550
1599,18.441906,1,0,1,1028,0,-1538
1600,18.453618,1,0,1,1030,-2,-1539
1601,18.465274,0,0,1,1031,-2,-1541
1602,18.476979,0,0,2,1032,4,-1534
1603,18.488634,0,0,1,1034,-1,-1540
1604,18.500284,0,0,1,1033,0,-1538
1605,18.511952,1,-1,1,1034,0,-1552
1606,18.523615,1,-1,1,1033,2,-1546
1607,18.53529,2,0,1,1035,1,-1545
1608,18.54693,1,-1,1,1035,-3,-1543
1609,18.558618,1,-1,1,1035,0,-1547
1610,18.570274,0,0,1,1033,1,-1548
1611,18.581966,1,0,1,1028,0,-1542
1612,18.593631,1,1,2,1034,-1,-1545
1613,18.605187,0,0,2,1033,3,-1531
1614,18.616779,0,0,2,1032,-2,-1541
1615,18.628325,0,1,1,1033,1,-1542
1616,18.639907,0,1,2,1030,0,-1544
1617,18.651476,0,0,1,1034,0,-1539
1618,18.663056,0,0,1,1034,-2,-1547
1619,18.674615,1,0,0,1032,-3,-1547
1620,18.686193,0,0,0,1032,-1,-1550
1621,18.697851,0,0,1,1034,-1,-1547
1622,18.709513,0,1,1,1028,1,-1547
1623,18.721179,0,1,0,1031,0,-1534
1624,18.732837,0,0,0,1031,-4,-1543
1625,18.744498,1,1,1,1029,1,-1541
1626,18.756157,1,0,1,1032,-1,-1543
1627,18.767813,0,0,0,1032,2,-1539
1628,18.77949,0,1,1,1035,0,-1540
1629,18.791192,0,1,1,1032,2,-1544
1630,18.802882,0,1,1,1035,0,-1540
1631,18.814505,0,0,0,1033,0,-1542
1632,18.826065,0,-1,1,1031,-2,-1544
1633,18.837624,0,1,0,1035,0,-1544
1634,18.849195,0,0,2,1031,1,-1544
1635,18.860748,0,0,2,1029,0,-1542
1636,18.872303,0,0,1,1029,2,-1544
1637,18.883854,0,0,2,1036,0,-1543
1638,18.895438,0,-1,1,1033,-3,-1543
1639,18.907143,0,0,1,1029,3,-1544
1640,18.918837,0,-1,2,1037,-2,-1548
1641,18.930486,0,0,1,1035,-4,-1542
1642,18.942145,0,1,1,1034,-2,-1540
1643,18.953845,0,1,1,1030,0,-1545
1644,18.9655,0,0,1,1035,0,-1547
1645,18.977157,0,-1,1,1033,0,-1544
1646,18.988809,1,1,1,1030,0,-1546
1647,19.000499,1,0,1,1032,4,-1545
1648,19.012169,0,0,1,1032,-1,-1541
1649,19.02372,0,0,1,1030,-1,-1549
1650,19.035272,0,0,1,1034,2,-1548
1651,19.046849,0,-1,1,1029,0,-1542
1652,19.058418,0,0,1,1033,-2,-1542
1653,19.069974,-1,0,1,1032,1,-1540
1654,19.081565,0,0,1,1035,2,-1552
1655,19.093136,0,0,1,1031,0,-1547
1656,19.104692,1,0,1,1037,2,-1542
1657,19.116315,1,1,1,1034,4,-1543
1658,19.127969,1,0,1,1032,0,-1544
1659,19.139622,0,0,2,1033,-4,-1546
1660,19.15132,1,1,1,1032,3,-1548
1661,19.162987,0,0,1,1031,4,-1544
1662,19.174656,0,0,1,1034,-3,-1545
1663,19.186398,0,0,0,1033,0,-1550
1664,19.198125,0,-1,1,1031,-2,-1547
1665,19.209785,0,0,0,1036,0,-1540
1666,19.221474,1,0,1,1033,0,-1544
1667,19.233036,1,0,1,1035,-1,-1548
1668,19.244588,0,0,0,1037,-2,-1542
1669,19.256152,0,0,1,1037,0,-1539
1670,19.267707,0,-1,1,1037,0,-1543
1671,19.279286,0,-1,0,1032,-2,-1541
1672,19.290857,1,1,0,1032,-3,-1540
1673,19.302421,0,0,2,1031,0,-1545
1674,19.313974,0,0,1,1031,0,-1551
1675,19.3256,1,0,1,1037,0,-1544
1676,19.33725,1,0,1,1037,1,-1540
1677,19.348907,1,0,1,1033,-4,-1546
1678,19.360604,0,0,1,1030,-2,-1543
1679,19.37225,0,0,1,1033,1,-1543
1680,19.383902,1,0,1,1030,0,-1541
1681,19.395583,0,0,1,1031,-1,-1545
1682,19.407238,0,0,1,1034,0,-1540
1683,19.418904,0,0,1,1029,-2,-1541
1684,19.430452,1,0,1,1034,0,-1542
1685,19.441998,0,0,1,1034,0,-1548
1686,19.453551,0,1,1,1035,-1,-1542
1687,19.465105,1,1,1,1032,3,-1545
1688,19.476664,1,1,1,1037,1,-1545
1689,19.488208,1,0,2,1029,1,-1537
1690,19.499767,0,0,2,1032,0,-1541
1691,19.511343,0,1,0,1035,1,-1540
1692,19.522918,0,0,2,1036,1,-1544
1693,19.534614,0,0,1,1036,0,-1541
1694,19.546286,0,0,1,1033,1,-1542
1695,19.557981,1,1,1,1038,0,-1540
1696,19.569646,0,0,0,1034,0,-1542
1697,19.581298,0,1,0,1033,-2,-1539
1698,19.592994,0,0,1,1031,1,-1545
1699,19.604643,0,-1,1,1033,0,-1543
1700,19.616294,0,0,1,1033,0,-1545
1701,19.627974,0,0,1,1032,-2,-1545
1702,19.63962,0,0,2,1030,-1,-1540
1703,19.651292,1,0,1,1033,2,-1546
1704,19.662966,0,1,1,1033,0,-1545
1705,19.674647,0,0,2,1033,1,-1545
1706,19.686314,0,0,1,1035,0,-1544
1707,19.69797,0,1,1,1034,0,-1543
1708,19.709611,0,-1,1,1035,0,-1542
1709,19.721255,0,1,1,1034,1,-1538
1710,19.732932,0,0,1,1032,1,-1544
1711,19.74459,-1,0,2,1033,2,-1541
1712,19.75624,0,0,1,1038,1,-1546
1713,19.767885,1,1,1,1035,0,-1547
1714,19.779566,0,1,2,1032,3,-1535
1715,19.79123,0,-1,1,1034,0,-1539
1716,19.802905,0,-1,1,1030,0,-1544
1717,19.814567,0,-1,1,1033,2,-1543
1718,19.82622,0,0,2,1030,-2,-1542
1719,19.837877,0,0,2,1033,-1,-1542
1720,19.849568,0,0,1,1033,1,-1545
1721,19.861149,1,0,1,1033,-2,-1544
1722,19.872694,0,0,1,1033,0,-1542
1723,19.884254,1,-1,1,1035,-1,-1540
1724,19.895801,1,0,1,1033,-3,-1551
1725,19.907343,0,-1,0,1034,-4,-1543
1726,19.9189,1,0,1,1035,0,-1543
1727,19.930516,1,0,1,1033,0,-1545
1728,19.942087,1,0,1,1033,0,-1545
1729,19.953706,1,0,1,1033,-2,-1539
1730,19.965383,0,0,1,1032,-3,-1543
1731,19.977025,1,0,0,1029,-6,-1546
1732,19.988696,1,-1,1,1033,0,-1547
1733,20.000351,0,0,0,1032,0,-1541
1734,20.01206,0,0,1,1031,3,-1549
1735,20.023708,0,0,0,1029,0,-1542
1736,20.035364,0,0,1,1031,-2,-1547
1737,20.04707,0,0,1,1030,1,-1551
1738,20.058722,0,0,0,1030,2,-1550
1739,20.070287,1,0,1,1030,-1,-1548
1740,20.081876,1,0,0,1032,4,-1542
1741,20.093435,1,0,2,1033,0,-1547
1742,20.105007,0,0,1,1033,-2,-1550
1743,20.116553,1,-1,1,1030,0,-1538
1744,20.128095,0,0,1,1034,-2,-1545
1745,20.139653,0,0,1,1030,0,-1546
1746,20.15123,0,1,1,1030,-2,-1546
1747,20.162848,0,0,1,1032,1,-1544
1748,20.17452,0,0,1,1031,-1,-1547
1749,20.186197,1,-1,2,1034,1,-1548
1750,20.197855,0,-1,1,1033,-1,-1547
1751,20.209511,0,0,0,1033,0,-1545
1752,20.221181,1,0,1,1033,0,-1553
1753,20.232826,1,0,1,1034,3,-1546
1754,20.244482,1,0,1,1033,1,-1543
1755,20.25614,0,0,0,1034,-5,-1542
1756,20.267816,0,1,1,1032,0,-1541
1757,20.279373,0,0,1,1031,1,-1544
1758,20.290946,0,0,1,1032,0,-1545
1759,20.302509,0,0,1,1035,0,-1539
1760,20.314057,0,1,1,1035,0,-1540
1761,20.325612,0,0,0,1028,2,-1545
1762,20.33718,1,0,1,1034,-1,-1548
1763,20.348764,0,0,1,1032,0,-1545
1764,20.36033,0,0,2,1034,-1,-1542
1765,20.37195,1,0,1,1034,1,-1543
1766,20.383616,0,-1,1,1031,-1,-1542
1767,20.395321,0,0,0,1027,0,-1538
1768,20.406987,1,1,1,1033,-3,-1547
1769,20.418677,0,1,1,1033,-3,-1551
1770,20.430336,0,0,1,1030,4,-1547
1771,20.442006,0,0,0,1032,0,-1549
1772,20.453669,0,0,0,1031,-1,-1548
1773,20.465388,0,0,1,1034,0,-1544
1774,20.477071,1,0,1,1031,0,-1548
1775,20.488641,1,0,1,1033,0,-1538
1776,20.500244,0,0,1,1034,0,-1549
1777,20.511798,0,0,1,1031,-1,-1540
1778,20.523369,1,0,1,1032,3,-1546
1779,20.534916,1,0,1,1029,0,-1546
1780,20.54649,0,0,1,1034,-2,-1544
1781,20.558034,1,1,1,1030,0,-1548
1782,20.569595,1,0,1,1031,0,-1549
1783,20.581241,1,0,1,1035,1,-1544
1784,20.592899,0,0,1,1035,0,-1540
1785,20.604576,0,0,1,1031,-2,-1544
1786,20.61623,1,0,0,1029,2,-1547
1787,20.627917,1,0,1,1032,0,-1545
1788,20.639583,0,0,1,1033,0,-1537
1789,20.651244,1,1,1,1030,-3,-1543
1790,20.66295,0,0,1,1036,-3,-1543
1791,20.674647,1,0,1,1033,2,-1547
1792,20.686266,1,0,1,1031,0,-1540
1793,20.69782,0,0,1,1030,-3,-1544
1794,20.7094,1,1,1,1032,3,-1547
1795,20.720947,1,0,2,1035,-1,-1541
1796,20.732497,0,0,1,1032,1,-1548
1797,20.74405,0,0,1,1031,0,-1548
1798,20.755614,0,-1,0,1032,0,-1541
1799,20.767165,0,0,0,1032,0,-1542
1800,20.778766,0,-1,1,1030,-2,-1542
1801,20.790442,0,0,1,1034,0,-1543
1802,20.802128,0,-1,1,1032,2,-1543
1803,20.813804,0,0,1,1033,-3,-1542
1804,20.825445,1,0,1,1031,0,-1543
1805,20.837094,0,0,1,1034,1,-1548
1806,20.848771,0,0,2,1034,-2,-1541
1807,20.860426,0,-1,2,1031,1,-1541
1808,20.87209,1,0,2,1034,0,-1541
1809,20.883794,1,0,1,1034,1,-1549
1810,20.895431,1,0,1,1030,-2,-1545
1811,20.907091,0,0,1,1031,0,-1545
1812,20.918782,-1,0,2,1032,5,-1546
1813,20.9304,0,0,1,1033,0,-1533
1814,20.942056,0,-1,1,1033,0,-1544
1815,20.953713,0,0,0,1032,1,-1542
1816,20.965373,1,0,1,1036,0,-1546
1817,20.977017,0,0,1,1029,-1,-1542
1818,20.988686,1,-1,1,1033,0,-1542
1819,21.00034,0,-1,2,1030,0,-1546
1820,21.012051,1,0,0,1037,-2,-1541
1821,21.023697,0,0,0,1030,0,-1543
1822,21.035396,1,0,1,1038,0,-1541
1823,21.047078,1,0,1,1034,-3,-1542
1824,21.058735,1,0,1,1036,1,-1538
1825,21.070409,1,-1,1,1030,0,-1542
1826,21.082102,0,0,1,1039,-2,-1546
1827,21.093766,0,1,1,1032,-2,-1545
1828,21.105321,0,0,1,1031,-1,-1541
1829,21.11688,0,1,0,1034,0,-1542
1830,21.128493,1,1,1,1029,5,-1550
1831,21.140054,1,0,1,1038,0,-1547
1832,21.151624,0,1,1,1029,2,-1541
1833,21.163171,1,0,2,1031,0,-1544
1834,21.174741,0,0,1,1036,-1,-1547
1835,21.186312,0,0,1,1033,1,-1548
1836,21.197934,0,0,0,1030,-1,-1540
1837,21.209593,0,0,1,1031,0,-1541
1838,21.221273,1,0,1,1032,1,-1546
1839,21.232935,1,1,2,1034,4,-1549
1840,21.24459,0,0,1,1034,-4,-1540
1841,21.256262,0,0,1,1033,0,-1545
1842,21.267925,0,1,1,1032,0,-1537
1843,21.279579,0,0,1,1035,-4,-1542
1844,21.291252,1,0,1,1032,0,-1544
1845,21.302923,1,0,1,1032,0,-1544
1846,21.314508,0,-1,1,1034,-2,-1548
1847,21.326059,0,0,0,1032,0,-1545
1848,21.337623,0,0,1,1033,-1,-1540
1849,21.349173,0,0,1,1034,-2,-1548
1850,21.360721,1,0,1,1032,2,-1550
1851,21.372272,1,0,1,1032,-2,-1537
1852,21.383852,0,1,1,1036,0,-1539
1853,21.395431,0,0,1,1032,-1,-1544
1854,21.407208,0,0,1,1030,-2,-1541
1855,21.418913,0,1,1,1032,-1,-1550
1856,21.430619,1,0,2,1033,0,-1545
1857,21.442334,1,-1,1,1031,1,-1548
1858,21.453986,1,0,1,1035,-2,-1541
1859,21.465656,0,0,1,1036,0,-1547
1860,21.47731,0,0,1,1034,0,-1546
1861,21.488955,1,1,1,1034,1,-1546
1862,21.500622,0,0,1,1033,-1,-1540
1863,21.512322,0,-1,1,1029,0,-1547
1864,21.524044,0,0,2,1035,1,-1548
1865,21.535693,0,1,1,1027,1,-1542
1866,21.54737,0,0,1,1035,0,-1548
1867,21.559052,0,-1,1,1028,2,-1546
1868,21.570711,0,-1,1,1029,-2,-1541
1869,21.582414,-1,0,1,1030,0,-1549
1870,21.594092,1,0,2,1032,-1,-1544
1871,21.60578,0,-1,2,1032,0,-1543
1872,21.617354,0,0,1,1033,0,-1547
1873,21.628898,0,0,1,1033,-1,-1547
1874,21.640445,0,0,1,1031,3,-1546
1875,21.651997,0,0,1,1032,0,-1545
1876,21.663601,1,0,1,1032,0,-1547
1877,21.675158,0,0,1,1033,0,-1543
1878,21.686738,0,-1,1,1032,3,-1546
1879,21.69831,0,0,0,1034,0,-1550
1880,21.709921,1,0,1,1032,0,-1543
1881,21.721584,1,0,1,1035,1,-1544
1882,21.733233,1,-1,1,1031,-4,-1543
1883,21.744912,1,1,1,1029,2,-1541
1884,21.75657,0,0,2,1026,-4,-1541
1885,21.768215,0,0,2,1029,-1,-1543
1886,21.779894,1,0,2,1033,-2,-1539
1887,21.791561,1,0,1,1032,0,-1547
1888,21.803256,1,-1,1,1033,-1,-1546
1889,21.81492,0,-1,1,1034,-1,-1539
1890,21.826493,1,0,1,1032,-2,-1543
1891,21.838083,0,0,1,1031,-2,-1544
1892,21.849635,0,0,1,1029,0,-1542
1893,21.861214,0,0,1,1033,-3,-1549
1894,21.872756,0,0,1,1031,0,-1548
1895,21.884302,0,0,1,1038,0,-1552
1896,21.895851,0,0,1,1032,-1,-1549
1897,21.907409,1,0,1,1033,2,-1551
1898,21.919047,1,1,1,1030,-1,-1550
1899,21.930706,0,1,1,1032,3,-1544
1900,21.9424,1,0,1,1030,0,-1548
1901,21.95405,0,1,1,1030,-3,-1547
1902,21.9657,0,1,1,1031,-3,-1540
1903,21.977372,0,0,1,1030,0,-1548
1904,21.989022,0,0,1,1035,0,-1545
1905,22.000672,0,0,1,1030,1,-1541
1906,22.012333,0,0,2,1034,-1,-1549
1907,22.024038,0,0,1,1034,0,-1544
1908,22.035614,1,1,1,1029,-3,-1541
1909,22.047168,0,0,1,1029,0,-1546
1910,22.058742,0,-1,1,1034,0,-1540
1911,22.070316,0,0,1,1032,-1,-1545
1912,22.081876,0,0,1,1034,-5,-1546
1913,22.093479,1,0,1,1030,0,-1547
1914,22.105031,1,0,2,1037,0,-1540
1915,22.116604,0,0,1,1034,1,-1546
1916,22.128227,0,1,1,1038,-3,-1541
1917,22.139888,1,0,1,1030,-1,-1547
1918,22.151612,0,0,0,1033,1,-1542
1919,22.1633,0,0,1,1031,1,-1547
1920,22.174916,0,0,1,1029,1,-1544
1921,22.18659,-1,0,1,1029,1,-1544
1922,22.198287,0,0,1,1033,0,-1549
1923,22.209928,0,-1,1,1026,3,-1545
1924,22.221621,0,0,2,1032,0,-1532
1925,22.233285,0,0,1,1032,0,-1544
1926,22.244856,0,0,1,1033,0,-1539
1927,22.256406,0,0,1,1034,1,-1540
1928,22.267954,0,0,2,1033,0,-1540
1929,22.279507,0,0,1,1033,2,-1542
1930,22.291095,0,0,1,1035,0,-1547
1931,22.302616,1,0,1,1031,1,-1544
1932,22.314137,0,0,1,1033,-4,-1543
1933,22.325709,0,1,1,1027,-1,-1547
1934,22.337357,0,0,1,1030,0,-1544
1935,22.349018,1,0,1,1034,1,-1543
1936,22.360673,1,0,1,1034,0,-1546
1937,22.372335,0,1,0,1035,2,-1547
1938,22.383999,1,1,1,1035,1,-1554
1939,22.39572,0,0,0,1034,-2,-1544
1940,22.40747,0,0,2,1030,-1,-1551
1941,22.419167,0,0,1,1032,-2,-1547
1942,22.430916,0,0,1,1032,-2,-1544
1943,22.442586,0,1,1,1037,-1,-1542
1944,22.454288,0,-1,1,1035,-1,-1541
1945,22.465936,1,1,1,1033,-2,-1540
1946,22.477607,1,0,1,1031,2,-1541
1947,22.489272,0,-1,1,1033,1,-1549
1948,22.500918,0,0,1,1027,-1,-1545
1949,22.512574,1,0,1,1034,-2,-1544
1950,22.52428,1,0,1,1032,0,-1548
1951,22.535942,1,0,0,1034,-1,-1543
1952,22.547611,0,0,1,1033,1,-1550
1953,22.559225,0,0,1,1032,-2,-1547
1954,22.570792,0,0,1,1032,-2,-1547
1955,22.58238,0,0,1,1032,1,-1536
1956,22.593964,0,0,1,1030,-1,-1544
1957,22.605542,0,0,0,1033,1,-1548
1958,22.617098,0,0,0,1032,0,-1543
1959,22.628676,1,0,1,1031,2,-1550
1960,22.640243,0,0,0,1030,0,-1548
1961,22.651904,1,0,1,1031,-3,-1545
1962,22.663618,0,0,1,1038,-3,-1548
1963,22.675305,0,0,1,1033,-1,-1549
1964,22.686989,0,0,1,1034,1,-1542
1965,22.698661,0,-1,1,1034,-2,-1542
1966,22.710326,1,-1,1,1031,2,-1544
1967,22.722011,1,0,1,1033,0,-1547
1968,22.733659,0,0,1,1031,-2,-1543
1969,22.745347,1,0,0,1035,1,-1544
1970,22.757023,0,0,1,1032,1,-1536
1971,22.768586,0,1,1,1039,-1,-1543
1972,22.780141,0,1,1,1035,-1,-1546
1973,22.791705,0,0,2,1033,-1,-1543
1974,22.803288,0,0,1,1034,4,-1549
1975,22.814854,0,0,1,1031,0,-1543
1976,22.826445,0,0,1,1031,0,-1550
1977,22.837987,0,0,1,1034,3,-1542
1978,22.849537,0,0,1,1031,-5,-1546
1979,22.86116,0,1,1,1029,2,-1542
1980,22.872808,-1,0,2,1028,-2,-1549
1981,22.884461,1,-1,1,1030,3,-1546
1982,22.896158,1,0,1,1035,-1,-1539
1983,22.907803,0,0,1,1032,-1,-1539
1984,22.919432,0,0,1,1034,3,-1544
1985,22.931126,0,0,1,1035,0,-1544
1986,22.942798,0,0,1,1030,-1,-1543
1987,22.954465,1,-1,2,1035,0,-1546
1988,22.966137,0,0,1,1035,0,-1548
1989,22.977697,0,0,1,1032,-2,-1537
1990,22.989259,0,0,1,1029,-1,-1538
1991,23.000811,0,0,1,1031,2,-1547
1992,23.012371,0,0,1,1030,3,-1546
1993,23.023957,0,-1,1,1034,0,-1549
1994,23.035534,0,0,1,1034,2,-1544
1995,23.0471,0,0,1,1028,-1,-1543
1996,23.058714,0,0,1,1031,-2,-1551
1997,23.070422,0,0,1,1032,0,-1551
1998,23.082083,1,0,1,1036,0,-1545
1999,23.093744,1,-1,0,1035,0,-1544
