sample,t_s,gyro_x,gyro_y,gyro_z,accel_x,accel_y,accel_z
0,1e-05,2,9,10,12,33,-1018
1,0.01136,3,7,10,15,27,-1023
2,0.02256,2,5,9,10,29,-1019
3,0.033751,2,5,9,12,29,-1019
4,0.044945,2,6,9,12,32,-1025
5,0.056109,3,6,9,13,29,-1021
6,0.067294,2,6,8,10,30,-1024
7,0.078478,1,6,10,12,28,-1021
8,0.089659,2,6,9,11,33,-1024
9,0.100841,2,6,9,15,27,-1017
10,0.112031,3,6,8,11,28,-1023
11,0.123181,2,6,9,6,27,-1019
12,0.134362,3,7,10,9,25,-1016
13,0.145547,3,6,9,9,32,-1018
14,0.156731,2,8,9,9,29,-1027
15,0.16792,2,7,9,13,30,-1016
16,0.179104,3,6,9,12,32,-1022
17,0.190286,2,7,9,11,31,-1022
18,0.201467,2,7,10,11,30,-1019
19,0.212649,2,7,9,12,26,-1014
20,0.223847,2,6,9,12,32,-1028
21,0.235025,3,7,10,14,28,-1027
22,0.246207,3,7,9,8,31,-1018
23,0.257404,3,7,9,9,30,-1024
24,0.268585,3,7,9,13,33,-1025
25,0.279737,2,7,9,10,33,-1025
26,0.290923,2,6,10,10,29,-1021
27,0.302106,2,7,10,11,29,-1019
28,0.313287,2,8,9,8,34,-1017
29,0.324467,2,7,9,11,31,-1028
30,0.335658,2,6,9,6,30,-1022
31,0.346838,3,7,10,11,29,-1020
32,0.358021,2,7,9,8,28,-1020
33,0.3692,2,6,9,11,32,-1021
34,0.380383,3,7,9,7,32,-1019
35,0.391553,3,6,10,11,30,-1023
36,0.402763,3,5,9,10,29,-1021
37,0.413946,2,7,9,8,28,-1031
38,0.425127,2,6,10,8,31,-1021
39,0.436309,2,6,9,6,34,-1019
40,0.447495,2,4,8,11,34,-1025
41,0.458679,1,5,8,13,29,-1020
42,0.469859,1,4,8,11,34,-1021
43,0.481043,2,6,8,10,32,-1018
44,0.492233,2,5,9,10,27,-1023
45,0.503421,2,4,9,6,28,-1021
46,0.514606,2,4,8,11,32,-1021
47,0.52579,2,5,9,12,35,-1020
48,0.536971,2,5,9,7,31,-1024
49,0.548155,2,6,9,8,32,-1022
50,0.559336,2,6,10,9,31,-1024
51,0.570517,2,6,11,11,32,-1024
52,0.581698,3,7,10,10,30,-1025
53,0.592879,2,7,9,12,32,-1024
54,0.604064,2,8,9,8,33,-1023
55,0.615249,3,7,9,7,29,-1021
56,0.62643,3,7,8,11,29,-1020
57,0.637613,2,5,9,14,32,-1021
58,0.648798,2,6,9,13,34,-1023
59,0.659988,2,6,8,9,29,-1026
60,0.671182,3,8,9,13,29,-1014
61,0.682368,3,7,9,8,28,-1025
62,0.693548,3,6,8,13,32,-1019
63,0.704732,2,6,8,9,27,-1022
64,0.715921,2,6,9,10,33,-1019
65,0.727107,2,7,8,12,33,-1019
66,0.73829,2,7,9,13,29,-1022
67,0.749472,2,7,9,9,26,-1026
68,0.760668,3,6,9,7,31,-1022
69,0.771858,3,7,10,9,30,-1019
70,0.78304,2,6,9,9,29,-1023
71,0.794224,2,6,9,9,35,-1022
72,0.805408,2,6,9,12,31,-1019
73,0.816638,3,7,9,12,29,-1024
74,0.827957,2,5,10,7,29,-1020
75,0.839156,3,6,10,14,31,-1019
76,0.850347,3,6,9,9,33,-1022
77,0.861545,2,6,9,11,31,-1024
78,0.872731,2,7,9,12,29,-1019
79,0.883929,3,6,9,6,31,-1024
80,0.895112,3,7,9,9,32,-1027
81,0.906302,2,7,9,10,35,-1028
82,0.917489,3,6,8,10,35,-1023
83,0.928673,2,7,10,8,31,-1021
84,0.939864,3,6,9,10,32,-1022
85,0.951047,2,5,10,8,29,-1023
86,0.962231,2,6,9,8,28,-1025
87,0.97344,2,7,10,10,31,-1024
88,0.984622,3,6,8,12,29,-1026
89,0.995806,2,7,8,12,31,-1023
90,1.006986,3,5,9,11,31,-1023
91,1.018168,1,5,9,11,32,-1017
92,1.029349,2,6,9,9,30,-1020
93,1.040538,2,5,9,12,28,-1022
94,1.051738,2,6,9,7,29,-1021
95,1.062921,3,7,8,10,31,-1022
96,1.074104,3,6,9,11,35,-1025
97,1.085289,2,7,9,10,30,-1016
98,1.096476,2,6,9,11,30,-1030
99,1.107663,2,7,8,12,32,-1021
100,1.118858,3,6,8,7,33,-1022
101,1.130047,2,6,9,11,31,-1025
102,1.14123,3,6,9,12,26,-1017
103,1.152416,3,6,9,9,30,-1020
104,1.163603,3,6,8,12,32,-1024
105,1.174785,2,7,9,10,34,-1026
106,1.185976,2,6,9,10,30,-1016
107,1.197158,2,7,9,10,32,-1026
108,1.208342,2,8,10,11,30,-1020
109,1.219544,2,7,9,12,31,-1024
110,1.230723,2,6,9,10,29,-1021
111,1.241907,2,6,9,12,32,-1023
112,1.253093,2,5,9,11,33,-1020
113,1.264285,2,5,9,13,27,-1022
114,1.275477,2,5,9,10,34,-1022
115,1.286657,2,5,9,10,31,-1022
116,1.297844,2,6,9,12,32,-1025
117,1.30903,1,5,9,12,34,-1025
118,1.320218,1,5,8,11,28,-1023
119,1.331367,2,5,8,9,32,-1020
120,1.342547,2,5,8,10,31,-1018
121,1.353732,2,5,9,11,31,-1023
122,1.364914,3,4,9,11,31,-1026
123,1.376104,2,5,9,10,30,-1023
124,1.387295,2,5,9,10,29,-1018
125,1.398478,2,6,9,12,30,-1026
126,1.409661,2,4,8,12,32,-1020
127,1.420854,3,6,8,8,28,-1021
128,1.432043,2,7,9,12,32,-1028
129,1.443228,2,7,8,8,31,-1023
130,1.454409,3,6,9,9,34,-1019
131,1.46559,3,6,9,11,28,-1023
132,1.476784,2,5,9,13,33,-1022
133,1.48797,2,6,9,12,34,-1023
134,1.49915,2,6,9,12,36,-1020
135,1.510329,2,6,9,7,32,-1023
136,1.521512,2,5,8,11,27,-1019
137,1.532698,2,5,9,12,30,-1021
138,1.543883,2,5,9,9,31,-1025
139,1.555066,2,5,8,9,29,-1023
140,1.566248,2,6,9,11,28,-1015
141,1.577431,2,6,10,11,29,-1022
142,1.588615,2,6,10,9,33,-1022
143,1.599801,2,6,9,12,31,-1027
144,1.610985,2,6,8,12,33,-1023
145,1.622164,2,7,9,12,30,-1022
146,1.633347,2,7,9,10,25,-1026
147,1.644532,3,8,9,9,29,-1022
148,1.655729,2,7,9,13,32,-1021
149,1.666914,2,6,8,12,31,-1025
150,1.67811,2,5,9,12,27,-1020
151,1.689291,2,5,8,12,32,-1022
152,1.700476,2,5,8,8,30,-1026
153,1.711667,2,5,8,8,29,-1024
154,1.72285,2,6,9,11,30,-1020
155,1.734035,2,5,9,9,30,-1022
156,1.745215,1,5,10,12,32,-1018
157,1.756395,2,5,9,9,32,-1022
158,1.76755,2,6,9,11,26,-1021
159,1.778733,2,7,9,11,30,-1015
160,1.789916,2,5,10,9,31,-1025
161,1.801114,2,6,10,9,32,-1022
162,1.812293,2,5,9,11,33,-1029
163,1.823479,3,6,9,12,30,-1025
164,1.83468,2,6,9,8,30,-1025
165,1.845865,2,7,9,11,31,-1019
166,1.857049,2,7,7,9,33,-1016
167,1.868241,2,6,9,10,27,-1020
168,1.879428,2,7,9,9,29,-1025
169,1.890614,2,7,9,11,31,-1022
170,1.901798,2,7,9,11,29,-1021
171,1.912984,2,7,9,9,28,-1019
172,1.924173,2,6,8,11,29,-1026
173,1.935367,2,7,9,13,32,-1022
174,1.946557,2,6,9,14,30,-1020
175,1.957738,3,5,8,9,27,-1019
176,1.968926,2,5,9,9,33,-1028
177,1.98011,2,6,9,9,29,-1021
178,1.9913,2,6,9,10,28,-1019
179,2.002487,2,5,9,11,33,-1020
180,2.013673,2,5,9,10,32,-1021
181,2.024857,2,5,9,11,31,-1022
182,2.036053,2,6,9,7,23,-1029
183,2.047238,3,6,9,13,24,-1018
184,2.058427,3,8,9,12,29,-1023
185,2.069612,3,7,8,7,33,-1017
186,2.080799,3,8,9,10,30,-1020
187,2.091986,3,7,9,11,32,-1016
188,2.103179,3,8,9,9,30,-1023
189,2.114359,3,7,9,6,28,-1026
190,2.125545,3,8,8,12,35,-1018
191,2.136726,2,7,9,13,27,-1022
192,2.147918,3,7,9,7,31,-1018
193,2.159103,2,7,10,12,32,-1020
194,2.170289,3,7,10,9,29,-1023
195,2.181473,3,6,8,7,32,-1024
196,2.192669,3,7,9,12,29,-1025
197,2.203855,2,7,9,9,35,-1020
198,2.21504,1,6,9,16,27,-1023
199,2.226225,2,5,9,7,26,-1016
200,2.237408,2,5,9,9,29,-1018
201,2.248593,3,6,9,9,30,-1016
202,2.259736,2,6,10,10,34,-1028
203,2.270917,2,6,9,14,34,-1022
204,2.282101,2,7,9,5,29,-1021
205,2.293281,2,7,9,7,30,-1020
206,2.304467,3,7,9,11,31,-1027
207,2.315665,3,6,9,12,33,-1025
208,2.326846,3,7,10,8,31,-1015
209,2.338029,3,7,10,12,27,-1026
210,2.349216,3,7,9,9,30,-1021
211,2.360405,2,6,9,14,26,-1022
212,2.371552,2,6,9,7,30,-1016
213,2.382735,3,6,9,8,32,-1025
214,2.393928,2,6,10,11,30,-1024
215,2.405112,2,7,9,8,30,-1019
216,2.416296,2,6,9,8,32,-1022
217,2.42748,2,7,10,8,30,-1017
218,2.438668,3,6,10,13,29,-1020
219,2.44985,2,7,9,13,34,-1021
220,2.46103,2,7,9,8,31,-1023
221,2.472219,2,6,9,7,29,-1021
222,2.483367,2,6,9,9,29,-1019
223,2.494546,3,7,9,11,31,-1021
224,2.505726,2,7,8,7,32,-1025
225,2.516904,2,7,8,7,29,-1019
226,2.528099,3,7,9,12,27,-1022
227,2.539292,2,7,9,9,35,-1017
228,2.550485,3,7,9,11,31,-1021
229,2.561667,2,6,9,7,32,-1021
230,2.572849,2,6,9,6,32,-1022
231,2.584035,3,6,9,15,31,-1018
232,2.595181,2,7,8,12,31,-1020
233,2.606364,2,7,9,11,30,-1023
234,2.617547,2,7,9,10,31,-1030
235,2.628728,2,6,9,10,30,-1022
236,2.639918,2,6,9,9,28,-1025
237,2.651101,3,6,8,9,27,-1025
238,2.66228,3,5,9,10,28,-1025
239,2.673464,2,6,9,16,32,-1025
240,2.684649,2,5,9,7,34,-1027
241,2.695842,3,6,9,8,28,-1013
242,2.707023,2,6,8,9,32,-1026
243,2.718207,3,5,8,11,33,-1019
244,2.72939,2,6,9,11,31,-1014
245,2.740572,3,5,9,14,27,-1022
246,2.751736,3,7,9,11,31,-1018
247,2.762914,2,7,8,14,26,-1018
248,2.774096,3,6,8,10,34,-1020
249,2.785277,2,6,9,12,29,-1025
250,2.796457,2,5,10,13,31,-1018
251,2.807644,2,5,9,13,30,-1021
252,2.818842,3,6,8,8,29,-1026
253,2.83003,4,7,8,11,30,-1014
254,2.84121,2,6,9,11,33,-1021
255,2.852396,2,6,9,11,34,-1018
256,2.863552,3,7,9,12,31,-1023
257,2.874734,3,7,8,12,30,-1020
258,2.885914,2,6,9,12,33,-1022
259,2.89711,2,6,9,13,32,-1022
260,2.908311,3,7,8,9,32,-1021
261,2.919501,2,5,8,11,31,-1023
262,2.930687,2,5,9,9,32,-1019
263,2.94187,2,5,9,13,33,-1017
264,2.953055,3,6,9,12,31,-1019
265,2.964238,2,5,9,8,30,-1019
266,2.975424,2,5,9,8,33,-1014
267,2.986605,2,5,9,8,28,-1020
268,2.997785,2,5,9,11,28,-1021
269,3.008968,2,6,9,9,29,-1024
270,3.020153,3,6,9,8,28,-1021
271,3.031359,2,6,10,10,30,-1023
272,3.042539,2,6,10,9,30,-1019
273,3.053719,2,5,9,9,29,-1021
274,3.064895,2,6,9,9,31,-1021
275,3.076079,2,7,8,5,33,-1019
276,3.087263,2,8,9,6,32,-1027
277,3.098444,3,6,10,11,31,-1022
278,3.109628,3,6,9,16,27,-1019
279,3.120811,3,6,9,10,31,-1020
280,3.132006,3,7,8,10,30,-1028
281,3.143185,2,7,8,8,32,-1030
282,3.154376,3,8,9,10,29,-1018
283,3.165559,3,7,9,8,32,-1017
284,3.176747,3,6,9,14,30,-1020
285,3.187922,2,6,9,13,34,-1021
286,3.199106,3,5,8,15,30,-1023
287,3.210288,2,5,9,10,30,-1022
288,3.221473,2,5,9,8,30,-1018
289,3.232654,2,4,9,9,29,-1023
290,3.243843,1,4,9,8,31,-1020
291,3.255048,2,5,10,8,33,-1022
292,3.266231,2,6,9,7,32,-1030
293,3.277417,3,7,9,14,30,-1016
294,3.288599,3,7,8,12,29,-1023
295,3.299787,3,7,8,13,30,-1022
296,3.310969,2,6,9,10,28,-1022
297,3.322151,2,6,9,9,33,-1024
298,3.333331,2,6,9,13,31,-1017
299,3.344511,2,5,9,12,31,-1018
300,3.355695,2,6,9,10,29,-1027
301,3.366876,2,5,9,7,30,-1023
302,3.378059,2,5,8,13,29,-1021
303,3.38924,2,6,10,11,32,-1022
304,3.400424,1,6,9,12,32,-1020
305,3.411608,1,6,9,12,31,-1024
306,3.422792,2,7,10,11,32,-1023
307,3.433972,2,6,10,9,29,-1025
308,3.445157,3,7,9,12,27,-1019
309,3.456343,3,7,8,11,35,-1022
310,3.467549,1,6,9,9,31,-1025
311,3.478736,2,6,9,12,32,-1026
312,3.48993,2,5,10,8,26,-1021
313,3.501115,3,7,8,8,28,-1022
314,3.512312,2,6,9,12,30,-1019
315,3.523497,3,7,9,10,31,-1021
316,3.534681,2,7,9,11,28,-1024
317,3.54587,3,8,9,10,34,-1024
318,3.557052,2,7,9,11,31,-1019
319,3.568239,3,7,9,13,31,-1025
320,3.579425,3,7,9,13,32,-1019
321,3.590608,2,6,9,9,29,-1025
322,3.601799,3,8,8,13,28,-1026
323,3.612989,3,7,9,8,28,-1018
324,3.624179,2,5,9,11,30,-1023
325,3.63537,3,6,9,10,28,-1021
326,3.646555,3,5,9,17,31,-1024
327,3.65774,1,5,8,8,26,-1019
328,3.668923,2,5,9,16,28,-1023
329,3.680107,2,6,10,9,34,-1016
330,3.691294,2,6,9,12,32,-1021
331,3.702475,2,5,8,9,27,-1027
332,3.713661,2,4,9,11,31,-1020
333,3.724849,2,5,9,10,31,-1027
334,3.736037,2,5,9,10,31,-1020
335,3.747187,2,5,9,7,30,-1019
336,3.758373,2,6,9,10,31,-1025
337,3.769555,2,5,9,9,25,-1023
338,3.780734,2,6,9,9,34,-1031
339,3.791919,2,6,9,14,28,-1023
340,3.8031,2,6,9,10,27,-1016
341,3.814281,3,6,10,11,28,-1029
342,3.825465,2,7,9,10,32,-1026
343,3.83665,3,8,9,11,28,-1026
344,3.847845,3,6,9,7,30,-1023
345,3.859028,3,5,9,7,28,-1019
346,3.870214,3,7,9,11,30,-1010
347,3.881408,2,5,10,13,27,-1020
348,3.892591,2,5,9,9,26,-1021
349,3.903743,2,5,9,10,28,-1023
350,3.914925,2,5,9,8,29,-1020
351,3.926106,1,5,9,13,27,-1023
352,3.937287,1,6,9,9,31,-1024
353,3.948476,2,6,9,7,30,-1019
354,3.959666,2,6,10,9,32,-1021
355,3.970864,3,5,9,10,31,-1023
356,3.982055,2,8,9,8,32,-1021
357,3.993234,3,6,8,10,29,-1021
358,4.004416,3,6,8,13,29,-1015
359,4.0156,3,6,9,11,31,-1026
360,4.026782,3,6,9,11,26,-1024
361,4.037967,2,5,8,7,32,-1022
362,4.04915,3,5,9,12,28,-1016
363,4.060331,2,6,9,14,28,-1016
364,4.07152,2,6,9,12,32,-1024
365,4.082709,2,6,10,12,29,-1020
366,4.093889,2,5,9,10,31,-1022
367,4.105072,2,6,9,11,29,-1017
368,4.116261,3,5,9,12,31,-1020
369,4.127447,3,5,8,9,28,-1021
370,4.138632,2,5,9,9,27,-1021
371,4.149815,2,5,10,11,29,-1020
372,4.160998,2,6,9,13,35,-1026
373,4.172181,2,6,9,12,26,-1025
374,4.183365,2,6,8,9,26,-1019
375,4.194545,2,7,9,16,32,-1016
376,4.205724,2,8,9,8,29,-1016
377,4.216906,2,7,8,12,29,-1023
378,4.228363,2,6,8,8,29,-1020
379,4.239937,3,6,9,9,34,-1031
380,4.251458,2,6,10,10,33,-1022
381,4.263016,2,6,9,12,31,-1022
382,4.274565,2,6,9,6,29,-1022
383,4.286103,2,6,9,12,31,-1024
384,4.297649,3,6,9,11,29,-1026
385,4.309199,2,6,9,8,27,-1025
386,4.320778,2,6,9,8,34,-1030
387,4.332447,2,6,9,12,31,-1018
388,4.344126,2,7,10,9,31,-1031
389,4.3558,2,6,9,12,27,-1024
390,4.367483,3,5,10,11,30,-1020
391,4.379135,2,7,9,11,28,-1018
392,4.390805,2,6,9,13,34,-1022
393,4.402456,2,6,9,5,28,-1024
394,4.4141,2,6,9,11,35,-1026
395,4.42576,3,5,9,10,29,-1023
396,4.437404,2,7,9,7,31,-1023
397,4.448961,2,6,9,14,32,-1022
398,4.460555,3,6,9,13,29,-1023
399,4.472164,3,6,9,13,30,-1019
400,4.483746,2,6,8,9,33,-1016
401,4.495302,2,5,9,11,27,-1017
402,4.506878,2,6,10,8,29,-1022
403,4.518425,2,6,9,11,28,-1026
404,4.52998,2,6,9,12,30,-1029
405,4.541603,2,6,9,10,30,-1024
406,4.553257,2,6,8,15,30,-1015
407,4.564921,2,6,9,9,31,-1021
408,4.576588,3,6,8,6,29,-1026
409,4.588253,3,6,10,12,30,-1019
410,4.599926,3,6,9,7,31,-1025
411,4.61161,3,5,10,6,30,-1026
412,4.623276,2,7,9,12,30,-1016
413,4.634941,2,6,9,9,31,-1024
414,4.64652,2,6,9,8,28,-1021
415,4.658072,2,6,9,16,29,-1024
416,4.66964,2,5,9,9,28,-1025
417,4.681181,2,6,10,14,32,-1015
418,4.692725,2,5,8,10,32,-1019
419,4.704321,2,5,9,8,32,-1023
420,4.715872,3,6,9,12,32,-1019
421,4.727446,2,6,9,12,29,-1025
422,4.739023,2,7,8,12,26,-1030
423,4.750657,2,7,9,10,27,-1025
424,4.762321,3,6,8,11,28,-1022
425,4.773966,2,6,9,9,30,-1023
426,4.78561,2,6,9,13,26,-1021
427,4.797249,2,6,9,10,30,-1019
428,4.808896,2,6,9,10,31,-1018
429,4.820568,3,6,9,6,29,-1023
430,4.832241,2,6,9,12,31,-1024
431,4.843914,2,6,9,10,33,-1023
432,4.855586,1,6,9,8,32,-1033
433,4.867146,2,5,9,14,32,-1021
434,4.878689,2,6,10,12,33,-1020
435,4.890248,3,6,9,13,29,-1026
436,4.901789,2,6,9,9,32,-1026
437,4.913325,2,6,10,9,34,-1020
438,4.92487,2,6,8,12,33,-1017
439,4.936425,3,6,9,12,35,-1027
440,4.948018,2,6,9,9,30,-1020
441,4.959706,2,6,9,14,30,-1021
442,4.971379,3,5,9,11,26,-1021
443,4.983054,2,6,9,13,31,-1024
444,4.994706,1,6,9,11,33,-1022
445,5.006358,1,6,9,14,29,-1022
446,5.018028,2,6,10,8,33,-1019
447,5.029685,3,6,8,14,29,-1027
448,5.041344,3,6,8,10,32,-1022
449,5.053041,2,5,9,15,28,-1019
450,5.064696,2,6,9,5,29,-1031
451,5.076405,2,6,9,10,32,-1024
452,5.088068,1,6,8,9,34,-1022
453,5.099743,2,6,8,7,32,-1024
454,5.111391,2,6,10,13,32,-1019
455,5.123058,3,6,9,12,28,-1017
456,5.13471,2,6,9,13,30,-1027
457,5.146387,2,6,9,10,31,-1022
458,5.158066,2,7,9,8,29,-1023
459,5.169678,2,6,9,4,29,-1022
460,5.181249,3,6,9,8,17,-1019
461,5.192791,2,6,9,10,29,-1022
462,5.204377,2,5,9,12,30,-1023
463,5.215937,2,6,9,8,34,-1023
464,5.22746,2,6,8,11,34,-1022
465,5.239011,2,6,8,9,29,-1027
466,5.250571,2,6,9,10,30,-1022
467,5.262219,2,6,8,9,34,-1021
468,5.273898,2,6,9,7,27,-1021
469,5.285551,2,6,9,12,30,-1017
470,5.297202,2,6,9,9,30,-1022
471,5.308852,1,6,8,11,30,-1021
472,5.32054,2,7,9,9,28,-1021
473,5.332187,3,6,9,10,33,-1028
474,5.343868,3,6,9,9,31,-1018
475,5.355558,2,7,9,11,33,-1021
476,5.367223,2,6,9,6,29,-1023
477,5.378872,2,6,8,12,30,-1025
478,5.390542,2,6,9,9,31,-1017
479,5.402186,2,6,9,9,29,-1021
480,5.413834,2,6,9,15,34,-1019
481,5.425504,3,6,10,9,32,-1024
482,5.437164,2,6,9,7,29,-1027
483,5.448843,2,6,9,7,32,-1023
484,5.460566,2,6,9,12,29,-1022
485,5.472253,2,5,9,9,30,-1022
486,5.483909,2,6,9,10,31,-1022
487,5.495561,2,6,9,9,28,-1022
488,5.507288,3,6,9,12,32,-1021
489,5.518951,3,7,10,9,27,-1022
490,5.5306,3,7,9,12,28,-1022
491,5.542272,3,6,9,7,30,-1020
492,5.553917,2,6,9,12,31,-1016
493,5.565578,2,6,9,14,31,-1028
494,5.577257,2,5,8,15,31,-1016
495,5.588808,2,6,8,10,35,-1017
496,5.600362,2,6,9,8,31,-1018
497,5.611951,2,6,9,11,35,-1024
498,5.623509,3,6,9,9,26,-1023
499,5.635094,2,6,9,9,32,-1015
500,5.646637,2,6,8,13,28,-1018
501,5.658178,2,6,9,9,31,-1022
502,5.669781,2,6,9,10,29,-1026
503,5.681567,2,6,9,14,25,-1023
504,5.693252,3,6,9,7,26,-1032
505,5.704903,2,7,9,10,31,-1023
506,5.716563,2,6,9,7,29,-1021
507,5.72827,2,6,9,8,31,-1022
508,5.739923,2,5,9,14,31,-1019
509,5.751601,3,6,9,12,32,-1022
510,5.763276,2,6,9,10,32,-1022
511,5.774935,2,6,9,12,29,-1016
512,5.786612,2,6,9,10,29,-1023
513,5.798203,3,7,9,14,31,-1022
514,5.809752,2,6,10,9,30,-1027
515,5.821332,2,6,9,9,32,-1022
516,5.832881,2,6,9,13,28,-1019
517,5.844449,2,6,9,12,31,-1020
518,5.856002,2,6,9,13,26,-1023
519,5.867591,3,6,9,9,31,-1024
520,5.879145,2,6,9,13,32,-1021
521,5.890781,2,6,9,12,30,-1024
522,5.902422,3,6,9,6,29,-1036
523,5.914066,2,7,9,9,28,-1019
524,5.925739,2,6,9,14,31,-1022
525,5.937396,2,7,8,11,33,-1023
526,5.949067,3,6,8,14,27,-1025
527,5.96077,2,6,9,14,33,-1024
528,5.972418,2,6,10,10,32,-1021
529,5.984082,2,6,10,15,30,-1023
530,5.995759,2,6,9,12,32,-1020
531,6.007349,2,6,9,11,27,-1026
532,6.018893,2,5,8,10,28,-1022
533,6.030448,2,6,8,8,30,-1018
534,6.041994,3,6,9,11,31,-1021
535,6.05354,3,6,10,11,33,-1029
536,6.065083,2,6,10,11,31,-1022
537,6.07665,2,7,9,9,29,-1021
538,6.088191,2,6,9,7,27,-1025
539,6.099812,2,6,8,11,25,-1024
540,6.111476,2,7,9,11,33,-1024
541,6.123129,2,6,8,7,30,-1026
542,6.134785,2,6,9,11,30,-1019
543,6.146437,2,6,8,12,28,-1021
544,6.158083,2,6,8,12,31,-1020
545,6.169761,2,6,9,11,32,-1021
546,6.181429,2,7,9,11,27,-1030
547,6.193092,2,7,9,16,28,-1019
548,6.204795,2,6,9,11,33,-1021
549,6.216358,2,6,9,15,30,-1019
550,6.227925,2,6,9,12,29,-1025
551,6.239458,2,6,9,13,30,-1022
552,6.251,2,6,10,10,28,-1021
553,6.262542,2,6,9,8,31,-1019
554,6.27409,2,6,9,12,32,-1027
555,6.285656,3,6,9,9,32,-1024
556,6.297221,2,6,9,4,32,-1025
557,6.308911,2,6,9,11,30,-1028
558,6.320578,2,7,8,11,34,-1021
559,6.332265,2,6,9,6,30,-1023
560,6.343917,2,7,9,5,30,-1026
561,6.355571,2,6,9,9,36,-1017
562,6.367237,2,6,9,7,27,-1026
563,6.378889,3,7,9,11,29,-1022
564,6.390535,2,6,9,7,29,-1019
565,6.402201,2,7,8,11,32,-1025
566,6.413853,2,5,9,11,30,-1025
567,6.4254,2,6,8,15,30,-1019
568,6.436972,3,7,9,10,33,-1026
569,6.448545,2,6,9,9,33,-1024
570,6.460104,2,5,9,11,31,-1025
571,6.471708,2,5,9,11,32,-1023
572,6.483281,2,6,9,14,30,-1021
573,6.494828,2,6,9,10,30,-1026
574,6.506383,2,6,9,10,30,-1022
575,6.518006,2,5,9,15,33,-1020
576,6.529653,3,6,9,7,31,-1018
577,6.541304,2,6,9,6,35,-1025
578,6.552985,2,6,9,10,30,-1026
579,6.564647,3,6,9,11,34,-1026
580,6.576294,2,5,9,13,31,-1020
581,6.587977,2,6,9,11,27,-1021
582,6.599644,2,6,9,12,29,-1021
583,6.61132,2,6,9,14,32,-1023
584,6.622996,3,5,9,9,28,-1018
585,6.634553,3,6,9,9,32,-1020
586,6.646104,3,6,9,12,28,-1021
587,6.657655,2,6,9,13,34,-1019
588,6.669209,2,6,9,15,29,-1018
589,6.680812,2,6,9,9,31,-1026
590,6.692367,2,7,9,12,30,-1021
591,6.703948,3,5,9,10,29,-1019
592,6.715473,3,6,9,12,31,-1026
593,6.727103,3,5,9,11,32,-1024
594,6.738745,2,6,8,13,31,-1018
595,6.750393,3,5,10,14,30,-1021
596,6.762053,2,5,9,10,30,-1021
597,6.773717,2,6,9,10,32,-1023
598,6.785366,2,6,9,10,30,-1022
599,6.797016,2,6,9,8,29,-1019
600,6.808694,2,6,9,7,28,-1018
601,6.820543,3,6,9,11,30,-1017
602,6.832222,2,6,9,12,29,-1022
603,6.843835,2,6,9,11,32,-1021
604,6.855445,2,6,9,11,30,-1019
605,6.867034,2,6,9,8,33,-1027
606,6.878581,3,6,9,10,29,-1022
607,6.890125,2,6,9,14,32,-1028
608,6.901681,2,6,9,15,30,-1019
609,6.913229,2,6,9,10,30,-1019
610,6.924818,2,7,9,15,30,-1022
611,6.936436,2,7,9,10,31,-1021
612,6.947997,2,6,9,11,28,-1020
613,6.959581,2,6,9,11,31,-1023
614,6.971136,2,6,10,11,28,-1021
615,6.982688,3,6,9,11,29,-1025
616,6.994227,2,6,9,9,32,-1022
617,7.005771,2,6,9,9,28,-1016
618,7.017329,3,6,9,8,29,-1021
619,7.029006,2,5,9,7,31,-1018
620,7.040668,2,5,8,10,32,-1026
621,7.052339,3,6,10,10,29,-1021
622,7.064005,3,6,9,16,29,-1022
623,7.075656,2,6,8,11,29,-1023
624,7.087305,3,7,9,12,31,-1025
625,7.09897,2,6,9,15,31,-1022
626,7.110617,3,6,9,8,32,-1021
627,7.122285,2,6,9,12,30,-1018
628,7.133944,2,5,9,13,29,-1024
629,7.145494,2,5,9,13,30,-1023
630,7.157035,1,7,9,8,33,-1021
631,7.168588,2,6,9,7,28,-1024
632,7.180176,3,7,8,9,32,-1025
633,7.191706,2,6,9,9,31,-1022
634,7.203282,3,6,9,11,31,-1020
635,7.214821,2,6,9,12,24,-1029
636,7.22637,2,6,10,9,29,-1024
637,7.237989,2,7,9,12,28,-1019
638,7.24963,3,6,9,6,30,-1024
639,7.261275,2,6,10,10,30,-1019
640,7.272949,2,6,9,12,30,-1023
641,7.284626,2,5,10,12,35,-1027
642,7.296284,2,6,9,8,27,-1022
643,7.307978,2,7,8,12,33,-1018
644,7.319625,2,6,9,9,30,-1015
645,7.331287,2,5,9,13,32,-1028
646,7.342962,2,6,8,9,29,-1019
647,7.35452,2,6,9,12,30,-1027
648,7.366071,2,6,9,16,29,-1023
649,7.37765,3,5,9,11,31,-1023
650,7.3892,2,6,9,9,30,-1017
651,7.400772,2,6,9,9,29,-1022
652,7.412313,2,6,9,10,32,-1017
653,7.423858,3,6,8,14,33,-1022
654,7.435465,3,6,9,6,31,-1018
655,7.447082,2,6,9,13,29,-1019
656,7.458734,2,7,9,10,28,-1020
657,7.470384,2,7,9,5,32,-1023
658,7.482053,2,6,9,8,30,-1023
659,7.493701,2,6,9,8,30,-1020
660,7.505344,2,7,8,8,26,-1023
661,7.516993,2,6,8,6,32,-1025
662,7.528661,2,5,10,11,32,-1020
663,7.540351,3,6,9,10,29,-1019
664,7.551999,3,6,9,7,30,-1018
665,7.563587,3,6,9,13,28,-1017
666,7.575151,2,5,9,9,28,-1020
667,7.586696,3,6,9,11,27,-1017
668,7.598268,2,5,8,13,31,-1026
669,7.609816,2,6,8,11,31,-1021
670,7.621389,2,6,8,14,29,-1023
671,7.632937,2,6,9,9,30,-1023
672,7.644529,2,6,9,11,28,-1018
673,7.656174,2,6,9,13,33,-1016
674,7.667884,2,6,9,12,29,-1021
675,7.67954,3,6,8,10,30,-1023
676,7.691227,1,6,9,13,29,-1022
677,7.70287,3,7,9,9,31,-1025
678,7.714516,2,6,9,11,29,-1014
679,7.726186,3,6,9,11,29,-1018
680,7.737826,2,6,9,9,31,-1021
681,7.749485,1,6,9,11,31,-1016
682,7.761154,2,6,8,12,31,-1023
683,7.772746,2,6,9,13,34,-1024
684,7.784309,2,6,9,7,30,-1023
685,7.795855,2,6,9,8,28,-1029
686,7.807397,2,6,9,6,31,-1021
687,7.818936,2,6,9,11,30,-1021
688,7.830476,2,6,9,10,33,-1026
689,7.842027,2,6,9,9,35,-1023
690,7.853619,1,6,9,12,32,-1022
691,7.865233,2,6,9,9,31,-1019
692,7.87688,2,6,8,10,30,-1025
693,7.888516,2,6,9,11,30,-1019
694,7.900187,2,6,8,13,30,-1024
695,7.911862,2,6,10,10,32,-1021
696,7.923545,2,5,9,10,31,-1018
697,7.935221,2,5,9,12,33,-1021
698,7.946883,2,6,8,13,28,-1020
699,7.95856,2,6,10,5,30,-1022
700,7.970218,2,7,9,9,29,-1016
701,7.981777,2,6,9,8,28,-1026
702,7.993359,2,6,9,6,30,-1022
703,8.00491,2,6,8,10,33,-1019
704,8.016503,2,6,8,11,32,-1021
705,8.028063,3,7,9,11,29,-1023
706,8.03964,3,7,9,9,25,-1016
707,8.051211,2,6,9,10,31,-1024
708,8.062759,2,5,9,10,24,-1021
709,8.07441,3,5,9,9,30,-1017
710,8.086064,2,6,10,9,33,-1020
711,8.097713,2,6,9,8,33,-1026
712,8.109353,2,6,9,10,31,-1024
713,8.121023,2,6,8,6,25,-1018
714,8.132681,2,6,9,10,32,-1024
715,8.144328,2,6,9,11,30,-1019
716,8.156019,2,6,9,9,31,-1024
717,8.167683,2,7,9,12,31,-1023
718,8.179354,2,6,8,11,28,-1019
719,8.191017,2,7,9,10,29,-1016
720,8.202671,2,7,8,8,34,-1024
721,8.214313,2,6,10,7,30,-1020
722,8.225961,2,6,9,11,28,-1026
723,8.237601,2,6,9,6,30,-1025
724,8.249246,3,5,9,12,32,-1024
725,8.260914,2,5,10,9,32,-1020
726,8.272594,2,6,9,8,29,-1015
727,8.284255,2,5,9,10,27,-1024
728,8.295928,2,5,9,9,29,-1020
729,8.307597,2,6,9,15,30,-1025
730,8.319231,2,6,8,9,31,-1019
731,8.330898,2,5,9,9,26,-1024
732,8.34255,2,5,9,13,32,-1022
733,8.354198,2,5,9,14,36,-1018
734,8.365845,2,6,8,11,30,-1019
735,8.377515,2,5,9,10,29,-1024
736,8.389176,2,6,9,8,34,-1016
737,8.400817,2,6,10,10,33,-1020
738,8.412561,3,6,9,7,30,-1021
739,8.42426,2,6,9,11,32,-1024
740,8.435927,2,6,10,9,27,-1026
741,8.447614,3,6,9,12,28,-1020
742,8.459281,2,6,10,12,31,-1022
743,8.47093,3,6,9,7,30,-1027
744,8.482586,2,6,9,11,31,-1021
745,8.494263,2,6,10,12,32,-1024
746,8.505817,2,6,9,13,31,-1024
747,8.517367,2,6,9,13,31,-1024
748,8.528911,2,5,9,15,33,-1016
749,8.540423,2,6,9,11,31,-1021
750,8.551937,2,6,9,5,30,-1025
751,8.563459,2,6,9,13,28,-1017
752,8.574999,2,6,8,12,29,-1020
753,8.586563,2,6,9,11,33,-1026
754,8.598185,2,5,9,15,32,-1022
755,8.609835,3,6,9,11,29,-1021
756,8.621481,2,6,9,9,31,-1022
757,8.633128,3,6,8,10,32,-1019
758,8.644788,3,7,9,12,31,-1026
759,8.656446,2,6,9,11,29,-1017
760,8.668139,2,6,9,9,28,-1023
761,8.679961,2,6,10,13,32,-1023
762,8.691652,2,5,9,12,28,-1020
763,8.703303,2,6,9,15,32,-1022
764,8.714863,2,6,9,8,33,-1022
765,8.726413,2,6,9,11,33,-1026
766,8.737978,2,6,9,11,33,-1024
767,8.749522,2,5,9,11,31,-1022
768,8.76106,2,6,9,11,30,-1019
769,8.772602,2,5,8,11,32,-1021
770,8.784193,2,7,8,11,29,-1028
771,8.795761,2,6,9,9,32,-1023
772,8.807402,2,6,8,8,31,-1026
773,8.819047,3,6,9,14,30,-1028
774,8.830696,2,6,9,13,27,-1017
775,8.842336,3,6,9,13,31,-1024
776,8.853985,3,6,9,14,31,-1027
777,8.865655,2,6,9,13,30,-1016
778,8.877296,3,6,8,9,31,-1023
779,8.888951,2,6,8,11,29,-1018
780,8.900655,2,6,10,11,35,-1020
781,8.912339,2,6,9,13,29,-1022
782,8.924,2,6,9,13,30,-1025
783,8.935657,2,6,9,10,32,-1032
784,8.947307,2,6,9,12,30,-1023
785,8.958961,3,6,9,11,32,-1020
786,8.97061,2,7,9,12,31,-1026
787,8.982267,2,6,9,12,28,-1027
788,8.993915,3,5,9,10,30,-1023
789,9.00558,2,5,8,9,33,-1019
790,9.017225,3,6,9,10,30,-1023
791,9.02889,2,6,9,8,29,-1027
792,9.040518,3,5,9,9,33,-1023
793,9.052174,3,6,10,10,33,-1021
794,9.063868,2,5,9,15,30,-1025
795,9.075488,3,7,8,13,25,-1026
796,9.08715,2,6,9,10,25,-1027
797,9.098793,3,6,9,10,32,-1025
798,9.110471,2,6,9,8,32,-1016
799,9.122126,2,6,8,10,32,-1024
800,9.133767,2,6,9,9,32,-1024
801,9.145431,3,6,9,9,30,-1018
802,9.157133,2,6,9,11,31,-1026
803,9.168781,2,6,9,9,31,-1023
804,9.180437,2,6,9,11,30,-1011
805,9.192119,2,6,8,12,30,-1026
806,9.203742,2,6,9,13,32,-1021
807,9.215402,2,6,9,12,29,-1023
808,9.22707,2,6,9,13,34,-1020
809,9.238625,2,6,9,9,30,-1018
810,9.250205,2,6,9,11,33,-1025
811,9.261749,3,6,9,10,30,-1017
812,9.273287,3,5,10,9,27,-1024
813,9.284835,3,5,10,10,30,-1020
814,9.296404,3,6,10,14,30,-1023
815,9.307944,2,6,9,12,30,-1023
816,9.31947,2,6,9,9,31,-1019
817,9.331162,2,5,9,9,29,-1017
818,9.342828,2,6,10,10,29,-1021
819,9.354495,2,6,9,13,31,-1023
820,9.366144,2,6,8,7,28,-1022
821,9.377789,2,6,9,7,29,-1027
822,9.389438,2,6,8,10,30,-1021
823,9.401129,2,6,10,10,30,-1023
824,9.412796,2,6,9,11,29,-1024
825,9.424455,2,6,9,13,27,-1020
826,9.43613,2,5,9,8,31,-1017
827,9.447747,3,6,8,9,29,-1020
828,9.459405,2,6,9,12,31,-1025
829,9.471054,2,6,9,11,30,-1010
830,9.482715,2,6,9,12,30,-1017
831,9.494366,3,6,9,13,30,-1022
832,9.506008,2,6,9,11,30,-1021
833,9.517679,2,6,9,11,31,-1025
834,9.529319,2,7,9,10,31,-1023
835,9.541009,2,5,9,10,31,-1024
836,9.552661,2,6,9,12,31,-1021
837,9.564316,2,5,9,12,31,-1022
838,9.576008,2,6,9,12,34,-1026
839,9.587652,3,6,9,13,33,-1019
840,9.599294,2,6,9,11,33,-1019
841,9.610951,2,6,8,12,29,-1018
842,9.622616,2,6,9,8,32,-1023
843,9.634276,2,6,8,7,29,-1020
844,9.645962,2,5,8,7,31,-1025
845,9.65751,3,6,9,12,30,-1026
846,9.66906,3,7,9,10,27,-1023
847,9.680606,2,6,9,15,28,-1014
848,9.692179,2,6,9,13,31,-1022
849,9.703706,3,6,10,8,31,-1027
850,9.715285,3,6,9,8,33,-1019
851,9.726831,2,6,9,5,27,-1017
852,9.738398,2,5,8,12,28,-1017
853,9.75001,2,6,9,10,31,-1020
854,9.761667,2,6,9,8,27,-1025
855,9.773305,2,6,9,11,30,-1018
856,9.784949,2,6,9,9,30,-1020
857,9.796635,2,6,8,10,28,-1022
858,9.808255,3,6,9,8,30,-1017
859,9.81991,3,6,10,9,31,-1021
860,9.831606,2,6,9,9,31,-1021
861,9.843245,2,7,9,15,35,-1023
862,9.854896,3,5,9,8,29,-1020
863,9.866451,2,5,10,9,30,-1022
864,9.878028,2,5,9,11,30,-1021
865,9.88961,3,5,9,9,28,-1025
866,9.901186,3,6,9,10,32,-1025
867,9.912745,2,5,9,12,28,-1023
868,9.924313,3,6,9,12,30,-1025
869,9.935868,2,7,9,9,30,-1022
870,9.947458,2,6,9,10,32,-1023
871,9.959091,2,6,9,13,33,-1023
872,9.970741,3,6,9,7,29,-1025
873,9.982391,3,6,9,8,30,-1019
874,9.994052,3,7,9,8,28,-1027
875,10.005719,2,7,10,8,30,-1022
876,10.017372,2,7,9,8,27,-1019
877,10.029026,2,6,10,7,31,-1023
878,10.040693,3,7,9,8,31,-1026
879,10.052385,2,6,9,12,34,-1026
880,10.064062,2,6,9,8,29,-1016
881,10.075638,2,6,8,11,32,-1026
882,10.087209,2,6,9,10,30,-1021
883,10.098766,2,6,9,9,27,-1025
884,10.110318,2,5,9,12,32,-1023
885,10.121865,3,6,9,6,32,-1023
886,10.13341,2,6,10,11,30,-1024
887,10.144958,2,6,10,10,31,-1019
888,10.15656,2,5,9,8,31,-1021
889,10.168183,3,6,9,12,30,-1016
890,10.179866,3,6,9,13,35,-1018
891,10.191488,2,5,9,10,29,-1020
892,10.203139,3,6,8,9,30,-1021
893,10.214782,2,7,9,10,28,-1014
894,10.226422,2,7,9,12,28,-1024
895,10.238092,2,6,9,7,30,-1024
896,10.249738,2,7,9,12,30,-1022
897,10.261406,3,6,9,9,32,-1017
898,10.273057,2,6,10,14,30,-1020
899,10.284602,3,6,9,9,27,-1028
900,10.296172,3,6,9,12,32,-1023
901,10.307701,2,6,9,11,31,-1020
902,10.319282,3,6,9,11,28,-1020
903,10.330829,3,6,10,10,28,-1023
904,10.342406,2,6,9,9,30,-1022
905,10.353949,2,6,9,7,30,-1023
906,10.365498,2,6,9,12,27,-1024
907,10.377122,2,6,9,11,30,-1022
908,10.388789,3,6,9,8,30,-1029
909,10.400452,3,6,10,14,31,-1025
910,10.412127,2,5,9,12,32,-1026
911,10.423801,2,6,9,10,32,-1023
912,10.43548,3,6,9,13,23,-1027
913,10.44713,2,6,9,9,32,-1022
914,10.458795,2,6,10,11,33,-1020
915,10.470464,2,7,8,12,33,-1025
916,10.482109,3,6,9,11,26,-1017
917,10.49367,2,6,8,10,30,-1019
918,10.505245,2,7,9,11,35,-1022
919,10.516795,2,6,9,11,33,-1019
920,10.52835,2,6,10,10,31,-1026
921,10.539921,2,6,9,14,31,-1021
922,10.551461,3,6,9,9,29,-1022
923,10.563002,2,6,9,11,32,-1022
924,10.574553,2,5,10,9,37,-1017
925,10.586204,3,6,9,12,31,-1021
926,10.597857,2,6,9,10,29,-1023
927,10.609507,3,7,9,11,34,-1022
928,10.621145,2,6,9,11,30,-1021
929,10.632857,3,6,9,11,29,-1019
930,10.64451,3,6,8,11,34,-1020
931,10.656174,2,6,9,7,28,-1025
932,10.667862,2,7,8,7,33,-1024
933,10.679501,2,6,9,7,32,-1020
934,10.691217,3,6,9,16,29,-1025
935,10.702783,3,6,9,11,33,-1019
936,10.714328,2,7,9,9,32,-1023
937,10.72588,2,7,9,13,30,-1023
938,10.737441,2,5,9,13,29,-1021
939,10.748987,3,5,9,10,32,-1019
940,10.760558,2,7,9,12,30,-1014
941,10.772157,2,6,9,11,31,-1027
942,10.783705,3,6,8,10,30,-1025
943,10.795369,2,5,8,13,28,-1019
944,10.807046,2,6,9,8,34,-1026
945,10.818714,2,6,9,11,35,-1022
946,10.830385,2,6,9,11,28,-1021
947,10.842065,2,6,9,13,28,-1020
948,10.853718,3,5,9,13,28,-1025
949,10.865364,3,7,9,10,28,-1021
950,10.877023,3,6,8,10,27,-1023
951,10.888726,2,6,8,12,30,-1022
952,10.900411,2,6,8,7,30,-1023
953,10.912002,2,6,9,12,27,-1025
954,10.923581,2,6,9,13,31,-1023
955,10.935128,3,6,9,10,30,-1024
956,10.946677,3,5,9,6,30,-1020
957,10.958251,2,6,9,8,30,-1023
958,10.969796,3,7,9,13,28,-1017
959,10.981372,3,6,9,11,31,-1022
960,10.992921,2,6,9,11,31,-1022
961,11.004588,2,6,9,10,29,-1022
962,11.01625,2,6,9,12,31,-1022
963,11.027918,2,7,9,14,30,-1019
964,11.039603,2,6,9,10,27,-1015
965,11.051228,3,7,9,13,30,-1018
966,11.062874,3,5,8,9,30,-1021
967,11.074542,3,7,10,11,31,-1028
968,11.086187,2,6,9,9,35,-1017
969,11.097848,3,7,8,15,30,-1024
970,11.109515,3,7,8,11,30,-1018
971,11.121068,2,6,10,8,34,-1013
972,11.132617,2,6,9,14,27,-1022
973,11.144183,2,7,9,11,33,-1019
974,11.155703,3,6,9,13,28,-1023
975,11.167219,2,6,10,10,31,-1021
976,11.178767,2,6,8,10,28,-1022
977,11.190311,2,6,9,10,30,-1015
978,11.201875,3,6,9,13,31,-1019
979,11.21349,3,6,8,10,31,-1018
980,11.225137,2,6,9,5,29,-1019
981,11.236807,3,6,9,6,34,-1022
982,11.248498,2,6,8,8,29,-1023
983,11.260164,2,6,9,13,29,-1022
984,11.271818,2,6,9,10,30,-1020
985,11.283489,2,6,9,14,31,-1025
986,11.29513,2,6,9,15,35,-1015
987,11.306812,3,6,9,11,33,-1022
988,11.318467,2,6,9,15,30,-1024
989,11.330022,2,6,9,14,29,-1018
990,11.341586,2,6,9,9,28,-1024
991,11.353133,2,6,9,10,27,-1027
992,11.364673,3,5,9,10,29,-1019
993,11.376258,2,6,9,8,29,-1023
994,11.387824,2,6,9,9,32,-1023
995,11.399375,2,7,9,9,31,-1020
996,11.410939,3,6,9,14,31,-1023
997,11.422558,3,6,8,12,31,-1022
998,11.434207,2,5,9,11,32,-1019
999,11.445852,2,7,8,11,30,-1019
1000,11.457523,3,6,10,9,32,-1023
1001,11.469175,3,6,9,10,31,-1024
1002,11.480824,3,6,9,10,30,-1024
1003,11.492523,2,6,9,11,29,-1021
1004,11.504177,2,7,10,6,24,-1023
1005,11.515862,1,7,9,11,30,-1017
1006,11.527528,3,6,9,13,33,-1024
1007,11.539081,3,7,8,7,35,-1023
1008,11.550631,2,6,9,14,30,-1017
1009,11.562215,3,5,8,10,34,-1020
1010,11.573768,3,6,9,12,31,-1020
1011,11.585344,2,6,9,13,31,-1025
1012,11.596887,2,7,9,10,30,-1023
1013,11.60842,2,7,9,10,31,-1021
1014,11.619952,3,6,9,10,30,-1017
1015,11.631575,2,6,9,14,30,-1027
1016,11.643228,2,6,9,13,27,-1024
1017,11.654905,3,7,9,17,28,-1020
1018,11.666561,3,6,10,14,31,-1023
1019,11.678225,3,5,8,11,29,-1015
1020,11.689875,3,6,9,14,30,-1026
1021,11.701534,2,6,9,13,28,-1022
1022,11.713183,2,6,9,9,32,-1021
1023,11.724848,2,6,8,11,35,-1022
1024,11.736531,2,6,8,8,24,-1020
1025,11.748137,2,6,9,12,36,-1021
1026,11.759702,3,6,9,8,28,-1025
1027,11.771257,2,6,8,13,31,-1021
1028,11.782802,2,6,9,12,27,-1018
1029,11.794352,2,5,9,10,33,-1022
1030,11.805901,2,6,9,12,34,-1023
1031,11.817473,2,6,9,9,30,-1023
1032,11.829034,2,5,9,13,29,-1027
1033,11.840678,2,6,9,10,31,-1026
1034,11.852353,2,6,9,12,32,-1019
1035,11.86402,2,5,9,11,31,-1023
1036,11.875748,3,6,9,14,29,-1023
1037,11.887416,3,6,9,14,33,-1018
1038,11.899056,2,6,9,16,32,-1028
1039,11.910705,2,7,9,12,30,-1024
1040,11.922371,2,7,8,11,32,-1019
1041,11.934022,2,6,9,9,30,-1024
1042,11.94562,2,6,9,9,31,-1018
1043,11.957166,2,6,9,9,30,-1021
1044,11.968713,2,6,9,10,30,-1024
1045,11.980269,2,6,10,12,27,-1021
1046,11.991866,2,6,10,8,30,-1020
1047,12.003452,3,6,9,9,32,-1020
1048,12.014987,2,7,9,11,30,-1029
1049,12.026522,2,7,9,11,29,-1022
1050,12.038073,2,6,9,11,33,-1027
1051,12.049763,3,6,9,12,31,-1020
1052,12.061422,2,5,9,7,33,-1022
1053,12.073095,3,6,9,12,29,-1023
1054,12.084786,3,5,9,11,30,-1025
1055,12.096443,2,5,9,9,32,-1019
1056,12.108175,2,6,9,9,35,-1024
1057,12.119861,2,6,9,10,33,-1023
1058,12.131531,2,7,9,11,28,-1023
1059,12.14321,2,7,9,12,30,-1015
1060,12.15477,2,6,9,7,26,-1030
1061,12.166341,2,6,9,10,33,-1025
1062,12.177886,3,6,9,13,30,-1021
1063,12.189426,2,6,9,13,30,-1018
1064,12.200981,2,6,8,11,28,-1025
1065,12.212586,3,7,10,13,29,-1023
1066,12.224153,2,7,9,10,32,-1016
1067,12.235725,3,6,9,9,30,-1025
1068,12.247356,2,6,9,13,29,-1022
1069,12.259024,2,6,10,10,32,-1017
1070,12.270669,3,6,9,11,29,-1025
1071,12.28232,3,5,9,9,32,-1011
1072,12.29397,2,5,9,11,30,-1017
1073,12.305625,2,6,9,11,34,-1029
1074,12.31728,3,6,9,11,30,-1024
1075,12.328929,2,6,8,11,33,-1018
1076,12.3406,3,7,10,8,32,-1027
1077,12.352254,1,5,10,11,34,-1025
1078,12.363866,2,6,10,13,31,-1022
1079,12.375458,2,6,9,9,28,-1027
1080,12.387017,2,6,9,8,30,-1016
1081,12.39859,2,5,9,10,31,-1022
1082,12.410142,3,5,9,8,26,-1017
1083,12.421714,2,6,9,12,32,-1030
1084,12.433257,3,6,9,11,27,-1019
1085,12.444816,2,6,9,12,30,-1021
1086,12.456435,2,5,9,10,29,-1030
1087,12.468138,2,6,10,6,34,-1021
1088,12.479817,3,7,9,14,30,-1024
1089,12.491506,2,6,9,12,28,-1020
1090,12.503164,2,7,9,12,30,-1018
1091,12.514808,2,6,10,12,30,-1031
1092,12.526462,2,6,9,6,30,-1020
1093,12.538131,2,6,9,15,27,-1013
1094,12.549784,2,7,8,11,29,-1023
1095,12.561441,2,6,9,10,31,-1018
1096,12.572996,3,6,9,12,31,-1023
1097,12.584556,3,6,9,11,33,-1021
1098,12.596118,3,5,9,12,32,-1019
1099,12.60771,3,6,9,11,32,-1023
1100,12.619271,2,6,9,9,28,-1018
1101,12.630833,2,6,9,9,30,-1025
1102,12.642375,2,6,9,8,28,-1022
1103,12.653937,2,6,9,10,32,-1021
1104,12.66556,2,6,9,8,27,-1016
1105,12.677329,1,6,9,7,30,-1021
1106,12.689011,2,6,9,9,28,-1019
1107,12.70068,2,7,9,13,28,-1019
1108,12.712333,2,6,9,7,28,-1024
1109,12.723989,2,6,9,11,32,-1026
1110,12.735654,2,6,9,11,33,-1021
1111,12.747341,2,5,9,9,29,-1025
1112,12.759015,3,6,9,9,29,-1024
1113,12.770684,2,6,10,9,33,-1020
1114,12.782246,3,6,9,13,29,-1022
1115,12.793823,3,6,9,10,28,-1020
1116,12.805367,2,5,9,9,29,-1019
1117,12.81693,2,6,9,9,32,-1022
1118,12.828587,2,6,10,9,27,-1021
1119,12.84018,3,5,10,10,31,-1022
1120,12.851742,2,6,8,10,28,-1026
1121,12.863367,1,7,8,12,33,-1024
1122,12.875053,2,7,8,11,31,-1023
1123,12.886738,3,6,8,11,34,-1022
1124,12.898391,3,6,9,11,29,-1026
1125,12.910041,3,7,9,7,33,-1023
1126,12.921707,3,6,10,9,31,-1021
1127,12.933361,3,6,9,11,30,-1024
1128,12.945009,3,7,9,9,29,-1017
1129,12.956659,2,5,9,6,32,-1018
1130,12.968352,2,6,9,8,31,-1024
1131,12.980025,2,6,9,10,30,-1029
1132,12.991586,3,6,9,9,29,-1021
1133,13.003132,2,5,9,12,28,-1025
1134,13.014682,2,7,10,8,29,-1022
1135,13.02624,2,6,9,11,30,-1020
1136,13.037826,3,7,9,13,29,-1019
1137,13.049384,3,7,9,9,31,-1018
1138,13.060936,3,6,9,9,32,-1023
1139,13.072492,3,6,10,10,32,-1020
1140,13.084124,2,6,8,10,27,-1026
1141,13.095785,3,6,9,7,32,-1019
1142,13.107482,3,6,9,12,30,-1022
1143,13.11914,2,7,8,9,31,-1021
1144,13.13079,2,7,9,13,28,-1023
1145,13.142473,2,5,9,13,33,-1026
1146,13.154133,2,6,9,8,31,-1023
1147,13.165781,2,6,9,9,28,-1022
1148,13.177448,2,6,9,14,31,-1021
1149,13.189085,2,6,8,7,33,-1020
1150,13.200661,3,6,9,9,33,-1020
1151,13.212183,2,6,9,15,29,-1024
1152,13.223786,3,6,9,8,26,-1023
1153,13.235354,3,6,9,9,32,-1019
1154,13.246905,3,6,9,12,30,-1025
1155,13.258451,2,6,9,14,29,-1020
1156,13.270056,2,5,9,5,27,-1022
1157,13.281619,2,6,10,7,26,-1027
1158,13.293237,2,6,9,10,28,-1024
1159,13.304895,2,6,9,6,29,-1023
1160,13.316509,2,6,9,13,28,-1022
1161,13.328168,3,6,9,11,30,-1023
1162,13.339867,2,6,9,9,30,-1020
1163,13.351486,3,6,9,11,32,-1014
1164,13.363154,2,6,9,9,27,-1022
1165,13.374827,2,7,9,12,28,-1022
1166,13.38649,2,6,8,10,33,-1018
1167,13.398143,2,6,9,10,27,-1019
1168,13.409701,2,6,9,8,26,-1020
1169,13.421251,2,6,9,18,33,-1028
1170,13.432793,3,6,9,10,31,-1025
1171,13.44435,2,5,8,12,31,-1023
1172,13.455933,2,6,9,13,30,-1018
1173,13.467464,3,6,9,10,30,-1023
1174,13.479035,2,6,9,11,29,-1026
1175,13.490596,2,6,9,10,30,-1021
1176,13.502225,2,5,9,11,34,-1017
1177,13.513873,3,6,8,11,28,-1021
1178,13.525526,3,5,9,11,30,-1020
1179,13.537168,3,6,9,9,34,-1019
1180,13.548821,2,6,9,14,30,-1028
1181,13.560507,3,6,8,12,27,-1019
1182,13.572211,2,6,9,11,32,-1020
1183,13.583874,3,6,9,10,27,-1019
1184,13.595648,3,5,9,10,30,-1018
1185,13.607306,2,6,10,11,31,-1034
1186,13.618973,3,6,9,10,32,-1024
1187,13.630621,2,6,9,12,33,-1022
1188,13.642266,2,7,10,8,33,-1019
1189,13.653938,3,6,9,9,35,-1018
1190,13.665591,3,6,9,11,28,-1023
1191,13.677241,2,6,9,6,30,-1024
1192,13.688904,2,6,9,12,33,-1024
1193,13.70085,2,6,9,10,29,-1024
1194,13.712518,2,6,8,9,30,-1024
1195,13.724089,3,6,9,9,32,-1020
1196,13.73568,3,6,9,11,31,-1021
1197,13.747217,2,6,9,6,31,-1022
1198,13.758764,3,6,9,8,32,-1016
1199,13.770313,2,6,9,10,30,-1020
1200,13.78189,2,7,9,9,29,-1019
1201,13.793442,2,7,8,9,32,-1025
1202,13.805034,2,6,9,10,31,-1029
1203,13.816705,2,7,9,11,33,-1017
1204,13.828393,2,7,9,11,28,-1024
1205,13.840058,3,6,9,10,28,-1024
1206,13.851749,3,7,9,16,32,-1018
1207,13.86342,2,6,9,7,31,-1020
1208,13.87508,3,6,8,8,33,-1022
1209,13.886731,2,6,9,8,32,-1022
1210,13.898384,2,6,9,11,35,-1021
1211,13.910027,2,6,9,13,28,-1019
1212,13.921701,2,6,9,16,32,-1022
1213,13.933356,3,7,9,10,31,-1019
1214,13.944995,2,7,9,9,29,-1020
1215,13.956649,2,6,9,12,31,-1025
1216,13.96836,2,6,8,12,30,-1023
1217,13.979991,2,6,8,10,32,-1023
1218,13.99168,3,5,10,9,28,-1017
1219,14.003359,2,7,9,6,28,-1020
1220,14.015048,2,7,9,11,31,-1022
1221,14.026714,3,6,9,15,31,-1025
1222,14.038279,2,6,9,9,33,-1026
1223,14.049825,2,6,9,10,32,-1019
1224,14.061371,2,5,9,11,28,-1027
1225,14.072917,2,6,9,11,30,-1024
1226,14.08448,2,6,10,13,31,-1021
1227,14.09611,2,6,9,8,34,-1022
1228,14.107695,2,6,9,11,29,-1019
1229,14.1193,3,7,9,11,26,-1020
1230,14.13095,2,5,10,12,29,-1025
1231,14.142645,2,6,9,11,31,-1025
1232,14.154315,2,6,9,10,29,-1019
1233,14.165974,3,6,9,13,29,-1018
1234,14.177653,2,6,9,8,32,-1022
1235,14.189316,3,5,9,12,30,-1020
1236,14.200965,3,6,8,10,36,-1022
1237,14.212663,3,6,9,11,31,-1024
1238,14.224344,2,6,8,11,29,-1022
1239,14.235982,2,5,8,10,35,-1023
1240,14.247544,3,7,9,12,33,-1023
1241,14.259113,2,6,9,11,35,-1023
1242,14.270661,2,6,9,11,30,-1015
1243,14.282265,2,6,9,11,27,-1020
1244,14.293815,2,6,9,10,28,-1028
1245,14.305386,3,6,9,11,29,-1022
1246,14.316922,2,6,8,12,33,-1018
1247,14.328485,3,6,8,10,28,-1020
1248,14.340198,2,6,8,10,29,-1030
1249,14.351877,2,5,9,12,33,-1024
1250,14.363557,2,6,9,10,28,-1023
1251,14.375219,3,6,9,12,27,-1018
1252,14.386879,2,6,9,10,32,-1024
1253,14.398571,2,6,9,8,29,-1023
1254,14.410214,2,6,8,11,32,-1019
1255,14.421868,2,6,8,13,30,-1020
1256,14.433558,2,7,9,12,29,-1026
1257,14.445209,2,6,9,9,30,-1024
1258,14.456762,2,6,9,10,31,-1027
1259,14.468312,2,6,8,6,30,-1021
1260,14.479874,2,6,8,10,27,-1016
1261,14.491447,2,5,9,9,28,-1019
1262,14.502989,3,5,9,5,30,-1022
1263,14.514531,3,6,10,7,30,-1026
1264,14.526069,2,6,9,11,25,-1024
1265,14.537634,2,5,9,5,29,-1023
1266,14.549246,2,5,9,12,32,-1016
1267,14.56089,2,5,10,14,32,-1026
1268,14.572509,2,6,9,12,30,-1025
1269,14.584184,3,6,9,15,34,-1020
1270,14.595855,2,6,9,9,33,-1019
1271,14.607488,2,6,9,13,32,-1028
1272,14.619157,3,6,9,7,30,-1023
1273,14.630802,2,6,9,11,34,-1023
1274,14.642463,2,6,9,9,32,-1018
1275,14.654127,2,6,9,14,32,-1023
1276,14.665678,3,6,10,11,30,-1023
1277,14.677227,2,6,9,15,34,-1017
1278,14.688775,2,6,8,10,29,-1018
1279,14.700349,2,6,9,7,31,-1020
1280,14.711956,2,7,9,8,29,-1022
1281,14.723566,2,6,9,12,30,-1019
1282,14.735126,2,5,8,9,30,-1020
1283,14.746688,2,6,9,11,32,-1027
1284,14.758318,3,6,9,9,28,-1024
1285,14.769965,2,6,9,8,31,-1021
1286,14.781642,2,6,9,11,31,-1022
1287,14.793307,2,6,9,7,32,-1025
1288,14.80496,3,6,8,9,30,-1026
1289,14.816658,3,6,9,15,29,-1022
1290,14.82832,3,7,9,8,29,-1022
1291,14.840042,2,6,9,11,31,-1024
1292,14.851739,2,7,9,10,30,-1027
1293,14.863424,2,6,10,12,30,-1022
1294,14.874993,3,6,9,8,29,-1033
1295,14.886535,3,6,10,13,28,-1026
1296,14.898075,3,6,9,10,34,-1031
1297,14.909627,3,7,9,13,31,-1020
1298,14.921169,2,7,10,10,25,-1020
1299,14.932715,2,7,9,11,32,-1022
1300,14.944255,3,6,9,11,34,-1021
1301,14.955851,2,6,8,14,30,-1025
1302,14.967502,3,6,9,10,26,-1019
1303,14.979172,3,6,9,12,30,-1020
1304,14.990812,2,7,9,13,30,-1019
1305,15.002454,2,6,9,11,25,-1022
1306,15.014131,2,6,9,10,27,-1025
1307,15.025795,2,6,9,10,30,-1014
1308,15.03745,2,6,9,12,30,-1022
1309,15.04909,2,6,9,11,32,-1022
1310,15.060787,2,7,9,11,28,-1023
1311,15.072471,2,6,9,6,30,-1018
1312,15.084055,2,6,9,14,32,-1024
1313,15.095625,2,6,9,9,29,-1024
1314,15.107164,3,7,9,9,34,-1025
1315,15.118708,2,6,9,11,31,-1016
1316,15.130254,1,6,10,12,28,-1019
1317,15.141801,3,6,9,14,33,-1022
1318,15.153357,2,7,9,7,35,-1027
1319,15.164924,2,7,9,10,32,-1021
1320,15.176549,2,6,9,8,30,-1020
1321,15.188251,3,6,8,6,32,-1019
1322,15.199906,3,7,9,9,31,-1020
1323,15.21156,2,6,9,9,28,-1024
1324,15.223234,2,7,9,10,27,-1019
1325,15.23489,2,6,9,10,30,-1022
1326,15.246543,2,6,8,10,29,-1010
1327,15.258195,2,6,9,8,28,-1023
1328,15.269863,2,6,9,10,31,-1022
1329,15.281514,2,6,9,11,27,-1021
1330,15.293161,2,6,8,14,30,-1023
1331,15.304814,2,6,10,9,29,-1026
1332,15.316537,3,6,10,8,29,-1023
1333,15.328177,3,6,9,14,26,-1021
1334,15.339898,2,6,9,14,34,-1021
1335,15.351554,2,6,9,8,30,-1022
1336,15.36322,2,6,9,11,33,-1022
1337,15.374936,2,6,9,8,34,-1019
1338,15.386605,3,6,9,10,37,-1020
1339,15.398176,2,6,8,8,28,-1020
1340,15.409738,3,6,10,10,29,-1019
1341,15.421297,2,5,9,10,31,-1022
1342,15.432845,2,5,10,11,31,-1022
1343,15.444431,2,6,9,10,27,-1025
1344,15.455982,2,6,9,11,32,-1024
1345,15.467527,1,6,9,9,26,-1018
1346,15.479081,2,7,9,12,27,-1021
1347,15.490716,2,6,9,12,33,-1020
1348,15.502391,3,6,9,11,29,-1022
1349,15.514046,3,6,9,8,27,-1014
1350,15.525687,2,6,9,7,30,-1020
1351,15.537352,3,6,8,11,32,-1021
1352,15.54901,3,6,9,13,30,-1020
1353,15.560666,2,6,9,14,29,-1020
1354,15.572325,2,6,8,9,33,-1020
1355,15.584016,3,6,9,12,29,-1020
1356,15.595676,3,7,9,14,27,-1023
1357,15.607219,2,5,9,11,30,-1023
1358,15.618787,2,6,8,11,31,-1022
1359,15.630336,2,6,8,14,32,-1027
1360,15.641885,2,6,9,8,33,-1025
1361,15.653481,2,6,8,11,26,-1026
1362,15.665047,2,6,9,10,32,-1021
1363,15.676598,2,6,9,12,30,-1020
1364,15.688186,3,6,8,11,31,-1020
1365,15.699814,3,6,9,11,32,-1023
1366,15.711482,2,6,9,14,29,-1031
1367,15.723134,3,6,9,13,29,-1021
1368,15.734785,2,6,9,8,32,-1019
1369,15.746426,2,6,9,11,34,-1027
1370,15.758104,2,6,9,13,27,-1023
1371,15.769761,2,6,8,14,32,-1028
1372,15.78141,2,6,9,4,33,-1021
1373,15.793081,3,6,9,11,32,-1022
1374,15.80478,3,6,9,11,32,-1022
1375,15.816367,3,6,9,12,29,-1028
1376,15.827963,2,6,9,14,30,-1018
1377,15.839508,2,6,9,12,28,-1027
1378,15.851053,1,7,9,7,30,-1029
1379,15.862596,2,7,9,10,31,-1026
1380,15.87414,3,7,9,10,32,-1022
1381,15.885682,3,5,9,7,31,-1025
1382,15.897225,2,5,10,12,32,-1018
1383,15.908921,1,6,9,12,34,-1018
1384,15.920707,2,6,9,9,32,-1023
1385,15.932394,2,5,9,11,26,-1025
1386,15.944048,3,7,9,9,33,-1024
1387,15.955751,2,6,9,12,30,-1017
1388,15.967409,3,7,9,11,28,-1021
1389,15.979054,3,7,10,11,29,-1020
1390,15.990703,2,6,9,10,30,-1026
1391,16.00239,2,6,9,12,34,-1023
1392,16.014106,3,6,9,10,32,-1019
1393,16.025707,2,6,9,10,32,-1019
1394,16.037261,2,6,9,10,30,-1020
1395,16.048827,2,6,9,13,27,-1025
1396,16.060454,2,6,8,8,29,-1018
1397,16.072014,2,6,9,11,29,-1017
1398,16.083597,2,7,9,9,30,-1024
1399,16.09514,2,6,9,10,29,-1020
1400,16.106706,2,6,9,12,27,-1024
1401,16.118325,3,6,10,14,35,-1022
1402,16.129985,3,6,9,11,31,-1021
1403,16.141636,2,6,9,11,32,-1026
1404,16.153287,2,6,8,5,30,-1029
1405,16.164928,3,6,9,6,25,-1026
1406,16.176606,2,6,9,10,33,-1018
1407,16.188305,2,6,9,9,30,-1020
1408,16.199988,2,6,9,12,30,-1022
1409,16.211662,2,6,9,9,28,-1018
1410,16.223324,3,6,9,4,29,-1027
1411,16.234903,3,7,9,9,30,-1030
1412,16.246453,3,6,9,11,28,-1020
1413,16.257995,2,6,10,13,34,-1025
1414,16.269549,2,6,10,12,30,-1023
1415,16.28112,2,6,9,9,29,-1023
1416,16.292668,3,7,9,14,29,-1022
1417,16.304185,2,5,9,8,31,-1022
1418,16.315741,3,6,9,9,32,-1026
1419,16.327384,3,6,9,9,31,-1019
1420,16.339031,2,6,9,7,26,-1016
1421,16.350673,2,5,8,10,32,-1020
1422,16.362342,2,5,8,7,26,-1022
1423,16.373993,2,5,9,11,31,-1022
1424,16.385649,3,6,8,11,28,-1023
1425,16.397332,2,6,9,7,28,-1025
1426,16.408984,2,6,9,10,32,-1019
1427,16.420659,2,6,8,9,31,-1022
1428,16.432332,2,6,9,10,30,-1027
1429,16.443879,2,6,10,12,31,-1028
1430,16.455458,1,6,8,11,33,-1024
1431,16.467,1,6,9,7,28,-1026
1432,16.478544,2,5,9,12,27,-1020
1433,16.490094,2,6,9,11,29,-1022
1434,16.501691,2,6,9,6,29,-1022
1435,16.51324,2,7,8,15,32,-1025
1436,16.52481,2,6,9,6,33,-1020
1437,16.536421,3,6,8,9,27,-1023
1438,16.548113,2,6,8,12,29,-1022
1439,16.559775,2,6,9,12,33,-1017
1440,16.57143,2,6,9,13,33,-1018
1441,16.583075,2,6,8,10,29,-1029
1442,16.59475,2,5,9,10,27,-1021
1443,16.606387,2,7,9,9,31,-1025
1444,16.618034,3,6,9,12,31,-1017
1445,16.629737,2,6,9,7,31,-1025
1446,16.641382,2,6,9,10,30,-1021
1447,16.652933,2,6,9,11,32,-1021
1448,16.66448,2,6,9,10,30,-1021
1449,16.67606,3,7,9,11,27,-1019
1450,16.687608,2,6,9,12,30,-1023
1451,16.69915,2,7,9,11,32,-1023
1452,16.710694,2,7,10,6,30,-1017
1453,16.722271,3,6,9,13,31,-1021
1454,16.73383,2,7,9,8,29,-1025
1455,16.745471,2,6,9,10,30,-1024
1456,16.75713,3,6,9,9,30,-1023
1457,16.768772,2,6,9,11,21,-1022
1458,16.780433,2,6,8,12,29,-1020
1459,16.792115,2,5,8,10,32,-1026
1460,16.803745,2,6,8,11,32,-1023
1461,16.815419,2,7,9,12,30,-1019
1462,16.827083,1,6,9,12,31,-1025
1463,16.838754,3,6,8,8,29,-1023
1464,16.850419,3,5,10,11,32,-1015
1465,16.861963,3,6,10,14,27,-1023
1466,16.873506,2,6,10,11,33,-1022
1467,16.885056,2,6,9,11,28,-1022
1468,16.8966,3,7,9,12,28,-1019
1469,16.90817,3,6,9,8,30,-1025
1470,16.919701,3,6,9,9,35,-1022
1471,16.931303,1,6,9,13,33,-1021
1472,16.942881,2,6,9,14,33,-1023
1473,16.954497,2,6,9,14,32,-1028
1474,16.96615,2,6,9,11,26,-1025
1475,16.977787,2,6,9,8,29,-1021
1476,16.989438,3,5,9,16,28,-1021
1477,17.001126,3,5,9,12,28,-1021
1478,17.012771,2,6,9,9,27,-1023
1479,17.024422,2,5,9,11,33,-1021
1480,17.036108,2,6,9,10,32,-1026
1481,17.047756,2,6,9,9,37,-1025
1482,17.05942,3,6,9,13,30,-1024
1483,17.070973,2,6,9,14,27,-1020
1484,17.082537,2,6,9,9,29,-1020
1485,17.09408,3,6,9,11,34,-1015
1486,17.105622,2,7,8,12,28,-1016
1487,17.117177,3,6,9,11,34,-1025
1488,17.128744,2,6,9,11,31,-1019
1489,17.140307,2,6,10,11,32,-1021
1490,17.151931,3,6,8,10,30,-1021
1491,17.163621,2,6,9,11,30,-1021
1492,17.175305,3,5,9,11,31,-1028
1493,17.186964,3,6,9,13,32,-1022
1494,17.19862,2,7,9,8,28,-1023
1495,17.210287,3,5,9,7,31,-1019
1496,17.221955,3,6,9,6,33,-1022
1497,17.233605,2,7,8,13,35,-1027
1498,17.245255,2,7,9,12,33,-1026
1499,17.256933,2,6,10,10,31,-1023
1500,17.268596,2,7,9,10,31,-1023
1501,17.280268,2,6,9,12,35,-1018
1502,17.291943,2,6,9,11,29,-1025
1503,17.30364,3,7,9,11,28,-1020
1504,17.315347,3,5,9,12,30,-1025
1505,17.32699,3,6,9,10,31,-1021
1506,17.338649,3,7,10,11,30,-1023
1507,17.350306,3,6,9,12,31,-1026
1508,17.36199,3,6,8,9,31,-1022
1509,17.373657,3,5,9,9,30,-1021
1510,17.385299,2,6,9,11,28,-1023
1511,17.39695,2,6,9,11,32,-1019
1512,17.408625,2,6,9,10,32,-1018
1513,17.420255,2,6,8,10,35,-1021
1514,17.431909,2,7,9,13,33,-1024
1515,17.443602,2,5,10,10,27,-1016
1516,17.455228,3,6,9,14,29,-1022
1517,17.466908,2,6,9,9,29,-1019
1518,17.478576,2,6,9,13,29,-1021
1519,17.49022,2,7,8,12,29,-1022
1520,17.501866,2,6,9,12,32,-1022
1521,17.513531,2,7,9,9,32,-1025
1522,17.525198,2,6,9,11,31,-1027
1523,17.536851,2,6,9,11,30,-1027
1524,17.54854,2,6,9,9,30,-1025
1525,17.560224,2,7,9,12,32,-1025
1526,17.571886,2,6,9,10,32,-1023
1527,17.583595,2,6,9,10,32,-1027
1528,17.595154,3,6,9,10,30,-1027
1529,17.606713,2,6,9,9,35,-1021
1530,17.618273,2,6,9,11,34,-1028
1531,17.629815,2,6,9,9,31,-1027
1532,17.641366,2,5,9,9,29,-1022
1533,17.652915,2,6,9,10,32,-1024
1534,17.664487,2,6,10,12,31,-1019
1535,17.676097,1,6,10,11,31,-1020
1536,17.687743,2,6,8,10,28,-1022
1537,17.69943,3,6,9,5,34,-1025
1538,17.711078,2,6,9,7,33,-1021
1539,17.722732,2,6,9,11,27,-1024
1540,17.734413,2,5,9,12,30,-1021
1541,17.746069,2,6,9,11,30,-1019
1542,17.757727,2,6,9,9,32,-1020
1543,17.769427,2,6,9,10,30,-1016
1544,17.781091,2,6,9,11,33,-1018
1545,17.792798,2,6,10,10,28,-1025
1546,17.804407,2,6,10,11,32,-1019
1547,17.816002,2,6,9,9,31,-1024
1548,17.827578,2,6,10,9,28,-1023
1549,17.839136,2,6,9,12,29,-1020
1550,17.850687,2,7,9,14,26,-1026
1551,17.862256,3,6,9,11,30,-1020
1552,17.873805,2,6,9,15,28,-1022
1553,17.885393,2,6,8,10,31,-1020
1554,17.897008,2,6,9,11,29,-1019
1555,17.908677,2,6,9,16,34,-1025
1556,17.920333,2,7,8,8,30,-1025
1557,17.932019,2,6,9,10,32,-1019
1558,17.943685,2,7,9,11,31,-1024
1559,17.955353,2,5,9,13,29,-1017
1560,17.967023,2,6,9,12,35,-1020
1561,17.978733,2,5,9,14,32,-1024
1562,17.990522,2,6,9,13,28,-1024
1563,18.002127,2,6,9,10,32,-1024
1564,18.013671,2,7,9,15,28,-1018
1565,18.025244,2,6,10,7,30,-1026
1566,18.036818,3,5,9,14,28,-1013
1567,18.048369,3,6,9,10,32,-1018
1568,18.059934,2,6,10,12,31,-1021
1569,18.071461,2,6,10,12,30,-1023
1570,18.083002,3,6,9,15,29,-1018
1571,18.09457,2,6,9,8,29,-1017
1572,18.106192,2,6,9,11,33,-1020
1573,18.117836,2,6,9,11,29,-1023
1574,18.129486,2,6,10,13,27,-1021
1575,18.141163,2,6,10,11,33,-1021
1576,18.152821,3,6,9,15,29,-1021
1577,18.16451,3,6,9,9,33,-1019
1578,18.17619,2,6,10,9,30,-1026
1579,18.187858,3,6,9,13,32,-1020
1580,18.19953,3,5,10,17,28,-1018
1581,18.211243,3,6,10,9,32,-1022
1582,18.222837,2,6,9,14,27,-1022
1583,18.234389,3,6,9,9,28,-1021
1584,18.245938,2,6,9,8,29,-1017
1585,18.257505,2,6,9,7,30,-1027
1586,18.269053,2,5,10,13,31,-1024
1587,18.280603,2,6,9,12,26,-1028
1588,18.292201,3,6,8,12,33,-1023
1589,18.303773,2,6,9,11,31,-1022
1590,18.315426,3,6,9,8,29,-1028
1591,18.327087,3,5,9,10,30,-1025
1592,18.338734,2,6,8,11,27,-1023
1593,18.350381,2,7,9,11,30,-1033
1594,18.36204,2,6,9,9,34,-1024
1595,18.373683,2,7,9,11,29,-1026
1596,18.385338,2,6,9,9,26,-1022
1597,18.396979,2,7,9,13,30,-1020
1598,18.408689,2,5,8,9,33,-1017
1599,18.420376,2,6,9,11,32,-1021
1600,18.431959,2,6,9,10,31,-1020
1601,18.443515,2,6,10,12,32,-1024
1602,18.455081,3,6,10,11,28,-1017
1603,18.466624,2,6,9,11,28,-1021
1604,18.478166,2,6,9,16,31,-1021
1605,18.489725,3,5,9,12,29,-1024
1606,18.501271,2,6,8,9,29,-1027
1607,18.51282,2,6,9,11,30,-1024
1608,18.5245,2,6,9,10,29,-1023
1609,18.53617,3,6,8,13,30,-1026
1610,18.547857,2,6,9,10,29,-1023
1611,18.559502,2,6,9,11,29,-1024
1612,18.571158,2,6,9,13,31,-1021
1613,18.585548,2,7,9,10,34,-1024
1614,18.597272,2,7,9,14,29,-1016
1615,18.608921,2,6,9,9,32,-1024
1616,18.620636,2,7,8,10,29,-1017
1617,18.632222,3,6,8,11,30,-1020
1618,18.643779,3,5,9,5,25,-1019
1619,18.655382,2,5,9,11,26,-1017
1620,18.666961,2,6,10,12,28,-1021
1621,18.678502,2,6,9,9,30,-1023
1622,18.690041,2,5,9,10,33,-1018
1623,18.701597,2,6,8,11,30,-1021
1624,18.713218,2,6,9,11,43,-1017
1625,18.724837,2,6,9,8,28,-1019
1626,18.736537,1,6,9,10,28,-1018
1627,18.74819,1,6,9,7,34,-1018
1628,18.759868,2,6,9,12,34,-1022
1629,18.771545,2,6,9,11,31,-1020
1630,18.783231,2,6,9,10,30,-1025
1631,18.794924,3,7,9,10,32,-1022
1632,18.80662,2,6,9,10,26,-1024
1633,18.818556,2,6,9,8,30,-1023
1634,18.830222,2,6,9,12,35,-1021
1635,18.841791,2,6,9,5,30,-1019
1636,18.853378,2,5,9,9,26,-1019
1637,18.864965,2,6,9,10,28,-1025
1638,18.876599,1,7,9,9,29,-1014
1639,18.888187,2,6,9,14,32,-1026
1640,18.899722,2,5,9,11,28,-1021
1641,18.911276,2,6,9,12,31,-1018
1642,18.922832,2,5,9,15,29,-1025
1643,18.934507,3,6,9,14,29,-1021
1644,18.946168,2,6,9,12,27,-1019
1645,18.95783,3,6,9,11,27,-1022
1646,18.969509,2,6,9,8,32,-1020
1647,18.981172,2,6,10,13,29,-1014
1648,18.992839,2,5,9,8,29,-1028
1649,19.004529,2,6,9,8,32,-1025
1650,19.016205,3,5,10,11,33,-1023
1651,19.027878,3,6,10,11,30,-1022
1652,19.03947,3,6,9,11,31,-1019
1653,19.051022,2,6,8,9,26,-1028
1654,19.062575,2,6,9,11,23,-1025
1655,19.074129,2,6,9,12,27,-1026
1656,19.085709,3,6,9,13,29,-1021
1657,19.097264,3,6,9,8,34,-1020
1658,19.108838,2,6,9,10,29,-1018
1659,19.120439,2,6,9,10,31,-1029
1660,19.132075,2,5,9,13,32,-1021
1661,19.143758,2,6,8,10,34,-1023
1662,19.155409,2,6,9,15,32,-1020
1663,19.167051,3,6,9,13,31,-1025
1664,19.178749,2,5,9,13,30,-1023
1665,19.190396,2,6,9,13,27,-1027
1666,19.202045,3,6,9,12,31,-1019
1667,19.213701,2,6,9,9,27,-1021
1668,19.225368,3,5,9,8,27,-1022
1669,19.237,2,6,9,8,33,-1023
1670,19.248576,2,6,8,11,34,-1024
1671,19.260136,2,7,9,5,28,-1024
1672,19.27172,2,6,9,10,28,-1031
1673,19.283299,3,6,9,11,29,-1026
1674,19.294879,3,6,9,9,29,-1022
1675,19.306462,3,5,9,10,28,-1016
1676,19.318006,3,6,9,10,32,-1021
1677,19.32958,3,6,8,14,32,-1018
1678,19.341213,3,6,9,10,29,-1022
1679,19.352868,2,6,9,6,27,-1020
1680,19.364533,2,7,9,6,31,-1030
1681,19.376191,3,7,9,10,28,-1021
1682,19.387893,3,6,9,13,32,-1026
1683,19.39955,2,6,9,9,33,-1026
1684,19.411236,2,6,9,10,31,-1026
1685,19.422906,2,6,10,8,33,-1024
1686,19.434565,3,6,9,12,28,-1020
1687,19.44625,2,8,9,10,30,-1029
1688,19.457831,1,6,9,8,33,-1020
1689,19.469378,2,6,9,8,31,-1023
1690,19.480923,2,7,9,8,17,-1019
1691,19.492477,3,6,8,10,33,-1025
1692,19.504027,2,6,8,8,31,-1018
1693,19.515588,2,6,9,11,26,-1021
1694,19.527154,2,6,9,12,33,-1019
1695,19.538721,2,7,10,10,27,-1018
1696,19.550391,2,6,9,8,28,-1023
1697,19.562051,2,7,9,11,28,-1024
1698,19.573693,2,6,9,9,27,-1028
1699,19.585342,2,6,9,10,30,-1023
1700,19.597004,2,7,9,10,33,-1026
1701,19.608653,1,6,8,14,28,-1023
1702,19.620346,2,6,9,12,29,-1024
1703,19.632014,2,7,9,9,30,-1019
1704,19.643685,2,6,9,13,29,-1022
1705,19.65537,2,6,9,14,32,-1024
1706,19.66703,3,6,9,8,31,-1024
1707,19.678678,2,7,9,11,28,-1021
1708,19.690328,2,6,9,12,30,-1017
1709,19.701997,2,6,9,16,29,-1021
1710,19.713644,2,6,9,13,29,-1016
1711,19.725288,2,6,9,7,29,-1020
1712,19.736951,2,5,9,12,29,-1022
1713,19.748665,2,6,9,13,33,-1026
1714,19.760324,2,6,8,11,34,-1027
1715,19.772008,3,6,10,8,31,-1018
1716,19.783679,3,6,9,13,30,-1021
1717,19.795355,2,6,9,14,29,-1021
1718,19.80701,2,6,9,10,30,-1026
1719,19.81866,2,6,9,13,31,-1020
1720,19.830307,2,6,10,11,30,-1023
1721,19.841992,3,6,9,10,29,-1023
1722,19.853669,3,5,8,11,31,-1020
1723,19.865348,3,6,8,13,27,-1026
1724,19.876902,2,7,8,12,30,-1026
1725,19.888436,2,6,9,14,31,-1017
1726,19.899984,2,6,9,13,31,-1016
1727,19.911538,2,7,9,7,33,-1022
1728,19.923117,2,6,9,7,32,-1020
1729,19.934664,3,6,9,11,32,-1028
1730,19.946218,3,6,9,5,29,-1024
1731,19.957828,2,6,9,10,29,-1026
1732,19.969481,2,6,9,11,32,-1022
1733,19.981137,2,6,9,9,29,-1025
1734,19.992775,3,6,9,7,31,-1021
1735,20.004428,2,5,9,6,32,-1024
1736,20.016128,2,5,9,13,29,-1024
1737,20.027741,2,6,9,11,31,-1019
1738,20.039393,2,6,10,10,29,-1020
1739,20.051054,2,5,9,11,32,-1024
1740,20.062727,3,6,9,10,29,-1022
1741,20.074383,2,6,10,10,32,-1018
1742,20.086038,2,6,9,13,31,-1017
1743,20.097708,3,5,9,11,29,-1020
1744,20.109354,2,6,10,12,27,-1023
1745,20.120996,2,7,9,12,34,-1022
1746,20.132658,2,6,9,12,35,-1020
1747,20.144315,3,7,9,11,30,-1026
1748,20.15599,3,7,9,10,32,-1015
1749,20.167688,2,6,8,10,33,-1029
1750,20.179372,3,6,9,15,31,-1025
1751,20.19102,2,6,9,10,27,-1023
1752,20.202674,2,6,9,10,28,-1024
1753,20.214366,2,7,10,12,29,-1027
1754,20.226007,3,6,9,14,35,-1025
1755,20.23766,3,5,9,11,31,-1030
1756,20.249337,3,6,9,14,33,-1028
1757,20.260987,2,7,9,11,28,-1020
1758,20.272744,2,6,10,9,32,-1024
1759,20.284431,2,6,9,11,27,-1022
1760,20.296018,2,6,9,8,30,-1026
1761,20.307591,2,6,9,7,31,-1025
1762,20.319166,2,6,9,12,28,-1024
1763,20.330714,2,6,9,10,30,-1022
1764,20.342293,3,6,9,13,31,-1024
1765,20.353833,3,6,9,12,30,-1027
1766,20.365376,2,6,10,9,27,-1028
1767,20.376939,2,6,8,13,27,-1026
1768,20.388639,2,6,9,11,32,-1018
1769,20.400314,2,6,8,11,29,-1023
1770,20.411993,2,6,9,8,34,-1020
1771,20.423657,2,6,9,12,33,-1024
1772,20.43536,2,6,10,7,29,-1020
1773,20.447011,2,6,9,10,29,-1021
1774,20.458668,3,6,8,9,28,-1020
1775,20.470368,3,7,9,11,31,-1029
1776,20.482028,2,6,9,7,30,-1026
1777,20.493704,2,6,9,7,29,-1016
1778,20.505297,2,6,9,8,31,-1027
1779,20.51684,2,7,8,14,33,-1025
1780,20.528431,2,6,10,12,29,-1021
1781,20.539984,2,5,8,7,32,-1023
1782,20.551535,3,6,9,10,30,-1018
1783,20.563086,3,6,9,12,29,-1019
1784,20.574659,2,6,9,10,33,-1026
1785,20.586221,2,5,10,9,34,-1015
1786,20.597849,2,6,9,9,28,-1020
1787,20.60951,2,5,9,9,29,-1027
1788,20.621157,3,6,8,9,31,-1026
1789,20.632892,2,6,10,11,29,-1023
1790,20.644538,2,6,9,10,31,-1024
1791,20.656201,3,6,9,9,35,-1021
1792,20.667892,2,6,10,12,33,-1023
1793,20.679548,2,6,10,13,31,-1027
1794,20.691289,3,6,9,12,25,-1025
1795,20.702944,2,6,9,9,29,-1024
1796,20.71453,2,6,9,12,27,-1020
1797,20.726076,2,6,9,13,28,-1018
1798,20.737616,2,6,9,10,32,-1029
1799,20.749173,2,6,9,10,32,-1026
1800,20.76072,2,7,9,10,32,-1023
1801,20.772301,2,6,9,12,31,-1027
1802,20.783893,2,6,9,13,26,-1020
1803,20.795472,2,6,9,10,34,-1020
1804,20.807088,3,6,9,13,29,-1020
1805,20.818744,2,6,9,11,33,-1026
1806,20.830388,3,6,9,12,33,-1019
1807,20.842033,2,6,8,10,28,-1027
1808,20.8537,2,5,9,12,30,-1027
1809,20.86535,2,6,9,9,34,-1022
1810,20.877031,2,5,9,12,33,-1018
1811,20.888699,2,6,8,9,32,-1025
1812,20.90039,2,7,9,9,28,-1019
1813,20.912071,2,5,9,13,30,-1020
1814,20.923652,2,5,9,8,33,-1023
1815,20.935217,2,6,10,9,33,-1023
1816,20.946761,2,6,9,14,31,-1021
1817,20.95831,3,6,9,9,32,-1016
1818,20.969886,3,6,9,9,30,-1021
1819,20.981434,2,7,9,15,30,-1021
1820,20.993007,2,6,8,14,32,-1021
1821,21.00457,2,6,9,10,32,-1018
1822,21.016211,3,7,9,8,26,-1022
1823,21.027925,2,6,9,8,31,-1028
1824,21.039607,2,6,9,9,31,-1024
1825,21.051275,3,7,8,12,27,-1018
1826,21.062918,2,6,9,8,30,-1012
1827,21.074577,2,6,9,14,30,-1019
1828,21.086228,2,7,9,8,29,-1023
1829,21.097878,3,7,9,6,31,-1022
1830,21.10954,2,5,9,11,32,-1027
1831,21.121219,2,6,8,12,31,-1021
1832,21.132782,2,6,8,10,30,-1022
1833,21.144355,3,6,8,9,28,-1023
1834,21.15597,3,7,9,12,31,-1019
1835,21.167538,2,7,9,10,29,-1029
1836,21.179101,2,7,9,10,30,-1025
1837,21.19065,2,6,9,8,33,-1015
1838,21.202188,2,7,9,4,30,-1027
1839,21.213742,2,6,9,13,31,-1017
1840,21.225357,2,6,9,7,31,-1021
1841,21.237008,2,5,9,10,34,-1027
1842,21.248675,3,6,9,11,27,-1022
1843,21.260341,2,6,9,9,33,-1020
1844,21.271985,2,6,9,8,27,-1024
1845,21.283653,2,6,9,12,33,-1020
1846,21.295351,3,7,9,15,29,-1018
1847,21.306997,3,6,9,11,30,-1023
1848,21.318663,2,7,9,7,30,-1024
1849,21.330337,3,6,8,11,34,-1021
1850,21.341899,3,7,9,10,29,-1019
1851,21.353446,2,6,9,10,31,-1025
1852,21.364991,2,6,8,9,27,-1018
1853,21.376562,3,6,9,13,27,-1018
1854,21.388137,3,6,9,9,31,-1022
1855,21.399722,2,6,9,12,34,-1024
1856,21.411279,3,6,9,10,25,-1022
1857,21.422831,2,6,8,13,31,-1023
1858,21.434454,2,6,9,11,29,-1025
1859,21.446107,2,6,9,10,32,-1026
1860,21.457781,2,7,8,13,32,-1021
1861,21.469436,2,7,10,11,31,-1022
1862,21.481081,2,6,9,11,33,-1016
1863,21.492778,2,6,9,14,27,-1024
1864,21.504449,2,6,9,12,30,-1027
1865,21.516133,2,6,9,13,33,-1026
1866,21.527822,3,6,9,12,28,-1025
1867,21.539489,2,6,10,17,32,-1024
1868,21.55117,2,5,9,14,33,-1024
1869,21.562817,2,6,9,13,29,-1025
1870,21.574469,3,6,9,12,32,-1026
1871,21.586131,3,6,9,7,29,-1023
1872,21.597795,3,6,9,9,29,-1022
1873,21.609449,2,6,9,8,30,-1023
1874,21.621132,3,7,9,10,32,-1023
1875,21.632797,2,6,9,11,27,-1020
1876,21.644388,2,6,9,11,37,-1020
1877,21.655941,2,6,10,12,30,-1018
1878,21.667464,2,7,9,12,31,-1019
1879,21.679013,3,6,9,13,32,-1026
1880,21.69057,3,7,9,12,32,-1019
1881,21.702132,2,6,9,9,29,-1023
1882,21.713671,3,6,8,12,31,-1021
1883,21.725209,3,6,10,8,34,-1024
1884,21.736762,2,6,9,10,26,-1026
1885,21.748444,2,6,9,11,30,-1031
1886,21.760134,2,6,9,12,29,-1021
1887,21.771831,3,6,9,9,29,-1020
1888,21.783495,2,6,10,8,32,-1021
1889,21.795174,2,5,9,10,27,-1020
1890,21.806834,2,6,9,11,31,-1027
1891,21.818481,3,6,10,8,29,-1016
1892,21.830162,2,6,9,12,32,-1021
1893,21.841815,2,5,9,15,30,-1020
1894,21.853381,2,6,8,11,28,-1021
1895,21.864945,2,5,9,12,31,-1018
1896,21.876506,2,6,9,9,27,-1026
1897,21.888068,3,5,8,11,30,-1025
1898,21.899642,3,6,8,9,30,-1022
1899,21.911208,2,5,9,10,28,-1021
1900,21.922759,2,6,10,14,17,-1023
1901,21.93434,3,6,9,11,29,-1022
1902,21.945951,2,7,9,5,28,-1023
1903,21.957609,2,6,9,12,31,-1018
1904,21.96926,2,6,9,12,31,-1022
1905,21.980919,2,6,9,10,30,-1022
1906,21.992581,2,6,9,13,27,-1025
1907,22.004255,3,5,9,14,32,-1023
1908,22.015934,2,6,9,11,28,-1022
1909,22.027618,3,6,9,11,28,-1025
1910,22.039284,2,6,8,13,29,-1021
1911,22.050945,3,6,9,9,31,-1025
1912,22.062502,2,6,9,11,33,-1025
1913,22.074088,3,7,9,11,32,-1025
1914,22.085643,3,6,9,13,32,-1021
1915,22.097218,2,7,9,12,26,-1019
1916,22.10876,2,6,9,10,29,-1022
1917,22.120324,3,7,9,7,30,-1024
1918,22.131872,2,5,9,7,32,-1018
1919,22.14348,2,6,9,15,28,-1022
1920,22.155115,2,6,8,12,27,-1025
1921,22.166771,2,6,8,11,31,-1021
1922,22.178426,2,6,8,7,26,-1024
1923,22.190075,2,5,9,9,33,-1028
1924,22.201737,2,6,9,11,31,-1026
1925,22.21339,2,6,9,15,33,-1024
1926,22.225047,3,6,9,11,31,-1022
1927,22.236701,2,6,9,11,30,-1019
1928,22.248414,2,6,9,12,29,-1025
1929,22.260079,3,6,9,10,27,-1016
1930,22.271634,2,6,9,9,31,-1029
1931,22.283197,3,6,10,13,28,-1021
1932,22.294747,3,6,9,9,30,-1019
1933,22.306314,3,6,9,13,32,-1024
1934,22.317867,2,6,9,11,30,-1024
1935,22.329431,3,7,8,16,29,-1024
1936,22.340988,2,6,9,8,33,-1030
1937,22.352563,2,7,9,10,30,-1021
1938,22.364177,2,6,9,11,34,-1021
1939,22.375878,2,6,9,11,31,-1024
1940,22.387542,2,5,8,13,31,-1017
1941,22.39922,2,5,8,12,33,-1027
1942,22.410892,3,7,9,10,29,-1026
1943,22.422553,2,6,8,12,33,-1021
1944,22.434212,2,6,9,12,26,-1022
1945,22.445874,3,6,10,11,32,-1022
1946,22.457555,1,5,9,15,29,-1026
1947,22.469199,2,6,9,9,30,-1026
1948,22.480748,2,6,9,12,31,-1022
1949,22.492313,2,6,9,10,31,-1022
1950,22.503876,2,6,9,6,27,-1018
1951,22.515473,2,6,10,7,31,-1027
1952,22.527032,3,7,9,13,30,-1023
1953,22.538599,3,6,10,9,30,-1019
1954,22.550149,2,6,9,13,34,-1023
1955,22.561731,2,6,8,12,26,-1023
1956,22.573344,2,6,9,9,28,-1020
1957,22.585007,2,6,9,8,25,-1026
1958,22.596708,2,5,9,10,31,-1021
1959,22.608399,2,7,9,11,31,-1022
1960,22.620064,2,6,9,8,34,-1023
1961,22.631763,2,6,9,8,30,-1025
1962,22.64342,3,6,9,8,30,-1024
1963,22.655071,3,6,9,12,31,-1023
1964,22.666765,3,6,9,10,30,-1021
1965,22.678412,2,6,8,10,30,-1020
1966,22.690067,3,5,9,10,30,-1025
1967,22.701758,2,6,10,12,31,-1027
1968,22.713409,3,6,9,14,36,-1024
1969,22.725063,2,6,10,11,30,-1019
1970,22.73671,3,6,9,14,31,-1025
1971,22.748424,2,7,9,7,30,-1020
1972,22.760121,2,6,8,11,30,-1028
1973,22.771798,2,5,9,10,32,-1020
1974,22.783468,2,5,8,10,28,-1020
1975,22.795029,2,6,9,11,32,-1018
1976,22.8066,3,6,9,11,31,-1021
1977,22.818158,3,6,8,9,26,-1020
1978,22.829707,2,7,10,9,31,-1025
1979,22.841251,2,6,10,13,27,-1027
1980,22.852791,2,6,9,9,27,-1022
1981,22.864344,3,6,9,8,28,-1018
1982,22.875976,2,6,9,6,28,-1025
1983,22.887696,2,5,10,11,29,-1020
1984,22.899369,1,5,9,8,31,-1019
1985,22.911035,2,7,8,9,27,-1024
1986,22.922701,2,7,9,13,31,-1019
1987,22.934376,3,6,9,11,32,-1023
1988,22.946026,2,7,9,8,34,-1023
1989,22.957677,2,7,9,12,32,-1022
1990,22.969323,2,6,9,11,27,-1022
1991,22.980986,2,6,8,7,31,-1018
1992,22.992668,2,6,8,15,33,-1018
1993,23.004231,2,6,9,14,28,-1023
1994,23.015781,2,6,9,12,32,-1020
1995,23.027351,4,7,8,15,31,-1022
1996,23.038929,2,5,9,9,29,-1023
1997,23.05048,3,6,8,9,34,-1017
1998,23.062042,3,5,9,12,32,-1022
1999,23.073599,2,6,9,10,28,-1018
