sample,t_s,gyro_x,gyro_y,gyro_z,accel_x,accel_y,accel_z
0,1.1e-05,0,-1,12,-2,49,-1031
1,0.011327,2,7,9,-2,53,-1033
2,0.022524,1,7,6,-1,51,-1027
3,0.033722,3,3,9,-4,50,-1033
4,0.044926,3,8,7,-2,47,-1034
5,0.056117,4,6,9,-2,51,-1033
6,0.067307,3,6,8,-1,50,-1034
7,0.078491,2,7,9,1,50,-1033
8,0.089688,3,8,8,-1,53,-1037
9,0.100878,1,3,8,-3,52,-1032
10,0.112067,3,7,8,-2,57,-1028
11,0.12325,4,5,7,1,52,-1034
12,0.134438,2,6,9,-3,52,-1034
13,0.145636,4,7,9,-1,51,-1033
14,0.156812,2,5,8,-3,56,-1031
15,0.168006,5,4,8,-2,47,-1039
16,0.179188,4,6,10,-1,47,-1031
17,0.190378,4,6,9,2,48,-1032
18,0.201554,2,4,8,-2,49,-1037
19,0.212739,2,6,9,-1,54,-1035
20,0.223923,1,5,11,3,49,-1035
21,0.235104,2,7,9,0,54,-1036
22,0.246286,3,6,8,-1,55,-1033
23,0.257498,1,7,8,-2,49,-1031
24,0.268685,4,8,7,-3,55,-1036
25,0.279877,2,8,8,0,51,-1029
26,0.291061,2,6,10,1,54,-1031
27,0.302249,5,7,10,-3,51,-1035
28,0.313448,2,5,9,0,46,-1033
29,0.324639,3,7,8,0,49,-1035
30,0.335824,4,9,9,-1,53,-1032
31,0.347007,2,6,7,0,52,-1031
32,0.358192,0,5,8,0,50,-1028
33,0.369371,3,5,9,0,55,-1034
34,0.380559,3,6,9,-4,53,-1026
35,0.391745,3,7,8,-3,53,-1034
36,0.402946,2,5,8,-3,52,-1035
37,0.414132,1,7,10,-1,53,-1027
38,0.425325,2,5,8,-1,49,-1035
39,0.436507,2,6,8,-1,54,-1038
40,0.447699,0,7,10,1,49,-1033
41,0.458887,5,11,9,-3,50,-1039
42,0.470072,2,6,11,-2,49,-1038
43,0.481263,3,8,9,-1,52,-1031
44,0.492448,3,5,9,-1,51,-1036
45,0.503634,4,6,9,0,54,-1037
46,0.514819,1,5,9,-3,53,-1038
47,0.526003,3,7,10,-2,50,-1035
48,0.537208,3,8,13,0,51,-1036
49,0.548467,2,6,9,-1,55,-1034
50,0.55965,0,4,9,0,56,-1032
51,0.570836,3,6,8,3,53,-1035
52,0.58202,3,7,9,-5,50,-1033
53,0.593184,2,8,6,-2,54,-1028
54,0.604374,3,5,9,-4,57,-1034
55,0.61556,2,7,9,-2,53,-1031
56,0.626746,1,8,9,-4,51,-1036
57,0.63793,3,6,11,-1,54,-1033
58,0.64914,2,6,10,-1,50,-1027
59,0.660385,2,6,8,1,49,-1036
60,0.671574,3,5,10,-3,48,-1029
61,0.682758,4,7,11,1,53,-1032
62,0.693947,3,5,9,0,51,-1040
63,0.705136,2,8,10,-1,47,-1030
64,0.716319,4,6,7,-6,47,-1032
65,0.727506,1,6,10,-3,54,-1031
66,0.738692,2,6,10,-5,51,-1039
67,0.749882,3,6,9,0,51,-1036
68,0.761092,4,9,9,-2,52,-1030
69,0.77228,3,6,9,0,49,-1033
70,0.783464,2,6,10,2,50,-1033
71,0.794648,1,6,9,-2,51,-1027
72,0.805852,3,3,9,0,51,-1034
73,0.816998,3,9,8,-2,51,-1031
74,0.828188,2,8,9,-1,53,-1028
75,0.839373,2,6,9,-1,52,-1029
76,0.850558,2,5,10,-2,50,-1029
77,0.861746,6,8,8,2,56,-1027
78,0.872935,1,6,8,-1,53,-1038
79,0.88412,3,7,9,0,53,-1030
80,0.895306,0,6,8,-1,48,-1035
81,0.906493,2,5,9,-1,50,-1037
82,0.917692,4,8,11,-4,52,-1032
83,0.928882,2,5,11,-3,49,-1036
84,0.940071,0,6,8,-3,52,-1033
85,0.95126,0,7,10,0,49,-1030
86,0.962446,5,8,9,1,51,-1038
87,0.973663,3,5,8,0,54,-1034
88,0.984813,3,5,11,-5,55,-1027
89,0.995996,4,6,10,1,49,-1036
90,1.007184,2,8,9,0,56,-1034
91,1.018372,2,7,9,-1,49,-1033
92,1.029558,2,8,9,-3,55,-1036
93,1.040752,3,5,8,0,49,-1034
94,1.051934,2,6,10,-5,51,-1032
95,1.063121,4,7,7,0,52,-1035
96,1.074309,2,9,8,-1,54,-1031
97,1.085502,1,5,9,-3,51,-1033
98,1.096687,2,5,9,-2,50,-1031
99,1.107871,4,6,8,0,51,-1025
100,1.119068,4,8,9,0,53,-1034
101,1.130253,2,5,8,-1,52,-1036
102,1.141444,0,7,9,-3,54,-1033
103,1.152627,2,2,8,1,56,-1034
104,1.163817,3,7,11,-2,50,-1035
105,1.175048,1,8,7,-1,50,-1035
106,1.186345,4,8,7,-4,55,-1029
107,1.197566,1,-1,12,-3,54,-1029
108,1.208821,4,7,9,-3,51,-1030
109,1.22003,2,6,9,-2,51,-1036
110,1.231221,4,6,9,-3,52,-1031
111,1.242405,-1,6,8,0,52,-1024
112,1.253596,1,6,10,-4,56,-1039
113,1.264783,1,6,9,0,52,-1030
114,1.275965,2,6,11,0,52,-1037
115,1.287148,2,7,7,-1,57,-1035
116,1.298331,0,7,12,-2,55,-1026
117,1.309517,2,7,10,-4,49,-1029
118,1.320699,3,4,8,4,53,-1031
119,1.331883,2,4,10,-2,52,-1033
120,1.34307,2,7,9,-1,50,-1036
121,1.354256,2,7,9,0,52,-1034
122,1.365448,0,5,8,-2,47,-1033
123,1.376629,6,6,9,1,54,-1036
124,1.387818,4,7,10,-3,53,-1037
125,1.399,0,7,9,-1,48,-1036
126,1.410187,2,8,8,-4,57,-1035
127,1.421376,2,3,10,-4,50,-1031
128,1.432566,4,6,10,0,52,-1035
129,1.443755,1,6,8,1,56,-1033
130,1.45494,2,6,9,-3,53,-1034
131,1.466121,2,6,9,0,51,-1034
132,1.477336,4,9,9,0,52,-1031
133,1.488517,2,6,9,2,50,-1030
134,1.499698,4,5,9,1,54,-1038
135,1.510878,4,7,10,-1,54,-1031
136,1.522058,1,13,9,-1,53,-1035
137,1.53325,4,5,11,0,53,-1035
138,1.544432,2,7,9,-2,49,-1037
139,1.555625,3,5,7,5,48,-1038
140,1.566806,2,7,10,0,48,-1038
141,1.577993,5,6,9,-5,52,-1036
142,1.589185,3,3,10,-6,47,-1034
143,1.60037,-2,9,7,-1,52,-1030
144,1.611557,3,5,8,-2,56,-1036
145,1.622738,7,10,11,-2,54,-1032
146,1.633928,2,8,10,-2,56,-1039
147,1.645115,5,7,9,-4,53,-1033
148,1.656298,2,8,8,-5,51,-1038
149,1.667505,0,7,11,0,56,-1034
150,1.678687,3,10,8,-4,47,-1038
151,1.689874,0,11,9,-3,49,-1041
152,1.701059,2,11,8,-7,51,-1030
153,1.712248,3,14,9,-8,48,-1036
154,1.723435,3,7,11,-6,48,-1031
155,1.734616,1,13,11,0,56,-1033
156,1.745805,6,10,11,4,53,-1036
157,1.756996,6,12,8,5,52,-1029
158,1.76818,0,10,9,4,47,-1033
159,1.779363,3,7,10,2,51,-1033
160,1.790549,3,9,9,2,45,-1029
161,1.801736,0,8,11,4,46,-1032
162,1.812926,2,6,9,2,51,-1027
163,1.82412,2,5,8,8,34,-1026
164,1.835325,3,6,9,6,52,-1035
165,1.84651,2,6,9,1,49,-1031
166,1.857696,4,5,7,3,54,-1022
167,1.868881,0,6,8,-1,49,-1037
168,1.880075,1,4,7,-1,52,-1029
169,1.89126,1,6,8,2,50,-1033
170,1.902497,0,5,8,0,55,-1032
171,1.913694,3,3,9,1,56,-1030
172,1.924886,3,6,9,1,51,-1034
173,1.936077,1,8,10,-3,48,-1032
174,1.947263,4,7,8,-5,48,-1035
175,1.958445,5,6,8,-5,48,-1034
176,1.969631,2,7,9,-7,53,-1036
177,1.980815,2,6,7,-4,53,-1035
178,1.991996,3,6,8,2,50,-1032
179,2.00318,1,8,9,3,51,-1032
180,2.01436,2,8,9,1,50,-1032
181,2.025554,4,9,8,-1,51,-1030
182,2.036741,3,4,9,-2,54,-1030
183,2.047923,4,6,7,0,52,-1034
184,2.059111,0,4,8,0,55,-1034
185,2.070296,3,5,11,4,51,-1036
186,2.081497,3,7,9,1,51,-1025
187,2.092681,4,6,10,0,52,-1034
188,2.10387,4,7,11,5,54,-1037
189,2.115055,1,7,8,1,55,-1031
190,2.12624,1,6,11,-1,51,-1027
191,2.137429,2,2,9,-1,54,-1028
192,2.148616,0,3,10,7,54,-1032
193,2.159801,5,3,10,11,53,-1033
194,2.170986,4,3,10,11,49,-1030
195,2.182174,0,2,8,7,51,-1037
196,2.193381,5,7,8,-2,53,-1032
197,2.204565,2,7,10,-10,47,-1035
198,2.215746,1,4,8,-16,48,-1031
199,2.226928,1,6,9,-6,51,-1028
200,2.238111,2,5,9,2,50,-1027
201,2.249307,0,3,7,9,48,-1032
202,2.260489,2,3,11,5,51,-1035
203,2.271673,1,4,9,7,52,-1025
204,2.282856,3,-2,6,-5,56,-1040
205,2.294042,2,6,9,-3,51,-1034
206,2.305234,3,5,7,-5,52,-1042
207,2.316418,1,5,7,-2,53,-1035
208,2.327618,1,8,9,-1,49,-1036
209,2.338799,5,3,9,-3,46,-1037
210,2.349997,2,6,11,1,45,-1033
211,2.361185,7,-4,13,5,49,-1045
212,2.372373,1,6,10,-3,44,-1023
213,2.383556,1,2,12,-1,56,-1040
214,2.394742,1,6,8,-4,52,-1031
215,2.405927,0,6,9,-1,53,-1043
216,2.417113,6,5,9,-2,54,-1031
217,2.428299,3,4,9,2,50,-1032
218,2.439484,4,5,10,1,51,-1031
219,2.450667,3,5,10,-1,49,-1037
220,2.461855,1,7,7,-2,48,-1037
221,2.473,2,4,9,0,51,-1034
222,2.484179,3,9,6,-6,50,-1032
223,2.49536,2,7,10,0,48,-1035
224,2.506545,1,5,9,0,51,-1036
225,2.517738,4,5,8,0,51,-1038
226,2.528924,3,8,8,-3,53,-1032
227,2.540104,4,6,8,-1,55,-1038
228,2.551308,4,6,10,-5,57,-1035
229,2.562494,2,5,9,-3,46,-1028
230,2.573679,3,6,10,0,50,-1035
231,2.584865,3,10,9,-2,51,-1035
232,2.59605,2,4,11,1,47,-1036
233,2.607236,2,7,9,-1,51,-1035
234,2.618419,4,9,10,1,52,-1033
235,2.629618,1,5,8,-1,52,-1031
236,2.640815,2,6,10,-6,56,-1035
237,2.652012,3,7,9,-6,51,-1032
238,2.663199,1,5,9,-4,51,-1037
239,2.674383,0,5,8,-1,54,-1035
240,2.685555,0,6,8,0,49,-1028
241,2.69674,4,8,9,-2,47,-1039
242,2.707924,2,8,11,0,47,-1031
243,2.719109,2,6,8,3,51,-1036
244,2.730296,3,5,8,1,49,-1028
245,2.741488,0,5,10,-2,54,-1028
246,2.752673,1,6,9,-4,54,-1024
247,2.763858,5,6,10,-3,52,-1026
248,2.775042,2,7,8,-3,53,-1028
249,2.786233,2,4,13,-4,46,-1033
250,2.797422,2,6,10,3,53,-1033
251,2.808605,3,5,9,-1,51,-1032
252,2.819796,3,4,10,-2,50,-1032
253,2.830981,2,7,10,-3,52,-1034
254,2.842168,2,1,8,0,51,-1031
255,2.853365,0,4,8,0,53,-1037
256,2.864549,3,4,10,1,51,-1037
257,2.875734,2,4,11,1,50,-1032
258,2.886918,4,6,9,0,52,-1037
259,2.898108,2,7,10,-5,50,-1033
260,2.909316,3,5,11,-5,53,-1033
261,2.920498,3,6,11,-2,52,-1036
262,2.931678,2,4,8,4,50,-1032
263,2.942862,3,13,8,0,45,-1035
264,2.954047,3,4,8,1,46,-1035
265,2.965239,0,7,9,-1,47,-1027
266,2.97642,2,6,10,-2,53,-1030
267,2.987611,1,9,8,-4,48,-1034
268,2.998797,2,6,9,-4,50,-1039
269,3.009985,4,7,9,0,52,-1035
270,3.021181,2,6,10,-4,54,-1032
271,3.032362,4,9,10,1,53,-1027
272,3.043545,0,5,11,0,57,-1042
273,3.05474,2,5,8,0,56,-1030
274,3.065924,2,5,10,0,53,-1032
275,3.077112,4,6,7,-1,52,-1038
276,3.088296,3,4,7,-3,50,-1035
277,3.099489,3,6,7,-5,52,-1038
278,3.110673,9,4,9,-5,50,-1034
279,3.121862,0,7,8,-2,46,-1032
280,3.133049,2,7,10,1,51,-1039
281,3.144233,7,4,7,0,43,-1030
282,3.155419,0,4,9,2,54,-1034
283,3.166607,6,5,10,0,55,-1036
284,3.177794,2,5,9,0,50,-1033
285,3.188994,0,6,8,0,48,-1027
286,3.200176,3,4,9,-2,50,-1035
287,3.211361,0,6,8,-2,48,-1032
288,3.222545,2,6,10,0,49,-1035
289,3.233736,5,5,9,-4,51,-1036
290,3.244924,3,10,10,-3,48,-1032
291,3.25612,5,5,9,0,55,-1035
292,3.267308,3,7,7,1,51,-1033
293,3.27849,1,7,9,0,51,-1027
294,3.289676,3,7,8,3,47,-1030
295,3.300861,1,6,10,2,53,-1026
296,3.312047,3,5,9,1,56,-1036
297,3.323231,3,6,9,-6,53,-1037
298,3.334418,3,8,10,-4,51,-1038
299,3.345608,3,6,11,-1,46,-1037
300,3.356807,0,6,8,-1,51,-1029
301,3.368009,2,5,9,-5,48,-1034
302,3.379217,3,6,10,-1,53,-1029
303,3.390435,1,8,11,5,49,-1033
304,3.401627,2,6,7,-1,53,-1030
305,3.412813,2,6,9,2,51,-1033
306,3.423995,4,8,10,-3,51,-1033
307,3.43518,2,10,12,-3,51,-1027
308,3.446363,2,2,12,-6,54,-1032
309,3.457572,0,7,9,-7,53,-1031
310,3.468758,3,6,8,0,50,-1033
311,3.479939,2,8,10,2,52,-1041
312,3.491118,3,10,9,1,54,-1041
313,3.502299,1,0,8,0,50,-1034
314,3.513484,4,6,8,-2,52,-1031
315,3.524662,3,7,9,0,52,-1030
316,3.535845,3,7,7,-3,52,-1031
317,3.547027,5,6,10,2,48,-1036
318,3.558209,1,7,8,-1,51,-1036
319,3.569364,2,7,7,0,50,-1034
320,3.580545,2,5,10,-4,48,-1032
321,3.591723,0,6,8,-5,53,-1035
322,3.602906,2,3,6,1,47,-1037
323,3.614103,1,2,8,2,56,-1034
324,3.6253,4,8,9,0,54,-1035
325,3.636483,2,5,8,-2,49,-1036
326,3.647674,2,5,11,-1,54,-1037
327,3.65886,1,6,8,-1,50,-1030
328,3.670043,2,4,10,-3,52,-1034
329,3.681235,2,6,9,-1,53,-1036
330,3.692418,4,4,9,-2,50,-1032
331,3.703603,1,11,10,3,54,-1035
332,3.714788,5,6,9,-3,51,-1032
333,3.725973,3,8,9,-2,50,-1032
334,3.737171,2,7,7,0,54,-1032
335,3.748354,0,4,12,-3,51,-1033
336,3.759538,3,7,11,-1,50,-1030
337,3.770721,3,7,7,0,52,-1032
338,3.781921,4,5,9,-3,49,-1035
339,3.793113,2,6,11,-1,50,-1035
340,3.804295,3,6,6,-2,53,-1032
341,3.815483,2,6,8,-4,49,-1033
342,3.826664,2,7,8,-3,52,-1035
343,3.837851,4,7,9,1,51,-1040
344,3.848998,2,6,10,0,51,-1027
345,3.86018,2,6,8,0,48,-1030
346,3.871362,0,6,9,0,49,-1031
347,3.882543,3,7,10,-2,49,-1032
348,3.893731,3,3,7,-2,53,-1032
349,3.904922,3,8,10,-4,53,-1033
350,3.916106,3,7,10,5,54,-1031
351,3.927299,3,5,10,0,54,-1029
352,3.93848,4,6,8,0,55,-1028
353,3.949673,3,4,8,0,54,-1035
354,3.960812,3,7,8,-1,52,-1034
355,3.972004,3,5,8,-2,51,-1031
356,3.983191,1,7,8,0,48,-1033
357,3.99438,2,7,7,-7,54,-1031
358,4.00555,3,7,9,-4,57,-1029
359,4.016733,2,6,10,-5,51,-1034
360,4.027915,0,6,9,-3,52,-1034
361,4.039097,4,6,11,-2,53,-1037
362,4.050282,3,8,7,-1,54,-1033
363,4.06148,5,7,9,-1,49,-1036
364,4.072664,4,5,10,-2,51,-1034
365,4.083845,4,6,9,-4,52,-1033
366,4.095027,3,6,9,3,51,-1033
367,4.106212,1,4,10,-1,50,-1037
368,4.117368,2,6,12,-4,50,-1027
369,4.12855,2,5,10,2,49,-1036
370,4.139736,2,5,11,2,48,-1039
371,4.150919,4,7,11,-4,50,-1030
372,4.162106,3,5,6,-2,52,-1023
373,4.1733,3,9,8,0,53,-1033
374,4.184483,2,6,8,0,55,-1028
375,4.195669,2,4,8,-4,56,-1032
376,4.206855,4,6,8,-2,53,-1031
377,4.218039,3,4,11,2,51,-1031
378,4.229181,1,4,9,0,52,-1031
379,4.240364,4,7,10,-3,59,-1034
380,4.251546,2,5,8,-6,52,-1025
381,4.26274,1,6,10,-7,47,-1035
382,4.273923,1,5,9,-1,53,-1033
383,4.285112,2,5,10,1,49,-1040
384,4.296303,2,8,8,-1,52,-1042
385,4.307486,3,7,8,2,48,-1032
386,4.318668,1,5,7,4,51,-1036
387,4.329895,0,5,9,-5,47,-1038
388,4.341117,1,4,8,-2,52,-1034
389,4.352328,4,3,11,-3,53,-1037
390,4.363545,0,1,11,-2,55,-1034
391,4.375284,0,6,9,0,54,-1030
392,4.386999,2,6,6,-4,52,-1034
393,4.398661,2,6,9,-2,55,-1034
394,4.410344,1,6,8,0,53,-1030
395,4.422033,3,7,8,-3,55,-1038
396,4.433699,2,7,8,0,54,-1031
397,4.445378,4,6,9,-4,55,-1034
398,4.457027,2,6,9,-1,55,-1032
399,4.468672,3,6,7,-3,49,-1029
400,4.480219,1,4,8,-4,50,-1038
401,4.491773,1,6,7,-1,49,-1031
402,4.503333,2,7,9,-3,55,-1035
403,4.514931,2,8,9,1,51,-1032
404,4.526493,0,6,9,-3,51,-1032
405,4.538066,1,8,9,3,54,-1035
406,4.549625,0,5,10,0,48,-1032
407,4.561209,2,7,7,-1,53,-1029
408,4.572775,2,6,7,0,52,-1036
409,4.586886,-2,11,8,0,53,-1029
410,4.599126,7,6,12,-1,51,-1034
411,4.614817,4,7,7,2,55,-1025
412,4.629452,8,3,11,1,51,-1035
413,4.646048,3,4,12,-1,47,-1027
414,4.658125,3,5,8,-1,52,-1028
415,4.670052,3,6,8,-1,52,-1034
416,4.681868,3,6,11,-4,48,-1033
417,4.69309,1,5,12,-2,50,-1035
418,4.704283,4,7,11,0,53,-1031
419,4.715497,2,8,10,-5,51,-1037
420,4.726686,3,8,8,-4,49,-1040
421,4.737874,3,7,8,-5,52,-1037
422,4.749063,1,5,9,-3,49,-1039
423,4.760252,2,7,9,0,51,-1028
424,4.771438,1,7,11,1,53,-1032
425,4.782624,1,8,9,0,51,-1038
426,4.793813,2,5,7,-3,52,-1030
427,4.805,1,5,9,2,51,-1026
428,4.816188,1,7,10,0,53,-1037
429,4.827376,4,7,10,0,54,-1043
430,4.83856,2,6,9,-3,53,-1035
431,4.849742,1,0,10,0,51,-1035
432,4.860935,2,6,10,-2,51,-1027
433,4.872123,4,6,10,0,54,-1034
434,4.883307,3,6,9,-4,49,-1038
435,4.894511,3,4,12,-3,51,-1035
436,4.905701,2,7,9,-4,49,-1031
437,4.916892,3,5,8,-3,49,-1035
438,4.928081,2,5,11,0,51,-1034
439,4.939267,3,7,10,0,52,-1031
440,4.950453,2,2,6,-1,51,-1024
441,4.961643,3,7,12,-2,46,-1029
442,4.972814,2,7,10,-4,52,-1041
443,4.983997,3,7,8,2,51,-1035
444,4.995181,3,5,11,1,48,-1037
445,5.006362,3,7,9,-1,49,-1037
446,5.017552,3,6,10,3,50,-1027
447,5.028737,3,7,8,-3,50,-1034
448,5.039921,1,5,10,-1,56,-1036
449,5.051106,4,12,8,-4,52,-1035
450,5.06229,4,6,6,-2,51,-1034
451,5.073493,1,7,10,-5,50,-1040
452,5.084678,3,8,8,-3,54,-1025
453,5.095863,1,5,9,-4,47,-1034
454,5.107046,3,8,9,-4,49,-1037
455,5.11823,2,7,8,-1,58,-1027
456,5.12942,2,8,10,-2,52,-1036
457,5.140625,3,6,9,0,51,-1035
458,5.151808,3,6,6,1,50,-1029
459,5.16299,1,8,8,1,55,-1036
460,5.174174,4,6,9,0,48,-1033
461,5.185365,4,6,9,4,49,-1029
462,5.196549,1,7,8,0,46,-1038
463,5.207732,2,5,9,0,53,-1034
464,5.218912,3,5,10,0,53,-1029
465,5.230094,4,7,7,-1,48,-1040
466,5.241293,2,7,10,-3,49,-1033
467,5.252474,1,5,8,0,51,-1032
468,5.263658,3,6,9,-4,56,-1030
469,5.274845,2,5,8,-1,52,-1034
470,5.28603,3,9,6,-1,49,-1031
471,5.297183,3,6,8,-4,51,-1033
472,5.308366,1,6,9,0,54,-1030
473,5.31955,3,7,8,-2,52,-1032
474,5.330746,1,6,8,-4,49,-1031
475,5.341932,2,8,8,-2,53,-1033
476,5.353118,0,3,9,2,54,-1032
477,5.3643,2,7,9,-2,55,-1030
478,5.375499,3,8,9,-3,53,-1032
479,5.38668,2,7,9,-2,50,-1030
480,5.397867,2,8,11,-4,52,-1038
481,5.409051,3,7,9,-1,49,-1032
482,5.420233,3,6,11,1,53,-1040
483,5.431422,3,6,9,-1,54,-1027
484,5.442611,4,5,11,-3,51,-1033
485,5.453798,3,4,7,-1,55,-1032
486,5.464994,2,7,7,-3,54,-1032
487,5.47618,4,4,9,-4,51,-1039
488,5.48736,0,5,9,0,50,-1030
489,5.498543,2,5,8,-1,55,-1040
490,5.509735,5,5,10,-2,53,-1031
491,5.520924,2,7,8,-4,54,-1033
492,5.532106,3,5,8,-2,51,-1037
493,5.54329,2,7,9,-5,51,-1035
494,5.554473,2,6,8,-1,52,-1026
495,5.565664,4,5,8,-4,50,-1033
496,5.576812,2,6,7,-1,46,-1032
497,5.587995,3,7,9,-2,55,-1032
498,5.599174,3,9,9,-4,47,-1030
499,5.610357,0,4,11,-4,53,-1033
500,5.621546,2,6,8,0,54,-1030
501,5.632728,2,6,9,0,54,-1031
502,5.64391,3,6,9,-5,50,-1034
503,5.655094,3,5,9,-3,49,-1032
504,5.666279,0,5,9,-2,50,-1035
505,5.677476,1,5,9,-1,50,-1037
506,5.688661,2,6,11,-3,50,-1030
507,5.699844,4,7,6,0,49,-1031
508,5.711026,1,8,11,-1,52,-1029
509,5.722211,2,5,8,0,53,-1030
510,5.733369,3,7,7,-1,54,-1034
511,5.744551,3,5,8,-2,53,-1033
512,5.755736,2,7,9,-2,53,-1039
513,5.766919,4,6,10,-3,52,-1036
514,5.778101,3,4,11,-4,51,-1034
515,5.789307,3,7,8,-1,50,-1035
516,5.800489,3,5,8,-2,47,-1032
517,5.811672,1,1,11,1,54,-1040
518,5.822854,2,9,8,-1,47,-1033
519,5.834037,3,4,8,-2,53,-1038
520,5.84523,1,7,8,0,50,-1034
521,5.856414,4,5,11,-3,50,-1035
522,5.867598,2,8,10,1,50,-1028
523,5.878781,3,5,10,-2,52,-1036
524,5.889965,2,5,9,-4,52,-1034
525,5.901151,1,5,8,-6,55,-1039
526,5.912338,4,8,9,0,56,-1030
527,5.923525,2,3,9,0,53,-1036
528,5.934711,4,6,8,-1,49,-1040
529,5.945899,1,6,9,-1,52,-1031
530,5.957085,3,6,9,-3,55,-1029
531,5.96827,2,6,10,-2,53,-1029
532,5.979453,5,4,10,-4,55,-1033
533,5.990639,2,6,8,-1,54,-1026
534,6.001828,2,5,8,-1,52,-1032
535,6.013008,3,8,12,-2,49,-1037
536,6.024199,2,4,8,-3,52,-1032
537,6.035401,2,6,7,-1,52,-1040
538,6.046586,2,9,8,0,49,-1030
539,6.057737,2,10,8,-1,53,-1034
540,6.068926,1,-1,8,0,49,-1037
541,6.080108,2,5,9,-5,45,-1029
542,6.09129,2,6,8,0,49,-1035
543,6.10247,3,5,7,0,50,-1040
544,6.113663,0,4,9,1,46,-1032
545,6.124812,3,6,11,-1,54,-1035
546,6.136015,2,4,10,-3,51,-1037
547,6.147198,3,6,11,0,46,-1036
548,6.158383,5,5,11,-2,53,-1031
549,6.169551,4,10,10,-4,55,-1036
550,6.180734,3,5,10,0,50,-1035
551,6.191915,2,5,10,-7,56,-1030
552,6.203095,2,7,9,-2,52,-1028
553,6.214278,2,5,7,-1,49,-1027
554,6.225477,3,7,9,-3,50,-1030
555,6.23666,3,5,7,-1,53,-1028
556,6.247841,2,7,7,-2,52,-1036
557,6.259024,1,6,11,5,47,-1031
558,6.270205,2,2,7,0,52,-1031
559,6.281365,2,5,10,-3,51,-1029
560,6.292547,3,8,7,0,50,-1031
561,6.303727,4,8,10,-1,53,-1034
562,6.314921,5,7,10,-1,46,-1032
563,6.326102,3,5,11,-2,51,-1034
564,6.337293,0,5,11,3,52,-1034
565,6.348475,2,8,10,-2,51,-1033
566,6.359658,1,6,8,0,52,-1036
567,6.370839,0,3,8,-4,52,-1035
568,6.382024,4,5,11,-4,47,-1035
569,6.393181,1,5,10,-4,55,-1026
570,6.404366,1,5,11,-1,52,-1038
571,6.415549,2,8,10,1,55,-1037
572,6.426748,3,7,11,0,53,-1030
573,6.437938,3,4,10,-1,48,-1028
574,6.449129,3,8,7,-2,49,-1034
575,6.460321,3,4,8,-2,51,-1035
576,6.471515,0,3,11,1,54,-1031
577,6.482705,2,5,10,-1,51,-1032
578,6.493905,2,6,10,-2,54,-1031
579,6.505101,2,6,9,-2,54,-1029
580,6.516283,4,5,9,-4,54,-1028
581,6.527467,0,4,10,-4,50,-1032
582,6.538649,4,7,8,-1,54,-1038
583,6.549848,5,3,10,-2,52,-1032
584,6.561,2,8,7,0,51,-1040
585,6.572187,1,2,8,2,55,-1032
586,6.583374,3,6,10,-3,48,-1032
587,6.594559,3,7,10,0,50,-1039
588,6.60574,2,6,12,2,53,-1029
589,6.616925,2,3,10,0,53,-1033
590,6.62811,2,10,8,-1,50,-1023
591,6.639301,0,6,8,-4,49,-1037
592,6.650629,2,5,8,-1,47,-1032
593,6.662074,2,8,8,-3,47,-1035
594,6.673452,7,4,13,-3,54,-1028
595,6.684711,0,5,9,-3,47,-1034
596,6.695909,2,4,10,-2,49,-1029
597,6.707103,1,7,9,0,50,-1033
598,6.718292,3,9,10,-5,52,-1035
599,6.729488,0,6,10,1,52,-1033
600,6.740672,4,4,8,-2,48,-1040
601,6.751856,1,6,9,-2,52,-1034
602,6.763041,1,5,10,-3,54,-1035
603,6.774226,5,9,9,-1,48,-1040
604,6.785438,2,7,6,-3,52,-1028
605,6.796631,2,5,10,-1,51,-1037
606,6.807827,4,6,9,0,52,-1033
607,6.819014,2,8,10,0,48,-1035
608,6.830204,2,6,9,-2,54,-1029
609,6.841367,3,5,9,-1,49,-1030
610,6.852563,0,5,11,-4,51,-1033
611,6.863755,4,4,7,0,51,-1036
612,6.874942,5,8,7,0,50,-1024
613,6.88613,3,6,9,-1,52,-1033
614,6.897322,4,7,10,-1,52,-1036
615,6.908508,2,7,10,-2,50,-1027
616,6.919697,2,4,10,-2,52,-1036
617,6.930883,3,4,9,-4,52,-1035
618,6.94207,3,5,8,-3,52,-1040
619,6.953259,5,6,9,1,50,-1033
620,6.964448,2,6,9,0,52,-1036
621,6.975635,0,3,9,-3,53,-1034
622,6.986821,1,5,9,-5,53,-1040
623,6.99801,2,10,9,0,52,-1032
624,7.009182,2,6,10,1,50,-1034
625,7.020367,2,5,9,-1,48,-1029
626,7.031551,4,5,9,-2,53,-1033
627,7.042737,4,7,8,2,48,-1032
628,7.05392,2,4,9,-2,54,-1035
629,7.065113,3,6,11,-1,53,-1032
630,7.076303,3,5,9,-3,48,-1037
631,7.087489,2,8,9,-3,50,-1036
632,7.098671,2,7,9,0,51,-1029
633,7.109858,1,6,8,-1,52,-1038
634,7.121045,4,7,7,-3,51,-1036
635,7.132228,5,14,10,-5,52,-1034
636,7.143411,2,8,8,-1,52,-1035
637,7.154594,4,5,7,0,55,-1030
638,7.165734,4,7,9,0,53,-1030
639,7.176924,3,6,7,-3,53,-1032
640,7.188105,4,8,8,-3,54,-1033
641,7.199287,0,5,9,-1,52,-1026
642,7.210483,2,5,8,-2,50,-1028
643,7.221671,3,5,14,-4,48,-1035
644,7.232857,2,5,8,0,55,-1034
645,7.24404,3,7,7,-4,52,-1037
646,7.255223,3,7,11,2,48,-1033
647,7.266419,3,6,9,-2,48,-1033
648,7.277605,4,6,8,-1,55,-1037
649,7.288788,1,6,6,-5,48,-1034
650,7.299975,2,7,11,-3,53,-1031
651,7.311159,1,4,12,-4,51,-1030
652,7.322342,1,6,9,4,53,-1029
653,7.33353,1,4,6,-1,52,-1042
654,7.344715,4,7,8,-1,53,-1032
655,7.355896,2,6,10,-3,52,-1032
656,7.36708,3,5,8,-3,49,-1031
657,7.378263,1,6,8,0,48,-1033
658,7.389449,3,7,9,-4,49,-1038
659,7.400633,3,6,11,-3,53,-1036
660,7.411823,3,6,8,-4,51,-1033
661,7.423006,3,7,10,-1,53,-1033
662,7.434197,0,4,10,-2,50,-1036
663,7.445366,4,7,10,-3,50,-1034
664,7.456556,2,6,8,1,49,-1032
665,7.46774,2,7,10,0,53,-1031
666,7.478923,3,6,10,-3,52,-1035
667,7.490118,2,5,9,-3,52,-1031
668,7.501309,3,6,7,0,54,-1035
669,7.512494,2,8,11,-1,50,-1038
670,7.523681,1,6,10,-2,46,-1035
671,7.534867,1,7,9,-1,50,-1032
672,7.546054,0,6,7,0,49,-1033
673,7.557246,1,6,9,0,53,-1034
674,7.568444,3,5,9,0,56,-1028
675,7.579633,3,5,8,-2,45,-1042
676,7.590824,4,7,10,0,51,-1034
677,7.602008,4,6,9,0,46,-1037
678,7.613185,3,7,8,-3,49,-1036
679,7.624369,3,7,12,0,53,-1034
680,7.635556,2,6,9,-3,49,-1034
681,7.646744,1,6,9,2,47,-1034
682,7.657933,2,5,9,-2,51,-1031
683,7.66912,2,6,10,2,51,-1029
684,7.680308,3,8,9,1,48,-1034
685,7.691496,3,5,10,-5,52,-1033
686,7.702681,3,6,9,-1,53,-1033
687,7.713872,2,6,9,-6,54,-1035
688,7.725065,2,4,9,-3,55,-1032
689,7.736263,0,5,10,-2,51,-1033
690,7.747454,1,7,11,0,51,-1028
691,7.758639,1,4,11,2,53,-1025
692,7.769826,4,5,9,-2,54,-1040
693,7.780998,2,9,7,-1,52,-1035
694,7.792188,1,5,8,-3,53,-1035
695,7.803373,2,5,8,-2,51,-1034
696,7.814559,2,6,10,-3,53,-1028
697,7.82574,3,3,9,0,51,-1026
698,7.83693,3,5,11,1,51,-1031
699,7.848118,4,7,8,-2,54,-1025
700,7.859302,4,6,9,-6,54,-1034
701,7.87049,2,7,9,0,50,-1034
702,7.881678,3,9,9,1,49,-1035
703,7.892862,2,4,11,1,51,-1033
704,7.904047,3,7,9,1,52,-1034
705,7.915229,4,7,8,-1,53,-1036
706,7.926419,1,3,9,1,49,-1026
707,7.937606,0,7,8,3,50,-1031
708,7.948787,4,3,7,-4,47,-1033
709,7.959972,0,7,9,-2,53,-1036
710,7.971154,5,5,9,2,50,-1031
711,7.982336,2,6,11,-1,51,-1028
712,7.993523,4,6,5,-3,56,-1032
713,8.004705,2,7,8,-4,51,-1030
714,8.015888,5,5,8,-3,53,-1036
715,8.027073,3,8,9,0,50,-1036
716,8.038257,2,7,8,0,52,-1031
717,8.049452,2,6,9,-1,54,-1034
718,8.060637,3,6,9,-1,52,-1037
719,8.071823,2,7,8,1,53,-1025
720,8.083006,3,8,9,-4,53,-1032
721,8.094196,3,5,5,-3,50,-1036
722,8.105369,3,6,9,-3,53,-1031
723,8.116555,4,4,8,-1,53,-1033
724,8.12774,4,6,9,-2,54,-1036
725,8.138925,1,6,9,0,52,-1043
726,8.150116,3,9,11,1,53,-1034
727,8.161303,3,5,10,0,50,-1028
728,8.172492,3,5,9,-1,51,-1036
729,8.183676,0,8,9,0,51,-1036
730,8.194862,0,4,10,-2,53,-1037
731,8.206063,1,4,9,-3,52,-1034
732,8.217253,4,6,8,-4,50,-1028
733,8.228435,3,6,8,-2,54,-1035
734,8.239619,3,8,7,4,50,-1040
735,8.250807,3,4,9,-2,49,-1032
736,8.261995,1,6,8,-1,53,-1032
737,8.273189,2,6,9,-4,54,-1035
738,8.284381,0,3,9,-2,54,-1029
739,8.295565,1,6,11,1,51,-1049
740,8.306752,2,6,8,-2,49,-1032
741,8.317935,3,7,7,-3,51,-1032
742,8.329125,2,5,9,-3,55,-1031
743,8.340314,2,5,9,0,49,-1024
744,8.351506,0,7,10,2,53,-1031
745,8.362694,4,6,8,0,54,-1033
746,8.373879,2,6,8,-1,52,-1030
747,8.385067,1,6,9,-4,49,-1031
748,8.396253,2,5,9,-2,50,-1033
749,8.407438,2,6,9,-1,47,-1034
750,8.418626,3,4,11,-4,51,-1036
751,8.429815,3,7,10,-6,53,-1041
752,8.440999,1,7,8,0,51,-1033
753,8.452192,2,2,10,1,51,-1032
754,8.463377,3,5,9,0,52,-1028
755,8.474564,2,4,10,-3,52,-1035
756,8.485741,4,7,10,-2,50,-1034
757,8.49693,2,4,9,-1,53,-1030
758,8.508118,3,7,10,-2,49,-1028
759,8.519306,2,6,11,0,52,-1043
760,8.530496,2,6,10,-3,50,-1026
761,8.541807,2,6,9,-1,50,-1029
762,8.552999,2,9,10,3,55,-1033
763,8.564191,4,5,10,-1,52,-1032
764,8.575379,1,5,11,0,54,-1037
765,8.586563,2,8,8,0,51,-1033
766,8.597751,3,5,10,-4,51,-1032
767,8.608937,3,7,8,-2,49,-1032
768,8.620127,1,6,9,0,50,-1038
769,8.631318,0,7,11,-8,53,-1033
770,8.642513,2,6,9,-3,49,-1030
771,8.653702,4,12,8,-2,50,-1034
772,8.664885,3,6,8,1,49,-1041
773,8.676077,2,6,9,-3,48,-1031
774,8.687264,2,6,8,0,53,-1036
775,8.698445,2,8,8,1,49,-1033
776,8.709634,2,7,9,-6,51,-1033
777,8.720812,3,7,7,-1,51,-1031
778,8.731993,3,5,9,0,56,-1035
779,8.743179,2,8,10,-4,53,-1034
780,8.754363,1,2,8,-1,51,-1038
781,8.765555,2,8,8,-3,49,-1033
782,8.776737,4,6,9,-3,54,-1032
783,8.787925,3,8,10,-1,49,-1030
784,8.799108,0,6,7,-3,53,-1032
785,8.810294,2,5,10,-2,51,-1039
786,8.821488,3,4,10,-1,46,-1035
787,8.83267,2,6,7,-1,51,-1032
788,8.843861,4,6,9,1,49,-1034
789,8.855049,4,7,8,-2,51,-1036
790,8.866242,3,6,8,-4,53,-1035
791,8.877431,3,8,8,-4,53,-1033
792,8.888618,3,9,8,0,47,-1035
793,8.899808,1,9,9,-4,55,-1039
794,8.910993,2,7,9,3,56,-1034
795,8.922179,2,6,8,-1,52,-1034
796,8.933378,2,6,9,0,53,-1035
797,8.944563,1,9,10,-5,53,-1030
798,8.955751,2,1,11,-1,51,-1033
799,8.966934,3,6,7,-2,52,-1036
800,8.978122,1,4,7,-3,52,-1035
801,8.989346,3,5,7,0,51,-1034
802,9.000534,2,6,8,-4,52,-1028
803,9.011717,2,5,10,-2,53,-1033
804,9.0229,2,7,11,-4,48,-1040
805,9.034081,3,4,9,-5,52,-1031
806,9.045266,1,5,8,1,51,-1036
807,9.056447,2,7,10,-3,50,-1037
808,9.067628,3,5,8,0,56,-1028
809,9.078809,2,7,9,2,52,-1034
810,9.089995,3,5,9,-4,49,-1036
811,9.101181,1,6,9,-2,49,-1023
812,9.112364,3,5,11,-1,54,-1034
813,9.123562,2,6,10,0,51,-1033
814,9.134744,1,5,10,-5,48,-1037
815,9.145941,2,6,10,-2,53,-1034
816,9.157127,1,8,9,-4,54,-1038
817,9.16831,2,7,9,-1,48,-1035
818,9.179494,3,7,10,2,54,-1027
819,9.190675,2,8,10,-2,51,-1034
820,9.201864,2,4,10,0,52,-1032
821,9.213054,5,11,10,-3,45,-1034
822,9.224238,1,6,9,-2,51,-1034
823,9.235422,4,8,9,-2,49,-1037
824,9.246606,4,6,8,-3,55,-1030
825,9.257791,3,7,9,-3,50,-1036
826,9.268994,1,5,10,-3,51,-1031
827,9.280176,4,5,8,0,52,-1034
828,9.291362,2,4,8,-1,51,-1032
829,9.302547,3,6,7,-1,52,-1031
830,9.313746,1,4,10,-1,52,-1030
831,9.324931,2,7,11,-2,48,-1034
832,9.336119,1,6,10,-3,53,-1035
833,9.34732,4,8,9,0,46,-1032
834,9.358501,2,7,8,-2,50,-1035
835,9.369686,3,6,9,-4,52,-1030
836,9.380869,0,7,10,0,48,-1033
837,9.392053,2,8,8,0,54,-1038
838,9.403237,2,6,8,0,53,-1035
839,9.414422,0,0,8,-2,52,-1033
840,9.425619,4,9,9,0,50,-1030
841,9.436814,2,5,11,-1,49,-1023
842,9.447997,2,5,12,-2,55,-1037
843,9.459184,4,5,10,0,47,-1033
844,9.47037,4,8,9,-1,52,-1028
845,9.481555,4,7,8,-1,53,-1034
846,9.492739,2,7,11,-1,50,-1028
847,9.503926,3,4,9,2,53,-1028
848,9.515111,4,8,8,-4,56,-1033
849,9.526296,4,11,6,-1,49,-1040
850,9.537484,2,6,10,1,52,-1037
851,9.548668,1,3,10,-2,52,-1035
852,9.559849,3,6,9,-3,47,-1035
853,9.57103,2,4,10,0,47,-1035
854,9.58221,3,6,8,-4,52,-1034
855,9.593371,2,7,8,1,53,-1035
856,9.604552,3,6,11,0,54,-1038
857,9.615751,0,3,8,-1,49,-1033
858,9.626934,4,8,10,-4,52,-1035
859,9.638117,2,4,9,2,52,-1030
860,9.649306,1,9,10,-3,52,-1032
861,9.660493,3,7,10,-3,54,-1032
862,9.671679,2,8,9,0,51,-1033
863,9.682885,4,7,9,2,51,-1030
864,9.694553,3,3,8,0,55,-1033
865,9.706233,3,5,8,-4,53,-1040
866,9.717926,2,5,10,-2,53,-1033
867,9.72961,2,4,8,-1,49,-1032
868,9.741291,2,7,8,-2,53,-1028
869,9.752979,2,6,8,-6,51,-1029
870,9.764623,2,8,10,-3,48,-1034
871,9.776293,2,6,11,-4,52,-1027
872,9.787971,3,5,8,-1,52,-1035
873,9.799539,0,6,8,-6,51,-1033
874,9.811089,4,6,7,-2,60,-1034
875,9.822641,2,6,9,-4,55,-1032
876,9.834201,3,5,7,-3,50,-1034
877,9.84577,3,5,10,-4,51,-1032
878,9.857339,4,6,12,-1,52,-1032
879,9.868906,2,8,8,0,50,-1030
880,9.880474,5,7,8,0,50,-1031
881,9.892124,3,5,11,0,53,-1031
882,9.903803,3,6,11,-3,49,-1037
883,9.915459,3,5,9,0,53,-1037
884,9.927104,3,6,8,-1,52,-1035
885,9.938758,3,5,10,-2,52,-1034
886,9.950449,0,6,10,0,52,-1036
887,9.962134,3,5,9,-2,51,-1027
888,9.973826,3,6,9,-4,51,-1034
889,9.985503,3,5,9,0,50,-1032
890,9.997082,4,7,10,2,49,-1033
891,10.008646,3,6,8,-2,53,-1038
892,10.020199,3,5,6,0,54,-1034
893,10.031769,4,5,11,4,52,-1036
894,10.043315,3,6,9,0,52,-1032
895,10.054857,3,8,9,-1,52,-1037
896,10.066403,2,7,9,-1,50,-1036
897,10.07798,4,7,10,-2,50,-1031
898,10.089598,4,5,7,-1,54,-1031
899,10.101298,2,7,11,-1,50,-1033
900,10.112982,3,5,9,0,50,-1033
901,10.124627,2,6,10,1,50,-1038
902,10.136302,2,4,10,-1,52,-1030
903,10.147955,3,7,10,-5,52,-1040
904,10.159611,2,6,9,0,52,-1040
905,10.171278,4,7,9,-4,54,-1030
906,10.182946,1,8,9,-4,51,-1034
907,10.194605,4,10,8,0,46,-1036
908,10.206186,2,6,10,-2,54,-1031
909,10.217771,2,5,8,-2,47,-1029
910,10.22933,4,5,9,0,51,-1037
911,10.240847,2,7,10,-3,51,-1030
912,10.252393,4,5,10,-1,52,-1032
913,10.263943,1,5,7,-3,52,-1036
914,10.275524,1,5,9,-1,53,-1030
915,10.287105,1,7,10,-5,50,-1032
916,10.298762,1,5,9,-3,51,-1030
917,10.31046,2,7,8,-3,51,-1030
918,10.322132,1,4,8,-1,49,-1036
919,10.333822,2,5,10,-4,53,-1033
920,10.345503,3,4,9,0,52,-1038
921,10.357118,3,6,10,1,53,-1032
922,10.368769,2,6,9,-1,52,-1039
923,10.380456,4,5,9,-3,52,-1032
924,10.392123,3,5,8,2,53,-1034
925,10.403778,3,6,10,-5,54,-1036
926,10.415327,2,5,11,-7,53,-1034
927,10.426874,3,4,11,-4,53,-1036
928,10.438425,3,4,9,-1,49,-1035
929,10.450023,2,6,8,-2,53,-1030
930,10.461591,3,7,8,-1,56,-1033
931,10.473153,0,6,9,-3,50,-1030
932,10.484703,1,6,9,-1,46,-1032
933,10.49632,4,6,8,0,51,-1032
934,10.507946,1,7,9,0,49,-1038
935,10.519611,3,6,9,1,49,-1034
936,10.531276,3,7,11,-1,54,-1028
937,10.542932,1,7,9,-4,51,-1035
938,10.55458,3,5,7,-3,53,-1036
939,10.566293,4,9,9,-1,53,-1043
940,10.577958,4,7,10,0,49,-1030
941,10.58963,1,5,9,-2,51,-1037
942,10.601362,2,4,8,-1,48,-1031
943,10.613016,2,6,10,-7,53,-1031
944,10.624669,1,5,8,-1,52,-1036
945,10.636332,2,7,10,1,53,-1032
946,10.647982,2,6,9,-1,51,-1038
947,10.65967,5,7,10,3,53,-1039
948,10.671323,1,6,9,-1,51,-1034
949,10.682976,3,5,9,0,51,-1036
950,10.694633,3,5,9,-4,52,-1036
951,10.706337,2,9,9,2,53,-1030
952,10.71803,0,8,9,-1,56,-1037
953,10.729692,2,9,7,-4,50,-1028
954,10.741363,1,5,9,-4,48,-1036
955,10.753031,6,5,8,-6,51,-1034
956,10.764687,3,6,10,0,50,-1027
957,10.776357,2,8,8,0,51,-1037
958,10.78809,3,6,9,-2,48,-1032
959,10.799761,2,7,8,-5,52,-1034
960,10.811533,2,6,8,-4,51,-1035
961,10.823205,1,8,7,-6,53,-1032
962,10.834766,2,5,9,-2,53,-1032
963,10.846312,1,7,9,-4,54,-1036
964,10.857866,3,5,10,0,51,-1033
965,10.869409,3,5,9,-5,50,-1035
966,10.880997,4,8,10,-4,51,-1030
967,10.892548,3,6,9,-3,51,-1033
968,10.904094,1,4,10,-2,50,-1036
969,10.915655,3,5,9,-2,54,-1041
970,10.927351,2,5,8,0,53,-1035
971,10.939022,3,7,10,1,52,-1034
972,10.950676,3,8,9,-3,51,-1024
973,10.962334,3,4,7,0,51,-1032
974,10.974036,1,8,9,-1,47,-1033
975,10.985693,3,7,8,-5,47,-1034
976,10.997362,3,6,10,0,52,-1033
977,11.009041,2,7,9,-2,52,-1032
978,11.020696,1,8,8,-1,51,-1031
979,11.032345,3,6,9,-1,52,-1037
980,11.044009,1,7,9,-1,51,-1033
981,11.055673,4,5,9,-5,55,-1033
982,11.067321,3,7,7,0,52,-1036
983,11.078998,2,10,10,-3,53,-1029
984,11.090662,3,3,10,-2,53,-1035
985,11.102324,4,6,7,0,51,-1034
986,11.114013,4,5,8,-1,51,-1039
987,11.125686,4,5,10,0,54,-1036
988,11.137263,1,5,10,-3,54,-1034
989,11.148831,2,5,8,-3,51,-1034
990,11.160372,2,4,10,-2,51,-1036
991,11.171918,1,7,9,-6,53,-1033
992,11.183495,3,8,8,-1,54,-1033
993,11.195062,3,8,7,-2,52,-1038
994,11.206627,3,6,7,0,54,-1036
995,11.218185,2,4,9,-1,53,-1033
996,11.229796,1,8,9,-1,52,-1038
997,11.241446,2,7,9,2,57,-1039
998,11.253132,3,6,7,-4,54,-1037
999,11.264789,4,7,9,0,50,-1031
1000,11.276451,3,4,11,-2,52,-1032
1001,11.28811,3,6,8,0,53,-1036
1002,11.299764,3,5,10,-2,52,-1035
1003,11.31142,3,7,9,-4,51,-1030
1004,11.323081,2,4,8,-1,52,-1030
1005,11.334755,2,5,9,-1,51,-1034
1006,11.346456,4,5,11,-3,53,-1030
1007,11.35815,4,6,9,0,50,-1042
1008,11.36982,4,6,8,2,52,-1029
1009,11.381502,2,6,7,-1,50,-1032
1010,11.393175,3,6,8,0,50,-1037
1011,11.40485,3,7,9,-2,49,-1033
1012,11.416505,2,4,9,-3,46,-1035
1013,11.428195,2,9,10,-2,51,-1033
1014,11.4399,1,4,9,-2,49,-1032
1015,11.451571,2,6,9,0,51,-1032
1016,11.463137,0,7,10,0,47,-1030
1017,11.474704,1,8,12,-7,53,-1028
1018,11.48628,3,7,9,0,53,-1033
1019,11.497813,2,5,8,0,51,-1037
1020,11.509386,2,7,9,-3,47,-1035
1021,11.520921,1,4,9,-4,49,-1030
1022,11.532471,0,7,9,-4,50,-1036
1023,11.54403,3,4,9,1,54,-1030
1024,11.555653,2,5,9,-5,51,-1030
1025,11.567385,4,6,7,0,51,-1031
1026,11.579047,4,6,8,0,48,-1034
1027,11.590709,2,5,9,-4,53,-1030
1028,11.602394,3,8,9,0,51,-1031
1029,11.614065,4,6,9,1,53,-1039
1030,11.625709,5,8,9,0,50,-1033
1031,11.637372,2,4,10,0,48,-1035
1032,11.649063,3,4,8,0,48,-1029
1033,11.660776,3,7,9,-5,52,-1029
1034,11.672372,1,4,9,-6,51,-1032
1035,11.683917,2,7,9,0,52,-1029
1036,11.69546,4,4,9,-4,49,-1035
1037,11.70701,3,7,8,-6,53,-1033
1038,11.718555,3,5,11,0,53,-1035
1039,11.73011,3,7,8,-1,50,-1035
1040,11.741685,3,4,9,-2,50,-1027
1041,11.753273,3,6,9,-5,51,-1036
1042,11.76497,4,6,9,0,53,-1034
1043,11.776642,4,6,10,-1,53,-1034
1044,11.788303,4,7,10,-2,53,-1039
1045,11.799951,3,6,9,-3,52,-1034
1046,11.811608,3,3,8,0,50,-1035
1047,11.823257,3,6,9,0,57,-1030
1048,11.83491,2,5,11,-3,54,-1034
1049,11.846562,3,6,9,-3,46,-1035
1050,11.85821,3,7,7,-3,48,-1033
1051,11.869766,5,5,9,-2,56,-1031
1052,11.881332,0,6,10,-3,48,-1033
1053,11.892847,5,6,9,-4,52,-1035
1054,11.904388,3,7,11,2,48,-1031
1055,11.915933,5,5,10,-1,49,-1036
1056,11.927526,3,6,9,0,50,-1031
1057,11.939096,1,6,10,-3,51,-1033
1058,11.950639,4,8,7,-4,52,-1037
1059,11.9622,2,5,10,0,51,-1038
1060,11.973838,4,5,7,0,54,-1033
1061,11.985529,2,4,10,0,52,-1035
1062,11.997188,1,5,8,-2,53,-1032
1063,12.00886,4,7,9,0,53,-1034
1064,12.020505,2,7,7,-4,50,-1034
1065,12.032164,3,6,8,-4,49,-1033
1066,12.043818,1,4,9,-4,47,-1027
1067,12.055481,1,6,9,-5,50,-1035
1068,12.067148,1,6,10,-1,50,-1032
1069,12.078807,2,7,8,-2,46,-1029
1070,12.090366,4,4,9,-1,52,-1031
1071,12.101938,4,4,10,1,52,-1034
1072,12.113507,1,9,9,0,49,-1028
1073,12.125087,2,7,10,0,51,-1031
1074,12.136639,1,7,8,0,53,-1039
1075,12.148189,2,6,9,-3,49,-1032
1076,12.159755,2,6,9,-6,48,-1034
1077,12.171317,4,8,7,-1,57,-1036
1078,12.182945,3,6,9,-1,53,-1028
1079,12.194599,1,7,10,0,45,-1031
1080,12.206291,2,7,9,-1,49,-1038
1081,12.217949,2,4,7,-4,54,-1040
1082,12.229659,1,7,10,-3,51,-1030
1083,12.241306,2,7,8,0,53,-1031
1084,12.252981,3,8,7,-4,51,-1034
1085,12.264651,1,5,7,-1,48,-1029
1086,12.276317,2,7,11,0,52,-1031
1087,12.287964,3,5,10,-4,48,-1036
1088,12.299543,2,5,9,-5,52,-1040
1089,12.311092,2,5,9,1,53,-1032
1090,12.32264,2,6,11,2,53,-1028
1091,12.334225,3,6,7,-3,52,-1036
1092,12.345802,1,7,10,1,51,-1032
1093,12.357334,3,5,10,-4,49,-1036
1094,12.368849,2,6,10,-6,49,-1039
1095,12.380402,3,7,10,0,50,-1038
1096,12.392037,3,7,9,-1,48,-1031
1097,12.403686,2,6,9,-3,52,-1037
1098,12.415335,2,6,8,-2,51,-1034
1099,12.427009,1,6,10,-1,51,-1031
1100,12.438667,4,6,9,2,50,-1035
1101,12.45033,1,5,8,-5,57,-1027
1102,12.462009,3,6,8,-3,51,-1034
1103,12.47364,2,3,9,1,53,-1029
1104,12.485327,2,5,10,-4,51,-1038
1105,12.496991,5,6,9,-1,46,-1034
1106,12.508556,5,5,11,-1,50,-1031
1107,12.520131,2,6,11,-4,55,-1031
1108,12.531685,3,6,12,-2,52,-1029
1109,12.543254,2,7,10,-7,50,-1031
1110,12.554802,5,7,7,1,51,-1037
1111,12.566346,4,5,11,-3,47,-1029
1112,12.577892,2,6,10,-2,48,-1031
1113,12.589466,2,6,8,0,50,-1032
1114,12.601126,2,8,8,-2,53,-1029
1115,12.612793,3,6,10,0,53,-1039
1116,12.624443,3,6,10,-3,52,-1027
1117,12.636098,3,7,8,-3,51,-1035
1118,12.647792,3,6,8,0,52,-1034
1119,12.659663,1,7,9,1,47,-1030
1120,12.67148,1,5,8,-1,51,-1028
1121,12.683139,2,6,8,-2,51,-1033
1122,12.694932,2,7,8,2,50,-1034
1123,12.706612,2,6,9,-5,55,-1036
1124,12.71821,3,5,8,-8,51,-1030
1125,12.729763,0,7,8,-3,53,-1027
1126,12.741323,2,6,10,-3,50,-1041
1127,12.75285,2,6,9,-1,50,-1028
1128,12.764399,4,2,9,1,51,-1030
1129,12.775949,3,8,9,-2,53,-1035
1130,12.787507,2,6,10,0,52,-1029
1131,12.7991,3,8,8,-3,53,-1034
1132,12.810796,1,7,9,-1,51,-1033
1133,12.822451,3,7,9,0,52,-1027
1134,12.83416,3,3,10,-4,54,-1033
1135,12.845819,1,7,9,-4,52,-1034
1136,12.857523,3,7,8,0,51,-1035
1137,12.869182,2,5,6,-1,50,-1031
1138,12.880851,2,8,9,-3,52,-1030
1139,12.892521,2,5,10,-3,53,-1030
1140,12.904194,1,5,8,-1,48,-1031
1141,12.915883,3,5,7,0,51,-1035
1142,12.927467,3,8,8,-3,53,-1029
1143,12.939027,2,6,9,-3,50,-1034
1144,12.950625,4,7,7,0,52,-1030
1145,12.962188,3,6,8,-2,54,-1033
1146,12.973756,2,7,8,-1,51,-1033
1147,12.98533,3,6,7,-4,50,-1035
1148,12.996887,2,6,9,-4,53,-1026
1149,13.008472,4,5,10,-2,56,-1034
1150,13.020103,2,7,11,-3,52,-1035
1151,13.031806,3,6,8,-2,51,-1033
1152,13.043478,1,5,9,-1,50,-1032
1153,13.055125,4,4,11,-1,54,-1034
1154,13.066806,3,6,9,-1,49,-1031
1155,13.078464,1,5,11,-2,53,-1031
1156,13.090152,5,6,9,-1,51,-1037
1157,13.101817,2,7,11,-2,52,-1031
1158,13.113543,2,5,9,-2,51,-1041
1159,13.125191,3,6,7,0,49,-1037
1160,13.136748,2,6,9,-5,53,-1028
1161,13.148315,3,8,10,-2,50,-1038
1162,13.159878,2,6,9,2,50,-1031
1163,13.171432,4,7,10,-1,51,-1034
1164,13.182994,4,6,11,-1,50,-1031
1165,13.194536,2,5,9,-2,50,-1032
1166,13.2061,2,6,12,-1,54,-1031
1167,13.217664,3,4,8,0,53,-1034
1168,13.229346,2,7,8,0,48,-1032
1169,13.241024,2,7,9,-5,52,-1037
1170,13.252678,3,4,10,-4,52,-1034
1171,13.264333,1,6,9,-4,51,-1035
1172,13.276006,3,7,9,-3,50,-1031
1173,13.287661,1,7,9,-3,57,-1027
1174,13.299318,3,5,10,-1,56,-1045
1175,13.310972,2,5,8,-1,50,-1033
1176,13.322629,2,6,9,-2,50,-1032
1177,13.334301,3,6,10,-2,49,-1038
1178,13.345862,3,5,8,-1,53,-1028
1179,13.35741,2,5,10,-4,50,-1033
1180,13.368971,5,7,10,-6,46,-1028
1181,13.380524,4,7,10,-2,51,-1035
1182,13.392122,2,7,9,1,48,-1036
1183,13.403669,1,5,10,-1,50,-1043
1184,13.415259,1,6,10,-1,53,-1032
1185,13.426818,3,5,7,-2,48,-1037
1186,13.438441,3,6,7,-3,55,-1030
1187,13.450127,2,7,9,-4,55,-1034
1188,13.461785,3,7,10,0,53,-1037
1189,13.473442,3,6,7,-3,48,-1027
1190,13.485122,3,6,11,0,52,-1041
1191,13.496775,2,6,8,-1,50,-1025
1192,13.508443,0,6,8,-4,49,-1035
1193,13.520109,3,4,10,-4,53,-1031
1194,13.531796,2,6,8,-3,50,-1033
1195,13.543442,3,8,10,-1,52,-1034
1196,13.555003,2,6,8,0,53,-1035
1197,13.566577,3,7,10,-3,50,-1035
1198,13.578128,4,6,9,-1,52,-1036
1199,13.589692,3,7,10,-2,50,-1035
1200,13.60126,1,5,11,0,53,-1037
1201,13.612832,1,7,9,-2,50,-1033
1202,13.624383,2,6,10,-4,50,-1031
1203,13.63602,2,7,11,2,51,-1037
1204,13.647668,2,5,9,-3,50,-1033
1205,13.659328,1,7,9,-2,53,-1039
1206,13.671003,3,5,10,0,52,-1026
1207,13.682663,3,7,9,-3,54,-1031
1208,13.694318,2,6,10,0,51,-1030
1209,13.706014,2,7,8,-1,52,-1034
1210,13.717643,2,6,8,0,52,-1033
1211,13.729305,3,7,10,-3,51,-1035
1212,13.740986,1,5,8,-1,50,-1038
1213,13.752645,1,6,8,-4,47,-1030
1214,13.764295,3,7,8,0,48,-1033
1215,13.775943,3,7,11,-2,52,-1032
1216,13.787614,1,6,10,-4,51,-1035
1217,13.799286,2,4,5,-1,49,-1033
1218,13.81092,3,5,11,-3,52,-1033
1219,13.822567,2,6,7,1,54,-1031
1220,13.834216,4,6,10,1,52,-1028
1221,13.845925,3,7,10,-2,49,-1029
1222,13.857604,2,4,9,0,48,-1031
1223,13.869288,0,6,8,0,51,-1031
1224,13.880931,5,5,10,1,53,-1035
1225,13.892574,1,6,8,-4,52,-1033
1226,13.904231,2,6,9,1,52,-1033
1227,13.915895,4,5,9,-1,52,-1035
1228,13.927541,1,6,9,-3,49,-1034
1229,13.939185,3,4,8,-1,50,-1032
1230,13.950863,2,6,8,-4,49,-1039
1231,13.962536,3,5,8,-2,49,-1028
1232,13.974188,2,8,8,0,52,-1032
1233,13.985866,2,7,9,-2,50,-1035
1234,13.99754,5,6,9,0,50,-1038
1235,14.00922,1,7,9,-4,50,-1037
1236,14.020859,3,6,9,-2,53,-1029
1237,14.032526,3,5,8,0,56,-1036
1238,14.044172,2,6,10,1,55,-1035
1239,14.055831,3,6,7,0,53,-1034
1240,14.067508,3,6,10,-1,49,-1035
1241,14.079096,3,6,9,-3,54,-1032
1242,14.09064,1,5,10,0,54,-1028
1243,14.102199,1,5,9,-1,50,-1032
1244,14.113754,2,4,10,-5,50,-1036
1245,14.125334,2,6,11,-2,50,-1034
1246,14.136849,3,7,10,-2,51,-1035
1247,14.148398,3,4,10,-2,53,-1030
1248,14.160009,2,7,7,0,52,-1026
1249,14.171661,1,6,7,-2,55,-1035
1250,14.183322,4,6,8,1,51,-1031
1251,14.194965,2,5,7,-2,53,-1033
1252,14.206614,3,5,10,-4,52,-1028
1253,14.218296,2,6,7,-4,51,-1029
1254,14.230043,1,7,10,-1,53,-1034
1255,14.241706,5,7,9,0,49,-1034
1256,14.253392,2,5,10,-3,50,-1036
1257,14.265131,2,7,8,-3,45,-1034
1258,14.276858,1,8,9,-2,49,-1034
1259,14.288429,3,6,10,0,55,-1036
1260,14.299992,3,4,11,-1,52,-1042
1261,14.311547,3,5,8,-5,55,-1039
1262,14.323108,3,7,7,-1,50,-1032
1263,14.334649,2,8,9,-1,53,-1034
1264,14.346218,3,6,9,-3,51,-1036
1265,14.357796,2,5,9,2,50,-1037
1266,14.369344,3,6,8,-1,52,-1029
1267,14.380989,0,4,8,-1,53,-1042
1268,14.392646,3,6,10,-1,49,-1041
1269,14.404304,3,3,9,-2,49,-1032
1270,14.415952,1,5,7,2,53,-1035
1271,14.4276,4,6,9,0,53,-1032
1272,14.439282,4,6,9,2,53,-1031
1273,14.450921,3,5,9,-1,55,-1031
1274,14.462572,3,6,8,-2,50,-1033
1275,14.474245,3,6,8,-4,50,-1035
1276,14.485907,3,6,10,-3,51,-1031
1277,14.497502,3,7,9,-3,48,-1034
1278,14.509104,3,7,10,0,51,-1036
1279,14.520659,1,7,6,2,51,-1031
1280,14.532249,3,6,7,1,50,-1032
1281,14.543788,3,8,8,-4,50,-1037
1282,14.555328,2,3,9,-2,52,-1036
1283,14.566875,2,6,10,-8,54,-1031
1284,14.578451,3,5,9,-2,54,-1037
1285,14.590085,3,7,10,-1,52,-1038
1286,14.601784,3,7,9,2,50,-1030
1287,14.613452,4,6,8,1,53,-1034
1288,14.625122,2,4,8,-4,53,-1032
1289,14.636803,3,6,10,0,52,-1034
1290,14.648468,3,6,7,-6,51,-1034
1291,14.660168,3,7,10,-3,50,-1033
1292,14.671823,2,5,10,-1,52,-1029
1293,14.683507,5,8,9,0,55,-1031
1294,14.695194,1,7,9,1,50,-1036
1295,14.706759,2,4,11,-5,53,-1034
1296,14.718307,2,6,7,0,54,-1032
1297,14.729868,3,7,9,-4,53,-1035
1298,14.741464,2,6,10,-2,52,-1027
1299,14.753016,2,6,9,-4,55,-1030
1300,14.764565,5,4,8,-3,52,-1037
1301,14.776119,2,6,9,-3,51,-1028
1302,14.787681,4,7,7,-5,52,-1033
1303,14.79935,2,5,9,-1,55,-1034
1304,14.811026,3,6,10,0,54,-1034
1305,14.822687,3,4,8,-2,52,-1038
1306,14.834373,2,6,8,-3,53,-1036
1307,14.846039,1,8,8,-1,49,-1033
1308,14.857705,2,7,10,0,49,-1040
1309,14.869392,3,5,9,-1,51,-1033
1310,14.881047,2,6,8,0,55,-1034
1311,14.892752,2,6,10,1,53,-1030
1312,14.904431,2,8,9,-2,52,-1031
1313,14.915998,3,4,7,-1,50,-1032
1314,14.92755,2,6,10,0,54,-1041
1315,14.939099,2,4,9,-2,50,-1039
1316,14.950649,3,6,9,-6,51,-1034
1317,14.96222,2,7,10,-3,49,-1034
1318,14.973801,2,8,10,0,48,-1036
1319,14.985372,3,6,8,-5,51,-1029
1320,14.996989,1,4,9,-2,50,-1029
1321,15.008641,3,6,8,-1,53,-1033
1322,15.020298,3,8,8,-1,54,-1028
1323,15.031941,1,7,8,-1,54,-1031
1324,15.043588,4,6,9,-2,53,-1026
1325,15.055268,2,6,7,-2,50,-1034
1326,15.066908,4,5,9,-1,54,-1033
1327,15.078557,0,6,7,-1,49,-1027
1328,15.090222,4,7,13,-1,54,-1030
1329,15.101902,2,7,7,-5,48,-1033
1330,15.11356,4,6,10,-4,52,-1036
1331,15.125249,2,7,10,0,45,-1035
1332,15.136907,4,4,8,2,51,-1034
1333,15.148558,2,4,8,-1,52,-1032
1334,15.160221,3,7,9,0,56,-1041
1335,15.171888,3,6,10,-2,59,-1031
1336,15.183542,3,7,11,0,53,-1032
1337,15.195189,3,7,7,-2,56,-1037
1338,15.206877,2,5,9,-1,52,-1035
1339,15.218537,4,6,7,-4,55,-1025
1340,15.230194,3,6,8,2,50,-1034
1341,15.241894,0,7,10,1,51,-1033
1342,15.253557,2,6,7,1,48,-1034
1343,15.265257,3,8,9,-2,47,-1036
1344,15.276911,1,8,8,-6,54,-1035
1345,15.288561,2,5,9,-2,50,-1040
1346,15.300203,2,5,7,0,53,-1029
1347,15.311882,2,6,8,-3,51,-1026
1348,15.323541,2,6,8,0,50,-1032
1349,15.335181,1,8,9,0,54,-1029
1350,15.34684,1,5,8,-3,51,-1034
1351,15.358508,2,6,11,-1,53,-1035
1352,15.370153,2,6,10,-1,52,-1034
1353,15.381818,2,6,9,3,52,-1028
1354,15.39351,2,7,9,-2,49,-1034
1355,15.405173,3,6,8,-1,51,-1033
1356,15.416867,2,5,9,-3,48,-1033
1357,15.428539,2,5,8,2,52,-1032
1358,15.440105,3,8,8,-3,52,-1032
1359,15.451652,2,6,9,-2,50,-1031
1360,15.463198,2,6,8,1,53,-1031
1361,15.474766,1,6,9,-3,55,-1034
1362,15.486316,4,5,9,-1,55,-1035
1363,15.497867,2,6,7,-2,52,-1032
1364,15.509411,1,7,9,-2,53,-1037
1365,15.52099,3,5,9,-1,49,-1033
1366,15.532611,4,7,9,-2,50,-1036
1367,15.544276,4,6,11,-4,50,-1038
1368,15.555926,2,6,10,-5,50,-1031
1369,15.567581,3,8,10,-1,52,-1031
1370,15.579228,3,6,9,-1,54,-1030
1371,15.590885,4,4,9,-2,55,-1040
1372,15.602542,3,6,11,0,51,-1031
1373,15.614191,2,4,7,-1,51,-1034
1374,15.6259,2,4,8,-5,50,-1036
1375,15.63757,2,5,9,-4,48,-1038
1376,15.649146,2,6,9,-4,50,-1038
1377,15.660698,4,7,9,-2,50,-1037
1378,15.672247,2,9,8,-3,49,-1036
1379,15.683842,2,5,9,-2,49,-1034
1380,15.695385,3,4,7,-4,50,-1036
1381,15.706922,3,6,8,-5,50,-1028
1382,15.718468,2,4,9,-1,53,-1029
1383,15.730053,2,5,9,-3,53,-1028
1384,15.741674,4,8,10,2,50,-1029
1385,15.753358,3,5,9,-3,50,-1034
1386,15.765023,4,5,9,-3,52,-1034
1387,15.776675,2,4,10,-5,52,-1030
1388,15.788333,1,7,9,-5,53,-1035
1389,15.799988,3,7,9,-1,48,-1036
1390,15.811642,2,7,11,0,53,-1027
1391,15.823294,3,6,13,0,50,-1034
1392,15.834947,5,7,9,-3,53,-1035
1393,15.846607,5,5,10,0,50,-1039
1394,15.858206,3,4,9,-5,52,-1027
1395,15.869775,4,7,8,0,52,-1035
1396,15.881371,2,5,11,-3,51,-1034
1397,15.892974,4,6,9,-5,49,-1033
1398,15.904526,4,8,7,-1,55,-1032
1399,15.916076,5,6,9,0,50,-1032
1400,15.927624,2,5,11,-1,52,-1036
1401,15.939182,3,6,9,-5,54,-1040
1402,15.950806,1,5,9,-1,51,-1032
1403,15.962464,2,5,9,-2,53,-1029
1404,15.974163,4,8,9,-4,52,-1035
1405,15.985816,1,8,9,-2,54,-1032
1406,15.997517,2,6,9,0,51,-1036
1407,16.0092,2,4,10,-3,49,-1032
1408,16.020869,2,8,10,-3,53,-1029
1409,16.032533,3,6,11,-1,52,-1030
1410,16.044198,4,5,9,-4,48,-1027
1411,16.055866,1,7,9,0,50,-1027
1412,16.067417,1,2,9,2,49,-1031
1413,16.078968,2,7,10,1,52,-1028
1414,16.090511,3,6,9,3,47,-1035
1415,16.102053,3,5,8,-3,54,-1030
1416,16.113574,2,6,8,-3,53,-1036
1417,16.12509,2,5,8,0,58,-1040
1418,16.136638,3,4,9,-1,53,-1031
1419,16.148215,1,7,8,-1,52,-1029
1420,16.159875,1,5,8,-2,51,-1046
1421,16.171528,2,7,7,-2,52,-1033
1422,16.183169,4,6,10,-2,55,-1034
1423,16.194817,4,8,9,-6,51,-1038
1424,16.206489,1,8,9,-2,48,-1026
1425,16.21815,4,7,9,0,52,-1038
1426,16.229811,3,7,8,-4,50,-1033
1427,16.241503,3,4,10,-1,47,-1030
1428,16.253173,2,7,9,0,56,-1034
1429,16.264845,3,8,9,1,52,-1028
1430,16.276507,2,5,11,-3,50,-1031
1431,16.288154,2,5,8,-1,52,-1029
1432,16.29981,1,5,8,-3,50,-1031
1433,16.311456,2,6,8,-1,52,-1036
1434,16.323105,1,7,10,-2,47,-1036
1435,16.334775,2,5,9,-3,51,-1034
1436,16.34642,2,7,9,0,52,-1036
1437,16.3581,1,8,10,-5,51,-1029
1438,16.369778,3,4,9,0,53,-1038
1439,16.38145,4,7,9,-6,52,-1034
1440,16.393125,0,4,8,-2,52,-1030
1441,16.40478,2,7,9,-1,53,-1036
1442,16.416427,3,7,10,4,52,-1032
1443,16.428073,3,6,9,-4,49,-1031
1444,16.439745,2,6,8,-1,52,-1040
1445,16.451399,3,8,10,-1,52,-1032
1446,16.463079,3,4,10,0,48,-1035
1447,16.474753,4,5,9,-2,50,-1038
1448,16.486348,2,6,9,-3,52,-1033
1449,16.497967,3,7,10,-1,54,-1033
1450,16.509513,4,4,8,0,48,-1033
1451,16.521083,2,6,11,-1,54,-1034
1452,16.532638,2,8,10,3,49,-1031
1453,16.544215,1,6,9,0,49,-1024
1454,16.555753,1,5,10,0,48,-1030
1455,16.567296,2,6,8,-4,50,-1036
1456,16.578964,2,5,9,-1,53,-1032
1457,16.590629,3,5,10,1,52,-1035
1458,16.602299,3,6,8,-4,53,-1027
1459,16.613977,4,7,7,-3,45,-1031
1460,16.625639,1,8,10,0,51,-1034
1461,16.637297,3,8,11,-1,49,-1030
1462,16.648987,3,5,9,0,52,-1035
1463,16.660651,4,6,8,-2,51,-1037
1464,16.672324,1,7,8,-5,51,-1036
1465,16.683979,2,6,10,0,48,-1029
1466,16.695534,4,5,9,1,51,-1039
1467,16.707086,2,5,10,3,49,-1030
1468,16.718635,3,5,9,-3,54,-1029
1469,16.730207,3,7,9,-4,56,-1038
1470,16.741756,2,7,9,-5,52,-1031
1471,16.753371,3,7,9,-1,50,-1036
1472,16.764915,2,3,9,-3,55,-1038
1473,16.776473,4,6,10,0,50,-1035
1474,16.788119,2,7,10,-4,52,-1031
1475,16.799775,0,5,10,-2,58,-1033
1476,16.81142,3,7,10,-2,55,-1032
1477,16.823068,3,6,10,-2,53,-1040
1478,16.834761,3,7,10,0,52,-1025
1479,16.84641,3,8,9,-2,49,-1028
1480,16.858062,4,8,10,0,50,-1034
1481,16.86975,3,7,9,-4,57,-1036
1482,16.881387,3,7,9,-4,49,-1041
1483,16.893045,3,6,7,-3,49,-1038
1484,16.904608,2,5,9,-12,54,-1036
1485,16.916183,3,6,9,1,50,-1021
1486,16.927736,3,7,8,1,50,-1038
1487,16.939322,2,5,8,-4,55,-1033
1488,16.950902,3,7,9,-4,53,-1038
1489,16.962462,4,5,8,-6,54,-1026
1490,16.97404,2,4,11,-1,51,-1038
1491,16.98559,2,8,9,-2,50,-1028
1492,16.997251,2,5,9,1,54,-1034
1493,17.008915,0,6,9,-1,50,-1037
1494,17.020586,6,7,11,0,51,-1041
1495,17.032263,1,6,9,-1,50,-1034
1496,17.043924,5,9,10,-1,51,-1027
1497,17.055568,4,8,7,-1,47,-1032
1498,17.067235,3,7,13,-3,54,-1033
1499,17.078906,3,9,10,-4,51,-1035
1500,17.090561,2,8,7,1,50,-1042
1501,17.102246,3,9,6,3,50,-1026
1502,17.11384,4,6,8,1,52,-1042
1503,17.125412,2,9,9,1,53,-1033
1504,17.136978,3,7,11,-4,52,-1039
1505,17.148524,1,8,9,-4,51,-1037
1506,17.160077,5,6,9,-3,50,-1025
1507,17.171625,-4,7,9,-7,51,-1002
1508,17.183202,7,1,8,3,66,-1053
1509,17.194767,6,6,12,4,49,-1040
1510,17.206387,-6,9,9,1,45,-1022
1511,17.218046,16,5,8,0,53,-1051
1512,17.229699,0,6,10,-6,37,-1018
1513,17.241376,-8,8,8,-9,54,-1029
1514,17.253036,8,3,9,-11,49,-1037
1515,17.264684,-4,8,9,-3,41,-1024
1516,17.276331,0,3,10,4,53,-1047
1517,17.288005,8,4,9,7,49,-1029
1518,17.29966,4,7,7,5,50,-1033
1519,17.311316,4,7,7,0,56,-1051
1520,17.322875,5,6,11,-8,57,-1031
1521,17.334461,3,6,11,-4,51,-1039
1522,17.34604,4,7,9,-5,48,-1033
1523,17.35758,5,9,10,-3,46,-1023
1524,17.369134,3,9,9,5,49,-1028
1525,17.380707,4,8,9,1,50,-1042
1526,17.39226,2,8,10,0,54,-1035
1527,17.403864,0,10,10,0,53,-1031
1528,17.415492,5,10,8,-9,57,-1033
1529,17.427143,3,8,8,-6,55,-1035
1530,17.438794,2,9,8,4,53,-1024
1531,17.450455,3,8,9,2,53,-1025
1532,17.462133,4,6,10,2,51,-1039
1533,17.4738,2,6,9,-1,52,-1031
1534,17.485467,6,6,8,-1,52,-1034
1535,17.497146,4,3,10,0,44,-1031
1536,17.508811,0,-4,11,4,45,-1028
1537,17.52048,8,7,11,0,50,-1027
1538,17.532037,0,5,10,-2,42,-1032
1539,17.543597,0,6,9,4,54,-1047
1540,17.555169,5,8,9,1,54,-1011
1541,17.566714,-1,5,10,-5,54,-1022
1542,17.578289,3,2,10,-6,54,-1045
1543,17.589815,6,8,9,-8,51,-1027
1544,17.601336,1,6,9,-3,50,-1040
1545,17.612858,6,7,8,3,53,-1031
1546,17.624518,-5,8,8,4,43,-1026
1547,17.636174,3,9,8,0,55,-1047
1548,17.647843,7,8,9,-5,50,-1030
1549,17.659499,3,8,9,-2,55,-1049
1550,17.671154,4,8,10,-6,49,-1029
1551,17.682814,2,6,10,-4,52,-1036
1552,17.694487,7,12,10,-1,53,-1033
1553,17.706152,3,8,10,0,47,-1039
1554,17.717824,-2,11,8,1,49,-1033
1555,17.729391,1,9,11,-4,60,-1033
1556,17.740971,0,12,11,-3,45,-1023
1557,17.752541,-2,11,10,3,53,-1026
1558,17.764087,8,8,9,6,55,-1031
1559,17.775627,6,7,10,5,48,-1030
1560,17.787167,1,7,8,7,53,-1036
1561,17.798717,6,6,9,2,51,-1029
1562,17.810327,3,6,7,0,52,-1031
1563,17.821889,3,6,10,-2,49,-1032
1564,17.83353,3,2,10,-1,50,-1032
1565,17.845183,5,4,9,-1,47,-1038
1566,17.856882,4,7,8,6,44,-1030
1567,17.86854,0,4,8,6,52,-1043
1568,17.880203,4,5,10,-3,52,-1037
1569,17.891865,1,4,8,-5,50,-1036
1570,17.903517,0,6,11,-11,56,-1034
1571,17.915158,4,5,11,-6,52,-1033
1572,17.926816,2,3,9,-6,51,-1030
1573,17.938484,2,5,12,0,53,-1036
1574,17.95009,2,7,11,-2,50,-1033
1575,17.961655,3,7,8,4,53,-1045
1576,17.973219,3,9,9,3,49,-1033
1577,17.984766,3,6,10,-2,51,-1028
1578,17.996315,2,8,8,0,48,-1036
1579,18.00786,2,7,10,-3,45,-1031
1580,18.019403,3,6,8,4,48,-1032
1581,18.03096,3,7,8,3,51,-1032
1582,18.042623,0,6,9,0,51,-1027
1583,18.054295,1,8,8,4,53,-1033
1584,18.065968,3,7,9,1,47,-1035
1585,18.077648,2,5,10,0,56,-1025
1586,18.089298,3,6,8,-1,55,-1025
1587,18.100969,3,6,10,0,47,-1022
1588,18.112655,2,6,9,1,49,-1034
1589,18.124294,3,5,9,6,47,-1036
1590,18.135955,2,5,8,-2,52,-1035
1591,18.147611,2,4,8,-4,48,-1042
1592,18.159163,2,7,9,-4,49,-1034
1593,18.170715,3,6,9,-1,49,-1027
1594,18.18229,3,7,9,-2,51,-1031
1595,18.193819,0,7,10,3,53,-1027
1596,18.205378,1,5,8,2,55,-1030
1597,18.216961,2,8,9,0,51,-1032
1598,18.228531,1,5,7,1,51,-1029
1599,18.240093,2,3,7,-3,53,-1042
1600,18.251721,2,5,9,-3,51,-1034
1601,18.263377,3,5,11,0,47,-1036
1602,18.275028,1,5,9,1,49,-1035
1603,18.286675,4,5,8,0,46,-1034
1604,18.298347,4,6,8,0,52,-1034
1605,18.310021,3,7,11,-4,50,-1031
1606,18.321676,3,5,8,1,52,-1036
1607,18.333364,3,6,9,-4,49,-1042
1608,18.345039,2,7,9,3,56,-1035
1609,18.356693,1,6,13,2,54,-1029
1610,18.36827,2,6,9,3,53,-1033
1611,18.379823,4,3,10,-1,52,-1026
1612,18.391364,1,5,8,-1,49,-1034
1613,18.405299,1,6,9,-2,57,-1035
1614,18.416894,2,8,9,-2,55,-1035
1615,18.428447,3,5,10,-3,53,-1039
1616,18.440003,3,7,8,-4,49,-1026
1617,18.451605,4,8,10,-2,51,-1039
1618,18.463187,2,8,9,3,52,-1032
1619,18.474724,2,6,9,0,50,-1032
1620,18.486302,3,4,10,1,58,-1031
1621,18.497856,2,6,10,1,55,-1028
1622,18.509408,3,9,10,3,48,-1034
1623,18.52097,4,5,9,0,49,-1034
1624,18.53257,5,7,9,1,52,-1033
1625,18.54412,2,5,10,1,53,-1031
1626,18.555695,2,8,9,-5,52,-1031
1627,18.567372,1,4,9,-1,53,-1028
1628,18.579032,3,5,9,1,55,-1034
1629,18.590693,0,6,9,2,47,-1029
1630,18.60236,5,5,7,7,48,-1038
1631,18.614026,4,7,9,3,49,-1036
1632,18.625732,1,6,8,0,53,-1034
1633,18.637388,0,6,10,-8,51,-1031
1634,18.649149,3,5,10,-8,55,-1036
1635,18.660999,2,5,10,0,50,-1032
1636,18.672573,0,4,10,8,55,-1039
1637,18.684136,3,7,9,7,49,-1035
1638,18.695708,0,6,7,2,54,-1038
1639,18.707298,4,4,7,-4,55,-1036
1640,18.718856,2,7,8,-3,55,-1034
1641,18.730448,2,6,8,0,53,-1027
1642,18.741997,4,5,10,0,52,-1036
1643,18.753591,3,7,9,3,49,-1037
1644,18.765166,2,6,9,2,47,-1034
1645,18.776705,2,7,8,4,51,-1031
1646,18.788242,3,7,10,-6,51,-1039
1647,18.79979,1,7,9,-2,51,-1036
1648,18.811341,2,9,10,0,54,-1033
1649,18.822887,2,9,11,1,55,-1033
1650,18.834447,3,7,7,3,53,-1039
1651,18.84599,4,8,8,2,50,-1027
1652,18.85758,4,5,10,-3,48,-1031
1653,18.869149,4,6,7,0,47,-1031
1654,18.880866,0,6,9,-2,51,-1035
1655,18.89252,5,6,10,-2,52,-1032
1656,18.904181,2,5,10,2,47,-1036
1657,18.915879,3,5,9,3,53,-1035
1658,18.927528,4,5,9,6,45,-1038
1659,18.939181,1,6,9,0,49,-1035
1660,18.950864,2,5,7,-6,54,-1035
1661,18.962509,3,5,11,-9,52,-1040
1662,18.974169,3,6,8,-4,50,-1025
1663,18.98586,3,5,9,0,50,-1040
1664,18.997485,5,6,9,3,48,-1028
1665,19.009033,3,7,11,0,49,-1037
1666,19.020585,2,7,7,0,50,-1028
1667,19.032134,1,6,8,0,50,-1031
1668,19.043696,5,7,9,-4,50,-1033
1669,19.055262,4,5,9,-4,52,-1032
1670,19.066824,4,6,8,-1,49,-1028
1671,19.078385,2,6,10,2,52,-1036
1672,19.090018,1,8,9,4,52,-1037
1673,19.101681,3,6,9,4,47,-1036
1674,19.11338,5,7,6,3,51,-1040
1675,19.12503,2,7,8,-4,54,-1031
1676,19.13668,2,6,9,-2,52,-1032
1677,19.148362,3,6,9,-1,53,-1035
1678,19.160001,3,7,10,1,49,-1036
1679,19.171653,3,7,7,-2,47,-1035
1680,19.183353,1,7,9,2,48,-1036
1681,19.195003,2,5,10,-4,50,-1028
1682,19.206568,3,6,11,0,52,-1037
1683,19.218129,2,7,8,0,51,-1028
1684,19.229714,3,6,11,0,46,-1041
1685,19.241344,4,7,10,0,45,-1036
1686,19.252919,4,4,10,1,50,-1040
1687,19.264461,4,8,7,6,49,-1038
1688,19.276004,4,8,10,1,51,-1031
1689,19.287571,4,6,8,-2,56,-1026
1690,19.299206,3,5,9,3,49,-1039
1691,19.310871,3,5,9,0,52,-1033
1692,19.322526,4,5,8,3,54,-1039
1693,19.334189,2,4,10,2,52,-1033
1694,19.345888,2,7,9,5,55,-1038
1695,19.357544,3,5,9,2,48,-1033
1696,19.369225,2,5,10,-1,48,-1033
1697,19.380894,3,7,9,1,55,-1034
1698,19.392558,1,6,10,-4,55,-1034
1699,19.404218,3,8,9,1,52,-1030
1700,19.415807,3,6,8,1,48,-1036
1701,19.427355,3,6,7,0,49,-1035
1702,19.438895,3,5,10,-4,52,-1032
1703,19.450442,0,7,10,-5,55,-1027
1704,19.461994,1,6,11,-3,56,-1030
1705,19.473569,2,4,9,0,48,-1028
1706,19.485197,4,6,8,1,53,-1035
1707,19.496843,4,4,9,3,50,-1027
1708,19.508492,2,6,10,-4,47,-1037
1709,19.520159,0,8,10,-1,54,-1030
1710,19.5318,3,8,9,3,46,-1035
1711,19.543461,3,5,11,4,51,-1032
1712,19.555122,3,8,9,-1,50,-1034
1713,19.566758,4,5,9,1,49,-1030
1714,19.5784,2,4,9,1,55,-1029
1715,19.59008,1,7,9,2,55,-1029
1716,19.601769,1,6,8,-1,50,-1025
1717,19.613425,2,4,12,-1,51,-1037
1718,19.624993,2,4,9,-3,55,-1027
1719,19.636567,1,4,12,-2,48,-1033
1720,19.648111,2,6,9,0,49,-1028
1721,19.659665,1,5,9,0,50,-1037
1722,19.671211,3,6,9,4,53,-1039
1723,19.682757,4,6,7,0,49,-1035
1724,19.6943,1,4,7,2,49,-1034
1725,19.705869,1,7,9,-2,55,-1032
1726,19.717502,5,6,11,2,55,-1026
1727,19.729165,2,7,8,2,53,-1030
1728,19.740875,5,5,10,2,53,-1037
1729,19.752524,4,6,11,6,51,-1031
1730,19.764192,0,5,11,8,49,-1028
1731,19.775882,3,5,8,-6,53,-1030
1732,19.787529,3,7,8,-6,49,-1037
1733,19.799198,1,5,10,-2,49,-1038
1734,19.81089,4,8,10,3,42,-1036
1735,19.822556,2,8,11,3,50,-1032
1736,19.834116,3,7,9,2,48,-1034
1737,19.845698,4,4,11,2,47,-1032
1738,19.857255,2,6,9,1,56,-1038
1739,19.8688,7,5,13,-7,54,-1039
1740,19.880346,1,6,11,5,48,-1034
1741,19.891914,1,5,11,3,52,-1028
1742,19.90346,4,5,9,5,47,-1026
1743,19.915034,0,10,8,-2,50,-1028
1744,19.926646,2,7,8,-4,52,-1040
1745,19.93831,7,6,10,-4,50,-1032
1746,19.949978,0,7,8,0,50,-1033
1747,19.961629,5,8,9,7,53,-1033
1748,19.973285,1,7,8,6,46,-1026
1749,19.984928,0,8,8,5,54,-1033
1750,19.996573,4,6,8,0,51,-1026
1751,20.008238,1,8,9,1,50,-1028
1752,20.01989,2,5,7,-2,60,-1035
1753,20.031537,5,6,10,-1,52,-1033
1754,20.043206,3,7,10,0,52,-1043
1755,20.054862,5,7,8,3,52,-1038
1756,20.066511,2,7,9,1,47,-1031
1757,20.078141,2,5,9,0,56,-1030
1758,20.089797,2,4,9,-1,51,-1032
1759,20.10146,1,5,11,-3,53,-1025
1760,20.113141,2,5,9,1,52,-1033
1761,20.12482,2,4,8,2,51,-1035
1762,20.136488,0,7,8,-2,51,-1034
1763,20.148134,7,8,9,0,52,-1039
1764,20.159785,4,4,10,0,52,-1028
1765,20.171449,1,7,10,0,51,-1042
1766,20.183114,7,6,8,5,52,-1032
1767,20.194768,0,8,9,1,51,-1027
1768,20.206424,6,4,8,2,54,-1037
1769,20.218076,2,5,8,2,49,-1027
1770,20.229829,1,8,7,3,53,-1030
1771,20.241511,5,6,9,0,52,-1025
1772,20.253084,0,6,11,-1,57,-1033
1773,20.264647,6,7,8,-2,51,-1033
1774,20.276191,4,5,9,2,48,-1038
1775,20.287729,2,10,7,6,52,-1035
1776,20.299272,6,7,9,0,50,-1031
1777,20.310889,4,5,9,0,49,-1031
1778,20.32244,1,10,9,-1,51,-1035
1779,20.334023,2,6,9,-1,47,-1030
1780,20.345639,2,6,11,-4,52,-1039
1781,20.357332,3,6,8,2,55,-1044
1782,20.369005,5,8,8,-2,50,-1037
1783,20.38066,3,5,10,-1,51,-1039
1784,20.392303,4,6,10,0,52,-1034
1785,20.403974,0,9,8,-3,53,-1025
1786,20.415631,2,9,9,0,51,-1041
1787,20.427273,2,7,9,1,51,-1037
1788,20.438929,19,3,8,16,52,-1105
1789,20.450636,-14,19,8,-3,51,-977
1790,20.462202,2,5,8,0,57,-1087
1791,20.47375,-12,12,8,-4,25,-985
1792,20.485348,-28,10,8,-3,66,-1022
1793,20.496929,27,0,9,0,74,-1071
1794,20.508479,28,12,8,10,41,-1007
1795,20.520052,-14,4,9,7,66,-1036
1796,20.531591,20,2,9,2,60,-1059
1797,20.543138,17,5,8,-1,39,-1044
1798,20.554788,-5,4,8,-3,61,-1044
1799,20.566432,20,4,9,1,55,-1036
1800,20.578096,13,5,11,2,37,-1035
1801,20.589761,-15,8,7,5,42,-1023
1802,20.601375,22,2,9,6,61,-1062
1803,20.613026,11,7,8,0,34,-1018
1804,20.624685,-18,10,7,-1,47,-1013
1805,20.636326,-2,6,9,-8,58,-1048
1806,20.648003,5,7,10,-6,38,-1023
1807,20.659659,-16,10,8,4,51,-1022
1808,20.671214,8,4,9,11,58,-1045
1809,20.682762,19,9,8,-2,41,-1018
1810,20.694315,-6,9,10,-5,60,-1043
1811,20.705871,12,4,10,-7,55,-1039
1812,20.717452,2,7,9,-8,44,-1015
1813,20.729029,5,5,11,0,58,-1038
1814,20.740581,5,4,8,8,51,-1032
1815,20.752155,0,7,7,11,48,-1032
1816,20.763797,0,4,9,9,51,-1037
1817,20.775469,1,7,9,-1,52,-1022
1818,20.787135,3,8,8,-11,52,-1033
1819,20.79888,4,6,12,-11,50,-1033
1820,20.810532,2,5,10,6,48,-1036
1821,20.822211,0,6,9,13,53,-1035
1822,20.833883,3,5,9,10,49,-1028
1823,20.845564,4,5,8,4,49,-1042
1824,20.85726,1,6,8,-6,55,-1030
1825,20.868909,6,6,8,-8,57,-1038
1826,20.880472,3,6,11,-2,47,-1025
1827,20.892022,-1,6,11,0,45,-1034
1828,20.903572,2,4,8,10,46,-1031
1829,20.91512,2,8,9,11,47,-1038
1830,20.926667,5,9,10,6,45,-1049
1831,20.938228,2,8,9,0,45,-1030
1832,20.949816,2,5,8,-5,55,-1041
1833,20.961387,0,5,10,-2,55,-1029
1834,20.973,0,0,9,6,57,-1009
1835,20.984657,1,6,9,13,51,-1021
1836,20.9963,-11,10,8,0,50,-1003
1837,21.007969,11,6,8,-15,63,-1051
1838,21.01966,23,5,8,-24,51,-1037
1839,21.031423,-10,8,9,-7,56,-1043
1840,21.043071,25,5,7,3,58,-1053
1841,21.054776,14,12,12,14,21,-1032
1842,21.066472,-18,13,10,16,44,-1033
1843,21.078135,26,3,7,17,52,-1042
1844,21.089701,1,6,8,9,34,-1021
1845,21.101251,-16,9,8,-1,55,-1026
1846,21.112797,0,4,9,-6,65,-1045
1847,21.124348,5,3,10,4,40,-1022
1848,21.135921,-11,8,8,6,50,-1031
1849,21.147465,9,2,10,8,56,-1040
1850,21.159004,15,0,8,1,37,-1046
1851,21.170561,-4,6,7,-8,54,-1039
1852,21.182218,8,8,7,-8,54,-1030
1853,21.193943,5,5,6,-8,47,-1030
1854,21.205621,0,4,10,3,53,-1025
1855,21.217291,7,2,7,2,57,-1035
1856,21.228984,3,6,9,-1,54,-1030
1857,21.240632,0,4,9,-5,54,-1044
1858,21.252278,8,6,9,-6,55,-1035
1859,21.263946,2,4,12,-7,46,-1034
1860,21.275603,2,7,10,-6,46,-1038
1861,21.287185,1,7,8,6,42,-1036
1862,21.298764,5,6,9,9,42,-1037
1863,21.310311,0,8,8,10,44,-1035
1864,21.321858,3,6,8,12,51,-1032
1865,21.333417,3,6,9,4,53,-1030
1866,21.344974,0,5,7,0,51,-1035
1867,21.356521,0,4,9,-4,57,-1034
1868,21.368064,3,3,10,-2,57,-1028
1869,21.379639,1,3,8,-4,54,-1041
1870,21.391262,2,6,10,-5,52,-1031
1871,21.402905,3,4,8,-4,53,-1038
1872,21.414582,5,7,10,-9,43,-1029
1873,21.426257,2,7,8,-5,50,-1034
1874,21.43789,5,6,8,-2,51,-1042
1875,21.449588,3,6,9,2,48,-1038
1876,21.461257,0,7,8,0,54,-1040
1877,21.472926,4,9,10,1,55,-1035
1878,21.484621,3,9,9,-7,49,-1036
1879,21.496278,5,6,10,-6,53,-1036
1880,21.507921,4,7,11,0,49,-1042
1881,21.519574,0,12,10,1,50,-1031
1882,21.531239,8,9,9,10,54,-1044
1883,21.542876,-1,8,7,11,42,-1025
1884,21.554519,12,4,11,5,59,-1045
1885,21.566239,7,2,9,1,46,-1032
1886,21.577895,-12,10,8,5,50,-1012
1887,21.589626,1,2,8,13,55,-1035
1888,21.60129,0,5,9,7,42,-1025
1889,21.612987,-8,7,9,3,51,-1028
1890,21.624634,9,3,9,-2,56,-1039
1891,21.636283,11,6,9,-5,41,-1019
1892,21.647955,-3,3,10,-5,46,-1041
1893,21.65962,9,1,10,-3,43,-1034
1894,21.671274,1,1,10,5,38,-1023
1895,21.682915,2,3,9,10,49,-1045
1896,21.694597,3,2,8,5,45,-1026
1897,21.706277,1,5,7,-1,56,-1037
1898,21.717938,1,6,8,-15,62,-1032
1899,21.729619,-1,6,12,-18,65,-1033
1900,21.741283,7,4,9,-14,63,-1037
1901,21.752932,5,6,10,-1,57,-1039
1902,21.764588,0,7,9,9,58,-1038
1903,21.776242,5,6,9,7,49,-1040
1904,21.787887,-1,10,10,4,45,-1027
1905,21.799608,1,7,9,6,48,-1039
1906,21.811268,4,9,9,-2,43,-1020
1907,21.822926,-1,7,10,-1,45,-1035
1908,21.834472,1,6,9,0,53,-1034
1909,21.846054,4,9,11,-4,52,-1033
1910,21.857577,2,7,8,1,53,-1028
1911,21.869102,1,6,9,6,50,-1036
1912,21.880651,4,6,9,11,53,-1030
1913,21.892207,4,9,9,4,46,-1030
1914,21.903816,2,7,9,-5,44,-1032
1915,21.915445,3,6,8,-4,51,-1036
1916,21.927111,4,5,9,1,48,-1027
1917,21.938765,1,4,11,3,53,-1037
1918,21.95043,2,6,7,4,50,-1036
1919,21.96212,1,6,8,7,46,-1041
1920,21.973802,4,5,9,-3,56,-1032
1921,21.985492,3,6,11,-3,53,-1038
1922,21.997121,2,7,8,-3,59,-1023
1923,22.008774,4,7,9,-1,53,-1030
1924,22.020322,1,4,9,3,50,-1037
1925,22.031866,5,4,11,12,51,-1028
1926,22.043427,2,4,5,8,49,-1028
1927,22.05499,5,5,5,1,51,-1036
1928,22.066549,2,6,10,-7,50,-1029
1929,22.078106,3,5,9,-5,52,-1042
1930,22.089674,3,6,9,-1,49,-1035
1931,22.101227,1,7,9,-1,48,-1035
1932,22.112778,0,9,8,7,51,-1031
1933,22.124344,2,7,8,0,50,-1036
1934,22.13601,0,8,7,1,49,-1026
1935,22.147666,1,5,8,-3,58,-1039
1936,22.159343,1,6,10,0,53,-1036
1937,22.170995,0,7,10,0,56,-1027
1938,22.18265,6,4,10,6,56,-1044
1939,22.194304,7,6,10,6,51,-1032
1940,22.205981,2,7,8,-3,60,-1035
1941,22.217647,9,6,9,-4,57,-1033
1942,22.229302,2,7,7,-7,50,-1025
1943,22.240849,-1,4,9,-4,52,-1038
1944,22.252406,6,6,10,0,43,-1027
1945,22.263957,1,4,10,8,39,-1039
1946,22.275501,3,7,9,7,47,-1052
1947,22.287048,7,6,10,-4,43,-1032
1948,22.298606,0,7,8,-6,50,-1033
1949,22.310182,3,5,9,-11,54,-1039
1950,22.321749,4,6,10,-9,53,-1027
1951,22.333455,3,5,10,7,58,-1041
1952,22.345122,5,6,8,7,59,-1040
1953,22.356772,1,6,9,2,58,-1032
1954,22.368446,2,8,9,-1,61,-1039
1955,22.3801,4,6,10,-2,49,-1030
1956,22.39175,0,6,8,-1,50,-1038
1957,22.403413,5,4,10,1,45,-1034
1958,22.415079,4,6,9,3,47,-1033
1959,22.426749,3,5,8,4,54,-1032
1960,22.4384,5,7,10,4,46,-1026
1961,22.449971,3,5,9,0,49,-1028
1962,22.461561,1,6,10,-9,50,-1033
1963,22.47309,0,5,9,-6,48,-1022
1964,22.484663,3,5,9,-4,53,-1031
1965,22.496199,7,4,10,0,52,-1045
1966,22.507738,0,6,10,4,51,-1031
1967,22.519294,7,3,8,2,54,-1034
1968,22.53085,2,4,8,0,47,-1038
1969,22.542469,0,6,8,-3,46,-1034
1970,22.554146,5,6,8,-17,65,-1048
1971,22.565846,1,8,9,-7,50,-1026
1972,22.577515,-4,8,12,9,47,-1017
1973,22.589189,4,7,8,8,48,-1030
1974,22.600862,0,7,9,2,48,-1028
1975,22.612507,0,6,7,2,53,-1037
1976,22.624161,6,6,11,1,60,-1035
1977,22.635857,3,4,8,0,49,-1036
1978,22.647515,1,5,8,2,50,-1035
1979,22.659099,5,5,10,0,49,-1033
1980,22.670657,4,4,9,0,46,-1040
1981,22.682218,2,6,10,0,49,-1035
1982,22.6938,2,6,10,0,51,-1035
1983,22.705359,3,5,10,-3,51,-1032
1984,22.716911,1,6,7,-6,51,-1036
1985,22.728459,4,5,9,0,55,-1035
1986,22.740021,1,7,11,2,55,-1029
1987,22.751702,4,7,8,3,54,-1035
1988,22.763366,3,6,9,0,54,-1041
1989,22.77502,1,7,8,0,54,-1035
1990,22.786687,1,6,8,-1,53,-1028
1991,22.798341,3,6,8,0,54,-1035
1992,22.810017,0,6,10,0,51,-1026
1993,22.821694,3,8,9,1,53,-1032
1994,22.83337,3,7,9,8,52,-1035
1995,22.845058,3,8,7,3,51,-1034
1996,22.856744,3,5,10,4,51,-1026
1997,22.868294,2,4,7,4,51,-1036
1998,22.879857,3,4,8,0,52,-1028
1999,22.891417,1,3,9,4,54,-1039
