sample,t_s,gyro_x,gyro_y,gyro_z,accel_x,accel_y,accel_z
0,1.4e-05,0,0,0,-2,-1,-1025
1,0.011251,0,-1,0,-1,4,-1023
2,0.022441,0,0,0,1,-1,-1014
3,0.033628,0,1,0,5,1,-1027
4,0.04481,0,0,-1,0,-4,-1021
5,0.055994,0,0,-1,-5,2,-1025
6,0.067176,1,0,0,-5,-2,-1024
7,0.078357,0,0,0,-1,-1,-1023
8,0.08955,1,-1,0,-2,-1,-1026
9,0.100735,0,-1,0,0,-3,-1024
10,0.111916,1,-1,-1,0,-1,-1017
11,0.123102,1,-1,0,-1,-2,-1017
12,0.134286,0,-1,0,1,-1,-1029
13,0.145478,0,-1,0,-3,1,-1021
14,0.156665,-1,-1,0,-2,1,-1025
15,0.167848,0,0,0,2,-1,-1026
16,0.179035,0,-1,0,-1,-2,-1022
17,0.190221,1,0,0,0,4,-1022
18,0.201366,0,-1,0,0,-1,-1020
19,0.212548,0,-2,-1,1,-1,-1019
20,0.22373,0,-1,0,-2,1,-1024
21,0.234928,0,-1,-1,0,1,-1027
22,0.246111,0,0,0,3,3,-1018
23,0.257302,0,0,-1,-2,-3,-1023
24,0.268487,0,0,-1,-5,3,-1025
25,0.279671,0,0,0,2,-3,-1013
26,0.290853,0,0,0,1,-1,-1026
27,0.302043,0,-1,-2,0,3,-1026
28,0.313231,1,-1,0,-2,-3,-1024
29,0.324413,1,0,-1,5,-4,-1029
30,0.335598,1,-1,0,1,-2,-1022
31,0.346789,0,0,0,-2,0,-1025
32,0.357978,0,1,0,0,6,-1025
33,0.369178,0,1,-1,-1,1,-1022
34,0.380359,0,0,0,-1,1,-1018
35,0.391543,0,0,0,1,1,-1019
36,0.402725,0,1,0,-3,0,-1030
37,0.41392,0,-1,0,0,-2,-1025
38,0.425109,1,1,0,4,-3,-1023
39,0.436294,1,0,0,2,-3,-1023
40,0.447475,0,0,0,0,-3,-1026
41,0.458672,0,-1,0,-2,-2,-1024
42,0.469863,0,-1,-1,-3,-4,-1026
43,0.481048,0,-2,-1,0,0,-1019
44,0.492236,1,-1,0,-3,-5,-1025
45,0.503418,0,-1,0,1,2,-1026
46,0.5146,0,0,0,-1,2,-1025
47,0.525788,0,-1,0,4,-4,-1020
48,0.536968,0,-1,0,1,1,-1025
49,0.548156,-1,-1,0,-2,1,-1020
50,0.559344,0,-1,0,0,1,-1023
51,0.570529,0,-2,-1,2,0,-1024
52,0.581725,0,0,0,2,0,-1028
53,0.592912,0,0,0,4,0,-1027
54,0.604099,0,0,0,0,3,-1029
55,0.615284,2,1,0,0,-2,-1020
56,0.626469,0,0,0,2,-1,-1027
57,0.637663,0,1,-1,0,2,-1024
58,0.648849,1,1,-1,-1,0,-1030
59,0.660037,0,1,0,0,-1,-1020
60,0.671221,0,0,0,14,0,-1023
61,0.682407,0,1,-1,0,0,-1025
62,0.693551,0,1,-1,-2,1,-1025
63,0.704732,1,1,-1,2,-2,-1026
64,0.715918,1,0,0,-3,-3,-1028
65,0.727105,0,1,0,-1,1,-1022
66,0.73829,1,1,-1,1,0,-1023
67,0.749477,0,0,-1,0,-2,-1026
68,0.760666,0,0,0,-1,-2,-1026
69,0.771851,0,0,0,-3,-4,-1029
70,0.783033,0,1,0,0,-1,-1027
71,0.794221,1,1,0,3,0,-1026
72,0.805367,1,0,-1,2,2,-1028
73,0.81655,0,0,-1,-2,-3,-1024
74,0.827733,0,0,0,1,1,-1030
75,0.838929,0,-2,0,4,-3,-1018
76,0.850114,0,1,0,-1,-2,-1023
77,0.861307,0,1,0,-2,3,-1027
78,0.87249,1,0,0,2,1,-1019
79,0.883675,1,1,0,-2,-3,-1020
80,0.894857,1,1,0,0,1,-1022
81,0.906044,1,0,-1,3,-2,-1028
82,0.91723,0,1,-1,1,0,-1025
83,0.928412,1,2,-1,-6,1,-1027
84,0.939596,1,1,0,2,-3,-1026
85,0.95078,0,0,-1,4,4,-1031
86,0.96197,1,0,-2,-2,-1,-1023
87,0.973178,0,0,0,-2,1,-1026
88,0.984425,-1,0,-1,-3,-1,-1025
89,0.995619,0,0,1,1,2,-1023
90,1.006806,1,0,1,3,1,-1027
91,1.017996,0,-2,0,0,-2,-1030
92,1.029185,1,0,1,-1,-4,-1021
93,1.040378,1,0,0,-4,0,-1025
94,1.051564,1,1,-1,-1,2,-1024
95,1.062748,0,-1,0,-2,1,-1028
96,1.073919,0,-1,0,-3,0,-1023
97,1.085111,0,0,0,0,-4,-1021
98,1.096295,1,0,1,0,3,-1022
99,1.10748,0,0,0,0,-5,-1023
100,1.118663,0,0,0,-2,-2,-1024
101,1.129852,0,0,0,1,-6,-1028
102,1.140996,1,-1,0,-3,-3,-1026
103,1.152179,0,0,0,-1,-1,-1022
104,1.16336,1,1,1,-3,-1,-1022
105,1.174542,1,2,0,3,-1,-1019
106,1.185732,1,0,0,-4,3,-1022
107,1.196915,0,0,1,-1,0,-1024
108,1.208099,0,0,0,1,1,-1027
109,1.219286,1,1,0,0,-1,-1022
110,1.230468,0,1,-1,-1,0,-1022
111,1.241661,0,0,0,-1,0,-1022
112,1.252843,1,0,0,-2,-3,-1026
113,1.264031,1,0,0,-1,-4,-1028
114,1.275212,1,1,0,1,-7,-1031
115,1.286404,1,2,-1,-1,2,-1026
116,1.297549,1,1,0,1,1,-1024
117,1.308731,1,1,-1,-3,-4,-1023
118,1.319913,1,0,0,-4,-2,-1018
119,1.331098,1,0,0,0,1,-1028
120,1.34228,0,0,-1,-1,1,-1032
121,1.353476,0,-1,0,-4,-1,-1026
122,1.364664,0,1,1,-5,-2,-1023
123,1.375847,1,1,0,1,0,-1029
124,1.387027,0,1,-1,-7,-1,-1017
125,1.398216,1,0,-1,-1,-2,-1016
126,1.409367,0,1,-1,-1,-3,-1025
127,1.420548,1,0,0,1,-2,-1021
128,1.431729,0,0,-1,3,-1,-1029
129,1.442924,0,0,0,-2,1,-1022
130,1.454109,0,0,0,-3,0,-1024
131,1.465293,1,1,-1,-2,1,-1021
132,1.476478,0,0,0,-1,-1,-1026
133,1.487662,1,-1,0,-2,-2,-1023
134,1.498842,0,0,-1,1,0,-1026
135,1.510035,0,1,-1,0,0,-1023
136,1.521181,0,1,-1,-4,-3,-1028
137,1.532363,0,-1,-1,0,2,-1020
138,1.543548,0,-1,0,0,0,-1019
139,1.554736,0,0,0,-5,-3,-1020
140,1.56592,0,0,0,-1,1,-1024
141,1.577108,0,-1,0,2,-1,-1023
142,1.588293,0,-1,-1,-2,-1,-1019
143,1.599475,1,-1,-1,-1,1,-1027
144,1.610661,1,-1,0,1,-2,-1021
145,1.62185,1,0,0,-3,1,-1020
146,1.632996,0,0,0,0,2,-1026
147,1.644179,0,-1,-1,3,2,-1024
148,1.655362,-1,-2,1,-3,0,-1027
149,1.666552,0,-1,0,0,-2,-1017
150,1.677736,0,0,0,1,5,-1020
151,1.688917,0,0,0,-2,1,-1021
152,1.700101,0,-1,0,-2,-2,-1019
153,1.711283,0,0,1,-2,-2,-1024
154,1.722468,0,0,1,2,-2,-1029
155,1.733661,0,0,0,-3,-2,-1028
156,1.744844,0,0,0,1,-1,-1031
157,1.75603,0,-1,-1,1,1,-1022
158,1.767213,0,-1,-1,-4,3,-1019
159,1.778401,0,0,1,-2,1,-1022
160,1.789552,0,0,1,3,4,-1022
161,1.800738,0,-1,0,-4,0,-1023
162,1.811922,0,-1,0,0,1,-1021
163,1.823105,-1,0,0,1,0,-1030
164,1.834289,0,0,1,2,-1,-1021
165,1.845477,0,-1,0,-2,0,-1023
166,1.856661,0,-1,0,-2,4,-1022
167,1.867848,0,0,0,-1,-1,-1020
168,1.879032,0,0,0,2,-5,-1020
169,1.890243,0,0,0,3,-1,-1023
170,1.90143,0,0,0,-2,3,-1013
171,1.912613,1,0,0,2,0,-1019
172,1.923797,0,1,-1,-1,-3,-1021
173,1.934979,0,0,0,-2,-3,-1018
174,1.946162,0,1,0,2,0,-1031
175,1.957358,0,0,-1,1,0,-1026
176,1.968541,1,1,-1,-4,0,-1025
177,1.979722,1,0,-2,1,-2,-1027
178,1.990905,1,0,0,1,-1,-1019
179,2.00211,0,-1,0,0,-2,-1025
180,2.013333,0,0,-1,-3,-3,-1026
181,2.024523,0,-1,0,2,0,-1022
182,2.035707,0,0,1,0,2,-1021
183,2.046897,0,0,0,-2,-2,-1027
184,2.058231,0,-1,1,0,-6,-1022
185,2.06943,0,-2,0,-2,1,-1028
186,2.080616,0,-1,-1,-1,-2,-1019
187,2.091803,1,-1,-1,-2,0,-1022
188,2.10299,0,-1,0,0,-2,-1024
189,2.114171,1,0,0,2,3,-1023
190,2.125367,0,0,0,-1,2,-1025
191,2.136551,0,2,0,2,2,-1025
192,2.147735,0,1,0,0,-2,-1029
193,2.15892,1,0,-1,0,1,-1024
194,2.170104,0,1,0,1,-1,-1026
195,2.181294,1,1,0,-2,1,-1023
196,2.192476,1,1,0,3,-6,-1027
197,2.203659,0,1,0,0,-2,-1025
198,2.214842,0,0,0,-1,1,-1021
199,2.226033,0,0,-1,-1,-4,-1027
200,2.237229,0,0,0,-1,-2,-1016
201,2.248415,1,0,0,-2,2,-1023
202,2.259599,0,0,-1,-1,2,-1024
203,2.270782,0,1,0,-3,3,-1023
204,2.281966,1,1,-1,0,-2,-1025
205,2.29315,1,1,-1,-2,-4,-1018
206,2.304337,0,0,0,0,2,-1025
207,2.315522,0,0,0,0,-4,-1023
208,2.326713,0,0,-1,-2,0,-1025
209,2.337912,0,-1,-1,-1,-1,-1023
210,2.349106,0,-1,0,-1,-1,-1024
211,2.360294,0,-1,0,2,-5,-1026
212,2.371479,0,-1,0,2,2,-1026
213,2.382663,0,-1,0,-2,2,-1021
214,2.393857,1,0,-1,2,1,-1021
215,2.405042,1,0,-1,-1,-2,-1024
216,2.416227,0,0,-1,1,0,-1027
217,2.427412,0,-1,0,-1,-3,-1029
218,2.438595,0,-1,-1,-2,1,-1023
219,2.449783,0,-1,0,-1,4,-1028
220,2.460964,0,-2,0,-1,-4,-1021
221,2.472149,0,-1,0,-1,-1,-1021
222,2.483337,0,-1,0,-1,1,-1027
223,2.494519,1,-1,-1,1,2,-1027
224,2.505711,0,-2,0,0,-2,-1025
225,2.516904,0,1,0,-1,-3,-1028
226,2.528089,0,1,-1,-2,-2,-1024
227,2.539274,0,0,-1,0,-2,-1022
228,2.550459,0,0,-1,1,-1,-1023
229,2.561658,1,0,0,-4,-1,-1020
230,2.572843,0,1,0,4,-3,-1029
231,2.584024,0,0,0,-3,1,-1026
232,2.595223,0,1,0,1,0,-1025
233,2.606411,0,0,0,-3,-1,-1025
234,2.617598,1,-1,0,0,-2,-1024
235,2.628779,0,0,0,1,-2,-1026
236,2.639962,0,-1,0,1,1,-1027
237,2.651146,0,0,1,-1,4,-1019
238,2.662329,0,0,0,0,-1,-1021
239,2.673518,0,1,-1,-2,-1,-1026
240,2.684701,0,0,1,0,-1,-1027
241,2.695886,1,1,0,-3,-1,-1020
242,2.707076,1,0,0,-5,2,-1032
243,2.71826,1,0,0,-1,2,-1027
244,2.729448,0,1,1,-1,1,-1027
245,2.740633,0,0,0,-3,-2,-1025
246,2.751819,0,-1,0,0,1,-1027
247,2.763004,0,0,1,-3,2,-1027
248,2.774192,0,1,0,-4,0,-1021
249,2.785368,0,0,0,-2,-2,-1021
250,2.79655,0,1,0,0,-1,-1018
251,2.807733,0,0,0,-1,0,-1020
252,2.818929,1,0,-1,0,4,-1014
253,2.830112,1,1,0,-3,2,-1022
254,2.841299,1,0,0,-1,-3,-1025
255,2.852481,1,0,0,-1,-1,-1025
256,2.863663,0,1,0,-3,-7,-1020
257,2.874846,0,1,-1,-2,2,-1021
258,2.886038,1,0,0,-3,0,-1025
259,2.897183,0,-1,-1,-2,-3,-1016
260,2.908383,1,0,0,-2,5,-1032
261,2.919572,0,0,0,-2,2,-1031
262,2.930759,0,-1,0,-2,3,-1028
263,2.941921,0,0,0,0,-4,-1026
264,2.953119,0,0,0,-5,-4,-1025
265,2.964306,1,1,0,-4,-3,-1029
266,2.975491,0,0,0,0,-2,-1020
267,2.986676,0,1,0,4,-4,-1015
268,2.997861,0,0,0,1,-3,-1021
269,3.009048,0,0,0,0,0,-1030
270,3.020231,0,0,0,3,1,-1024
271,3.031494,0,1,0,-2,-1,-1028
272,3.042704,-1,0,0,4,4,-1020
273,3.053919,0,0,0,-1,-1,-1018
274,3.065115,0,-1,0,-2,2,-1026
275,3.076304,-1,0,0,1,-3,-1027
276,3.087501,0,1,0,-2,-1,-1022
277,3.09869,-1,-1,1,-4,0,-1024
278,3.109879,0,-1,0,1,-2,-1021
279,3.121066,1,-1,-1,1,1,-1028
280,3.13225,-1,-1,0,0,-1,-1023
281,3.143438,-1,0,0,0,3,-1024
282,3.154626,0,-1,0,1,2,-1023
283,3.165819,0,-2,0,-3,1,-1024
284,3.176996,0,-1,0,4,0,-1025
285,3.188181,0,-1,1,-4,0,-1027
286,3.199368,-1,-2,1,-5,-1,-1023
287,3.210553,0,-1,0,1,2,-1024
288,3.221735,0,-1,0,-3,-1,-1022
289,3.232924,1,1,0,-1,3,-1027
290,3.244112,0,-1,0,-1,-1,-1025
291,3.255293,0,-1,1,0,-4,-1025
292,3.266475,0,0,0,-1,3,-1027
293,3.277666,0,1,0,-1,-3,-1026
294,3.288848,0,0,1,1,1,-1028
295,3.300031,-1,0,0,-2,3,-1028
296,3.311235,-1,1,0,0,-1,-1023
297,3.322421,1,1,0,-2,3,-1028
298,3.333607,1,-1,0,-3,1,-1024
299,3.344791,1,0,-1,1,1,-1025
300,3.355973,-1,-1,-1,-5,1,-1020
301,3.367155,0,0,0,0,0,-1026
302,3.378349,1,0,0,-3,0,-1014
303,3.389549,1,-1,1,-1,-4,-1022
304,3.40074,0,1,1,-1,3,-1021
305,3.411926,1,0,0,0,1,-1025
306,3.423108,1,0,0,-1,-4,-1023
307,3.434297,1,0,0,2,-2,-1021
308,3.445486,0,0,0,-1,-3,-1026
309,3.456675,0,0,1,1,0,-1017
310,3.46786,0,0,1,3,-3,-1023
311,3.479042,0,-1,1,-1,-2,-1026
312,3.490228,0,1,0,-1,0,-1025
313,3.501422,1,1,0,1,-1,-1023
314,3.512608,0,-2,0,-1,0,-1021
315,3.523791,0,-1,0,-4,-2,-1026
316,3.534978,0,-1,0,-1,3,-1030
317,3.546164,0,-1,0,-1,3,-1022
318,3.557363,0,0,0,1,0,-1023
319,3.568548,1,1,-1,-3,2,-1022
320,3.579735,0,1,-1,0,2,-1023
321,3.590924,1,1,0,-1,-2,-1029
322,3.602113,0,0,0,-4,0,-1027
323,3.613306,1,1,-1,-1,0,-1022
324,3.624487,1,2,1,-1,-3,-1021
325,3.63567,0,1,0,1,1,-1024
326,3.646855,0,0,-1,0,1,-1024
327,3.658044,1,0,-1,2,0,-1019
328,3.669248,1,2,0,1,-6,-1021
329,3.680441,0,0,1,1,-2,-1022
330,3.691627,0,0,0,3,2,-1022
331,3.702813,1,0,0,0,-1,-1020
332,3.714014,1,0,0,-2,3,-1024
333,3.725183,1,0,0,-2,-1,-1023
334,3.736369,0,0,0,2,3,-1027
335,3.747555,0,-1,-1,4,-3,-1026
336,3.758744,1,-1,0,-2,-3,-1031
337,3.769919,1,0,0,-1,2,-1023
338,3.781114,1,-1,1,1,-4,-1016
339,3.792299,0,0,-1,1,1,-1017
340,3.803484,0,0,0,0,1,-1026
341,3.81467,0,0,0,1,0,-1029
342,3.825853,0,-1,0,-3,0,-1029
343,3.836997,0,-2,0,-1,1,-1020
344,3.8482,1,1,-1,-3,1,-1023
345,3.859411,0,-1,-1,0,-1,-1023
346,3.870594,0,0,-1,-1,-2,-1024
347,3.881792,1,0,-1,-1,2,-1025
348,3.892994,1,2,0,2,-4,-1023
349,3.904184,0,-1,0,-2,-1,-1023
350,3.915372,0,-1,0,1,-1,-1025
351,3.92658,0,-1,0,0,4,-1019
352,3.938243,0,0,0,2,1,-1026
353,3.949947,0,1,1,-1,2,-1026
354,3.961606,0,1,0,-3,0,-1027
355,3.973297,0,0,0,-3,1,-1018
356,3.984962,0,-1,0,-3,0,-1023
357,3.996612,1,0,0,3,2,-1021
358,4.008272,1,0,0,-6,2,-1023
359,4.019947,0,0,-1,1,-4,-1024
360,4.031625,0,0,0,0,0,-1021
361,4.043174,1,1,0,-1,1,-1020
362,4.054837,0,0,-1,-1,0,-1028
363,4.066424,0,-1,0,-1,1,-1025
364,4.077992,1,-1,0,3,3,-1024
365,4.089511,0,1,-1,-1,0,-1021
366,4.101039,1,0,-1,1,-1,-1023
367,4.112597,0,0,-1,0,1,-1028
368,4.124178,1,0,0,2,-1,-1021
369,4.135872,1,0,0,0,0,-1023
370,4.147526,0,0,0,-4,-2,-1025
371,4.159209,0,-1,-1,2,1,-1020
372,4.170862,0,1,-1,4,2,-1022
373,4.182505,0,1,0,-1,-4,-1027
374,4.194203,0,0,0,0,0,-1029
375,4.205864,0,-1,-1,1,0,-1024
376,4.217525,0,0,-1,-2,-1,-1025
377,4.229231,0,-1,0,-2,-1,-1033
378,4.240903,1,0,0,1,0,-1023
379,4.252468,0,0,0,-3,-1,-1022
380,4.264017,0,0,0,-1,1,-1024
381,4.275569,1,0,0,1,1,-1021
382,4.287149,1,1,-1,0,0,-1023
383,4.298702,0,0,0,-2,-3,-1025
384,4.310275,0,-1,0,1,3,-1020
385,4.321821,0,0,0,0,1,-1029
386,4.333534,0,0,0,2,-5,-1023
387,4.34528,1,0,0,3,-4,-1025
388,4.35686,0,0,0,0,-1,-1021
389,4.368418,0,0,0,3,-3,-1017
390,4.379968,0,-1,0,-1,-4,-1020
391,4.391529,0,-1,0,3,-1,-1024
392,4.403092,-1,0,0,0,0,-1022
393,4.414649,0,-1,0,-2,1,-1020
394,4.426223,0,0,0,-2,-1,-1022
395,4.437771,0,0,0,1,-4,-1028
396,4.449445,0,-1,0,-4,2,-1021
397,4.461115,0,0,-1,-3,0,-1022
398,4.472791,0,-1,-1,-1,-1,-1023
399,4.484444,0,-1,0,-5,-3,-1020
400,4.496092,0,0,0,-1,-3,-1021
401,4.50775,-1,0,0,-1,-3,-1023
402,4.519421,1,-1,0,0,-5,-1030
403,4.531075,1,0,0,-4,-2,-1020
404,4.542745,-1,0,0,1,-3,-1030
405,4.554429,0,0,0,-1,-3,-1024
406,4.56608,0,0,-1,3,4,-1025
407,4.577736,0,-1,0,-4,-2,-1028
408,4.589428,0,-1,0,-2,5,-1026
409,4.601085,-1,0,0,-2,0,-1027
410,4.612731,0,0,0,2,-2,-1028
411,4.624392,1,0,0,0,0,-1027
412,4.636069,-1,0,0,0,1,-1025
413,4.647732,0,0,0,3,0,-1029
414,4.659429,0,0,0,0,0,-1025
415,4.670995,-1,-1,0,2,0,-1021
416,4.682544,0,-1,0,-1,-1,-1021
417,4.694148,0,0,-1,4,0,-1019
418,4.705706,1,1,0,0,0,-1026
419,4.717277,0,0,0,1,3,-1025
420,4.728834,0,0,-1,0,4,-1024
421,4.740404,0,0,0,0,-1,-1022
422,4.751989,0,0,0,0,-4,-1024
423,4.763618,1,0,0,-2,0,-1021
424,4.775332,0,0,-1,-2,2,-1021
425,4.786977,1,-1,0,-1,-1,-1026
426,4.798628,0,-1,0,1,-6,-1021
427,4.810328,0,0,0,2,2,-1027
428,4.821983,0,1,0,-2,-1,-1028
429,4.833654,-1,0,0,2,5,-1019
430,4.845353,0,0,0,-3,0,-1023
431,4.857033,0,0,1,-4,0,-1030
432,4.868699,0,0,0,-2,0,-1024
433,4.880253,0,0,0,3,-2,-1022
434,4.891811,0,0,-1,0,-1,-1021
435,4.903392,0,0,0,0,-1,-1023
436,4.914944,1,0,0,-2,-4,-1027
437,4.926521,-1,0,0,2,-1,-1022
438,4.938071,0,0,0,1,1,-1021
439,4.949636,1,0,0,1,-2,-1027
440,4.961199,0,0,1,0,-1,-1024
441,4.972823,0,0,0,0,-3,-1023
442,4.984478,1,0,0,-1,-1,-1027
443,4.996143,1,0,0,2,1,-1021
444,5.007806,0,0,0,-1,2,-1022
445,5.019466,0,0,0,0,0,-1029
446,5.031115,1,0,0,-2,-1,-1029
447,5.042773,0,-1,1,2,0,-1026
448,5.054461,0,0,0,1,1,-1030
449,5.066121,1,-1,0,0,1,-1020
450,5.077795,0,0,0,0,0,-1020
451,5.089441,0,-1,0,-1,4,-1026
452,5.101028,1,0,0,1,3,-1025
453,5.112585,0,0,0,1,-3,-1029
454,5.124159,0,0,0,-2,1,-1029
455,5.135768,0,0,0,1,0,-1023
456,5.147314,0,0,0,0,3,-1025
457,5.158877,0,1,1,0,-3,-1022
458,5.170446,1,0,-1,2,-3,-1027
459,5.182134,1,0,0,5,0,-1028
460,5.193839,-1,0,0,-4,1,-1028
461,5.205504,1,0,0,-2,-1,-1026
462,5.21719,1,0,0,-3,-5,-1021
463,5.228839,1,0,0,2,0,-1024
464,5.240491,-1,1,0,1,-1,-1021
465,5.252164,0,-1,0,1,0,-1019
466,5.263823,0,0,0,1,-2,-1022
467,5.275496,0,0,0,0,1,-1017
468,5.287159,0,0,0,-2,3,-1022
469,5.29872,1,0,1,-1,-4,-1023
470,5.310271,0,0,0,-3,0,-1026
471,5.321847,0,0,0,5,-2,-1020
472,5.33341,0,0,0,1,-3,-1024
473,5.344958,0,-1,0,1,-2,-1022
474,5.356512,0,1,-1,2,0,-1023
475,5.368058,0,0,0,1,2,-1020
476,5.379612,0,0,0,0,-2,-1023
477,5.391228,1,0,-1,0,-1,-1022
478,5.402888,0,0,0,-1,-2,-1025
479,5.414579,0,0,0,2,3,-1029
480,5.426243,1,0,0,-1,-1,-1023
481,5.437891,0,0,-1,1,3,-1028
482,5.449564,0,0,0,0,3,-1023
483,5.461226,0,-1,0,0,4,-1024
484,5.472873,0,0,0,-1,-1,-1020
485,5.484537,0,0,0,4,1,-1024
486,5.49623,0,0,0,1,-1,-1024
487,5.508005,0,0,0,-1,-3,-1026
488,5.519613,0,0,0,1,0,-1022
489,5.53117,0,0,0,-2,1,-1025
490,5.542719,0,0,-1,0,-2,-1026
491,5.554237,0,0,0,-4,-2,-1021
492,5.565755,1,0,-1,0,0,-1022
493,5.577275,0,0,0,-1,-2,-1024
494,5.588897,0,0,0,-2,0,-1024
495,5.600451,0,0,0,0,2,-1023
496,5.612021,0,1,0,3,0,-1022
497,5.623563,0,0,0,-2,0,-1024
498,5.635134,0,0,0,2,0,-1024
499,5.646688,0,0,0,-1,1,-1025
500,5.658267,0,1,0,-3,1,-1025
501,5.669818,1,0,0,-1,-1,-1020
502,5.681392,0,0,0,-2,-4,-1021
503,5.692948,0,0,0,-1,-3,-1029
504,5.704627,0,0,0,5,-4,-1026
505,5.716306,0,-1,0,0,4,-1021
506,5.727964,0,-1,0,1,0,-1025
507,5.739619,0,0,1,2,2,-1028
508,5.751287,0,-1,-1,-3,-4,-1028
509,5.762949,0,0,-1,-1,-4,-1024
510,5.774592,0,0,0,-1,3,-1023
511,5.786249,1,-1,-1,-1,0,-1019
512,5.797951,0,0,0,-3,-1,-1029
513,5.809614,0,0,0,0,1,-1022
514,5.821295,0,0,0,-1,0,-1023
515,5.832957,0,-1,0,1,1,-1019
516,5.844607,0,0,1,2,-1,-1020
517,5.85628,0,0,0,0,3,-1021
518,5.867926,1,0,0,1,3,-1023
519,5.879589,0,-1,0,1,-1,-1031
520,5.89124,0,0,0,0,-2,-1024
521,5.902954,0,0,0,0,-2,-1027
522,5.914601,0,0,0,2,-2,-1022
523,5.926254,0,0,0,2,0,-1024
524,5.937952,0,0,0,-1,-1,-1024
525,5.949596,0,0,0,-1,-1,-1023
526,5.961303,0,0,0,-3,-1,-1031
527,5.973076,1,1,0,-3,2,-1022
528,5.984739,0,0,0,-1,5,-1021
529,5.996422,0,0,0,0,-1,-1026
530,6.00819,0,0,0,-1,0,-1024
531,6.019826,0,1,0,-3,1,-1026
532,6.03138,0,0,-1,3,3,-1021
533,6.042928,0,1,-1,1,-2,-1018
534,6.05447,0,0,0,1,-2,-1027
535,6.065998,0,1,0,-1,-2,-1025
536,6.077516,0,0,0,-1,-1,-1029
537,6.089032,0,0,0,-1,2,-1022
538,6.100708,0,0,1,2,3,-1024
539,6.11243,0,0,0,1,-1,-1020
540,6.124109,1,0,0,-2,2,-1026
541,6.135768,1,0,0,-3,0,-1019
542,6.147438,0,0,-1,0,0,-1028
543,6.159106,0,0,0,3,2,-1020
544,6.170784,0,0,-1,0,-3,-1031
545,6.182462,1,0,-1,3,-2,-1026
546,6.194122,0,-1,1,0,-2,-1025
547,6.205824,1,0,0,-1,-3,-1020
548,6.217491,0,0,0,1,1,-1027
549,6.229197,0,0,1,1,-1,-1020
550,6.240761,1,0,0,-3,1,-1019
551,6.252346,0,-1,0,0,-1,-1019
552,6.263897,1,0,0,-2,2,-1024
553,6.275459,0,0,0,-1,-1,-1022
554,6.287017,0,-1,0,1,-3,-1025
555,6.298555,0,1,0,-4,-3,-1019
556,6.310118,1,0,0,-1,1,-1023
557,6.321701,0,0,0,-2,2,-1027
558,6.333352,0,0,1,-3,1,-1021
559,6.345032,0,1,-1,1,2,-1023
560,6.356698,0,0,-1,-1,0,-1025
561,6.368355,1,0,0,-1,0,-1018
562,6.380008,0,1,-1,2,4,-1028
563,6.391659,1,0,0,1,-1,-1031
564,6.403323,1,0,0,-1,0,-1026
565,6.41498,0,0,0,2,-1,-1019
566,6.426668,0,0,0,-1,-1,-1026
567,6.438317,0,0,0,4,-2,-1019
568,6.449894,1,-1,-1,2,1,-1024
569,6.461445,0,0,0,1,2,-1029
570,6.473014,0,0,0,3,0,-1028
571,6.484569,0,1,0,0,-1,-1023
572,6.496131,0,0,0,-2,3,-1022
573,6.50768,0,0,0,3,0,-1024
574,6.51925,0,0,0,2,-2,-1020
575,6.530802,1,0,0,-3,0,-1023
576,6.542496,0,0,0,-3,1,-1025
577,6.554162,0,0,0,4,0,-1024
578,6.565814,0,0,0,1,1,-1030
579,6.577473,0,0,0,-4,0,-1032
580,6.589116,1,0,0,0,1,-1030
581,6.600761,1,-1,0,-2,1,-1020
582,6.612427,1,-1,-1,1,4,-1024
583,6.624129,1,0,0,4,2,-1021
584,6.635796,1,0,1,1,-2,-1023
585,6.647451,1,0,0,-2,1,-1023
586,6.659024,1,0,0,-1,0,-1024
587,6.670604,0,0,-1,3,-1,-1023
588,6.682158,1,0,0,-4,-5,-1025
589,6.693729,0,-1,0,1,-1,-1027
590,6.705281,1,0,0,5,-3,-1024
591,6.716853,0,1,0,0,2,-1020
592,6.728403,0,0,0,4,-4,-1025
593,6.739989,0,-1,0,0,-3,-1022
594,6.751664,0,0,0,3,-1,-1024
595,6.763318,1,0,-1,-2,3,-1024
596,6.774973,1,0,0,1,0,-1028
597,6.786632,0,0,0,1,-4,-1023
598,6.798312,0,0,0,-1,1,-1027
599,6.810009,0,-1,0,-1,-3,-1025
600,6.821691,0,-1,0,1,-3,-1032
601,6.833347,0,0,0,3,-2,-1015
602,6.845018,0,1,0,-5,2,-1030
603,6.856566,0,0,0,1,0,-1028
604,6.868115,0,0,0,2,-2,-1025
605,6.879662,0,0,0,2,-4,-1027
606,6.891212,0,0,0,3,0,-1025
607,6.902757,0,0,0,-5,3,-1022
608,6.914309,0,1,-1,0,2,-1016
609,6.925884,1,0,-1,-1,0,-1020
610,6.937432,0,-1,-1,-2,2,-1027
611,6.948987,0,0,0,0,-2,-1025
612,6.960644,0,-1,0,-3,0,-1026
613,6.972302,0,-1,1,1,-1,-1022
614,6.983957,1,0,0,1,-2,-1023
615,6.995624,1,0,0,3,-2,-1028
616,7.007279,1,0,0,3,-2,-1027
617,7.018947,0,-1,-1,-3,-3,-1024
618,7.030596,0,0,0,1,2,-1024
619,7.042267,0,0,-1,1,0,-1023
620,7.053949,0,0,1,-1,-2,-1022
621,7.065602,0,0,0,1,-1,-1021
622,7.077287,0,0,-1,-3,-2,-1023
623,7.088945,0,0,0,3,-2,-1027
624,7.100591,1,0,0,3,2,-1029
625,7.112243,0,0,0,2,2,-1025
626,7.123923,0,0,0,4,0,-1020
627,7.135563,0,0,0,4,-4,-1022
628,7.147243,0,0,0,-3,2,-1020
629,7.158944,0,0,-1,1,1,-1025
630,7.170591,1,0,0,2,-2,-1029
631,7.182265,0,0,0,-3,3,-1024
632,7.193956,0,0,1,-2,-1,-1024
633,7.20563,0,-1,-1,2,-2,-1021
634,7.217305,0,0,0,-3,2,-1024
635,7.228963,0,0,0,-3,0,-1024
636,7.240624,1,0,0,0,2,-1028
637,7.252296,1,1,0,2,0,-1026
638,7.263992,1,0,1,1,-1,-1023
639,7.275559,0,0,0,4,1,-1029
640,7.287131,0,0,0,-2,-2,-1021
641,7.298701,0,1,0,0,2,-1021
642,7.310248,0,0,0,0,0,-1024
643,7.321813,0,0,1,-1,-1,-1024
644,7.333397,0,0,0,-1,-1,-1021
645,7.345025,0,0,0,-1,-3,-1028
646,7.356607,0,0,0,1,-3,-1024
647,7.368248,0,0,0,-5,2,-1025
648,7.379928,0,0,0,-5,0,-1023
649,7.391579,0,0,0,0,-2,-1020
650,7.40325,0,0,-1,1,0,-1020
651,7.414952,1,0,-1,1,3,-1029
652,7.426609,0,-1,0,0,4,-1025
653,7.438264,1,1,0,-3,-2,-1028
654,7.449951,0,1,0,0,1,-1025
655,7.461632,0,0,0,0,-2,-1025
656,7.473292,1,0,0,4,-1,-1025
657,7.484883,1,0,0,2,2,-1015
658,7.49647,0,-1,0,-2,-1,-1024
659,7.508028,0,0,0,-5,0,-1020
660,7.519568,0,0,1,1,-3,-1022
661,7.531119,0,0,0,0,1,-1026
662,7.542667,0,0,1,-7,-1,-1023
663,7.55423,1,0,-1,-4,-1,-1022
664,7.565767,0,0,0,1,1,-1025
665,7.577432,0,1,0,1,0,-1025
666,7.589086,0,1,0,1,-3,-1021
667,7.600747,0,0,0,-3,-2,-1020
668,7.612404,0,0,0,0,0,-1026
669,7.624053,0,0,0,-2,2,-1023
670,7.635703,0,0,0,0,-1,-1028
671,7.647348,0,0,-1,2,-1,-1025
672,7.658999,1,0,1,2,3,-1024
673,7.67069,0,0,0,3,-2,-1023
674,7.682391,0,1,0,-3,2,-1022
675,7.693952,0,1,-1,1,0,-1024
676,7.70552,0,1,-1,-1,-1,-1024
677,7.717097,0,0,0,-3,0,-1018
678,7.728656,0,0,0,1,-1,-1025
679,7.740291,0,-1,0,0,0,-1028
680,7.751867,0,-1,0,6,1,-1021
681,7.76341,0,1,0,-4,1,-1024
682,7.774975,1,0,0,3,-1,-1025
683,7.786644,0,0,0,-1,0,-1025
684,7.798342,0,1,0,1,1,-1020
685,7.810002,1,1,0,-1,0,-1021
686,7.821687,1,0,1,0,2,-1027
687,7.833348,0,0,1,-1,-1,-1022
688,7.844991,0,0,0,1,-1,-1030
689,7.856666,0,0,0,-4,4,-1021
690,7.868318,0,0,0,-1,-2,-1025
691,7.879978,1,1,0,-3,-2,-1030
692,7.891645,1,0,1,-5,1,-1023
693,7.903235,0,0,0,0,1,-1024
694,7.914775,0,-1,0,-3,-1,-1024
695,7.926363,0,0,0,2,-2,-1024
696,7.937919,1,0,-1,-1,0,-1023
697,7.949503,1,1,-1,2,1,-1037
698,7.961031,0,0,0,-2,0,-1021
699,7.972569,0,0,0,-2,-5,-1015
700,7.984138,0,0,1,1,-2,-1018
701,7.995759,1,0,1,-1,3,-1030
702,8.007432,1,1,0,0,1,-1015
703,8.01908,0,0,0,-2,-2,-1026
704,8.030734,0,1,0,-2,-4,-1021
705,8.0424,0,-1,-1,-4,1,-1020
706,8.054066,1,0,-1,3,1,-1032
707,8.06572,0,0,0,-1,-1,-1025
708,8.077368,0,0,-1,-3,0,-1022
709,8.089052,0,0,0,-3,0,-1025
710,8.100736,0,0,0,0,-3,-1025
711,8.112305,0,0,0,-4,-4,-1022
712,8.123874,0,0,0,0,3,-1020
713,8.135445,0,0,0,-1,-2,-1022
714,8.147009,0,0,-1,-2,-4,-1022
715,8.15857,0,0,0,2,0,-1023
716,8.170145,0,0,0,1,0,-1022
717,8.181693,0,0,0,0,0,-1027
718,8.193283,0,0,0,2,0,-1023
719,8.204943,0,0,0,0,4,-1028
720,8.2166,0,0,1,-1,-1,-1025
721,8.228291,0,0,0,1,-2,-1024
722,8.239937,1,1,0,0,-3,-1023
723,8.251584,1,0,0,-2,-3,-1016
724,8.263258,0,-1,0,-2,2,-1028
725,8.274931,0,0,0,-1,0,-1026
726,8.286608,1,0,0,2,-3,-1022
727,8.298317,-1,0,0,1,0,-1030
728,8.309893,0,-1,0,-1,0,-1019
729,8.321505,0,0,0,-2,0,-1022
730,8.333031,0,0,0,0,1,-1024
731,8.34462,0,0,0,-2,1,-1022
732,8.356163,1,0,0,2,-4,-1022
733,8.367708,0,0,-1,-1,-2,-1031
734,8.379263,1,0,0,1,-2,-1028
735,8.390832,1,0,1,0,1,-1026
736,8.40242,0,0,0,3,-3,-1024
737,8.414077,-1,-1,1,3,1,-1028
738,8.425758,-1,0,0,2,2,-1018
739,8.437442,0,0,0,0,-2,-1020
740,8.449103,1,0,0,1,0,-1024
741,8.460762,0,-1,0,0,-4,-1022
742,8.472446,0,0,0,3,3,-1017
743,8.484107,0,0,0,2,-4,-1021
744,8.495769,0,0,-1,2,2,-1025
745,8.50744,0,0,0,1,-2,-1022
746,8.518999,1,0,0,-1,-2,-1028
747,8.530567,0,0,0,1,2,-1024
748,8.542132,1,1,0,-2,1,-1024
749,8.553696,-1,0,0,0,0,-1026
750,8.565271,0,-1,0,0,-2,-1026
751,8.57682,1,0,0,4,-3,-1024
752,8.588372,0,0,0,-2,0,-1030
753,8.599926,0,0,0,3,1,-1024
754,8.61154,0,0,0,-1,-3,-1023
755,8.623195,0,0,0,1,3,-1026
756,8.634845,1,-1,0,1,-3,-1026
757,8.646516,1,0,0,4,-3,-1025
758,8.65819,1,0,0,3,2,-1030
759,8.669814,0,1,0,-2,4,-1026
760,8.6815,1,0,0,3,4,-1022
761,8.693195,0,0,0,0,-3,-1025
762,8.704852,1,0,0,-3,-1,-1018
763,8.716544,0,1,0,0,1,-1022
764,8.728187,0,0,-1,-1,2,-1019
765,8.739842,0,0,-1,-1,-2,-1024
766,8.751519,0,0,0,3,-3,-1026
767,8.763181,0,0,0,1,3,-1022
768,8.774833,1,0,-1,-2,-2,-1022
769,8.786532,0,0,0,-2,2,-1021
770,8.798194,0,1,0,-1,1,-1022
771,8.80983,1,1,0,1,-6,-1023
772,8.82156,0,0,0,1,-1,-1017
773,8.833147,0,-1,0,1,-1,-1022
774,8.844726,1,0,0,1,-1,-1023
775,8.856276,0,-1,0,2,-4,-1020
776,8.867822,1,0,0,1,1,-1024
777,8.879369,0,0,-1,0,-1,-1016
778,8.890932,1,1,-1,2,-1,-1024
779,8.902499,1,0,0,-2,-1,-1022
780,8.914065,0,0,0,-3,-3,-1024
781,8.9257,0,0,0,0,0,-1022
782,8.937372,0,0,0,-2,-2,-1025
783,8.949044,0,-1,0,1,-2,-1017
784,8.960696,0,-1,0,4,3,-1028
785,8.972351,1,-1,0,-2,1,-1023
786,8.984025,0,0,0,1,1,-1024
787,8.995672,1,0,0,-1,-2,-1029
788,9.007322,0,0,0,2,0,-1025
789,9.019015,0,0,0,-1,-2,-1024
790,9.03067,0,0,0,-5,-2,-1024
791,9.042246,0,1,0,5,-1,-1021
792,9.053802,1,0,1,-1,1,-1022
793,9.065385,0,0,0,-1,-2,-1016
794,9.076933,0,1,0,1,3,-1020
795,9.088486,1,0,0,4,4,-1018
796,9.100039,0,0,0,-1,0,-1026
797,9.111612,0,1,0,-2,0,-1020
798,9.123163,0,0,0,1,-1,-1020
799,9.134801,0,0,-1,-2,0,-1026
800,9.146471,0,0,1,1,-1,-1021
801,9.158137,0,-1,0,1,1,-1025
802,9.169806,0,0,-1,-4,4,-1022
803,9.181469,0,0,-1,3,-1,-1017
804,9.193115,0,0,0,5,1,-1029
805,9.204778,-1,0,0,1,-5,-1025
806,9.216479,0,0,0,-1,-2,-1025
807,9.228245,0,0,0,-1,-1,-1019
808,9.239911,0,0,-1,-2,3,-1028
809,9.251496,1,0,0,-1,3,-1020
810,9.263059,0,1,-1,-1,0,-1022
811,9.274631,0,0,0,1,0,-1025
812,9.286178,0,0,0,-3,2,-1023
813,9.297753,0,0,-1,-2,2,-1022
814,9.30933,0,0,0,-1,-2,-1026
815,9.320884,0,1,0,2,-2,-1021
816,9.332508,0,0,0,-1,2,-1022
817,9.344158,1,0,1,2,1,-1023
818,9.355818,0,1,0,-4,2,-1026
819,9.367458,0,0,-1,-3,-1,-1022
820,9.379105,1,0,0,-1,-2,-1022
821,9.390793,1,0,-1,0,-1,-1024
822,9.402462,0,0,1,-3,4,-1025
823,9.414144,0,0,0,1,1,-1025
824,9.425818,0,0,0,3,-1,-1023
825,9.437482,0,0,0,-2,2,-1026
826,9.44916,0,-1,-1,-3,0,-1022
827,9.460747,0,1,0,0,-2,-1022
828,9.472306,0,-1,0,0,-1,-1021
829,9.483876,0,0,-1,-1,-2,-1026
830,9.495471,0,0,-1,0,-3,-1021
831,9.507028,0,0,0,-2,1,-1022
832,9.518609,1,0,0,0,3,-1021
833,9.530162,0,-1,0,2,-3,-1027
834,9.541761,1,0,0,-1,0,-1019
835,9.553473,0,-1,0,0,0,-1026
836,9.565171,0,0,0,-2,-1,-1022
837,9.576825,0,0,0,0,-2,-1025
838,9.588496,1,0,0,-4,0,-1031
839,9.600154,1,-1,0,-1,-3,-1020
840,9.61181,0,0,0,0,-6,-1028
841,9.623451,0,0,0,-1,2,-1024
842,9.635103,-1,0,0,-2,-4,-1022
843,9.646806,0,0,0,-1,0,-1029
844,9.658467,0,0,0,0,3,-1029
845,9.670005,0,0,1,0,2,-1029
846,9.68156,1,0,0,0,3,-1026
847,9.693117,0,-1,0,-1,-1,-1025
848,9.704717,0,1,0,-1,-2,-1017
849,9.716274,1,-1,0,1,3,-1023
850,9.727849,0,0,0,-1,1,-1028
851,9.739407,0,0,0,0,-3,-1025
852,9.751,0,-1,0,4,1,-1027
853,9.762685,0,-1,0,2,-3,-1027
854,9.774347,0,0,0,0,4,-1027
855,9.78605,0,0,0,-4,-1,-1026
856,9.797706,0,0,0,-5,2,-1027
857,9.809373,0,0,0,3,2,-1023
858,9.821045,0,1,1,3,2,-1025
859,9.83269,0,0,0,1,-2,-1030
860,9.844345,1,0,0,-6,-3,-1026
861,9.856032,0,-1,0,0,3,-1025
862,9.867601,0,0,0,-3,3,-1017
863,9.879157,0,0,-1,-1,3,-1021
864,9.890739,1,-1,0,3,1,-1020
865,9.902295,0,0,0,0,1,-1026
866,9.913867,0,1,0,-5,0,-1026
867,9.925423,0,0,0,3,1,-1024
868,9.936975,0,0,0,-3,0,-1018
869,9.948525,0,0,0,2,-1,-1020
870,9.960117,0,0,0,-4,2,-1025
871,9.971785,0,-1,0,0,-2,-1020
872,9.983442,0,0,0,1,-1,-1022
873,9.995097,0,-1,0,-2,1,-1025
874,10.00679,0,0,0,1,1,-1026
875,10.018455,1,0,0,-1,1,-1023
876,10.030135,0,1,0,-1,2,-1029
877,10.041811,0,0,0,0,-3,-1023
878,10.053463,0,0,0,2,-1,-1021
879,10.065137,0,0,-1,-3,1,-1021
880,10.076793,0,1,0,2,-1,-1022
881,10.088366,0,-1,0,1,-3,-1024
882,10.099911,0,0,0,1,-1,-1027
883,10.111463,0,0,0,1,0,-1024
884,10.123019,0,0,0,1,-2,-1029
885,10.134585,0,0,1,2,0,-1020
886,10.14615,0,0,0,-2,0,-1024
887,10.157738,0,0,0,1,-1,-1026
888,10.169282,1,0,-1,-3,0,-1023
889,10.180939,0,0,1,-6,1,-1022
890,10.192612,0,1,0,2,-1,-1020
891,10.204265,0,0,0,-1,-3,-1019
892,10.21593,1,0,0,1,-2,-1019
893,10.22759,0,-1,0,-1,-1,-1028
894,10.239248,0,0,0,-2,2,-1025
895,10.251053,0,-1,0,-5,1,-1028
896,10.262709,0,-1,0,0,-1,-1025
897,10.274347,1,0,0,-2,-2,-1019
898,10.286018,0,1,0,0,-4,-1019
899,10.297582,0,0,0,0,1,-1017
900,10.309154,0,0,0,0,1,-1024
901,10.320713,1,0,0,0,2,-1024
902,10.332287,1,-1,0,0,-2,-1017
903,10.343854,0,-1,0,2,-3,-1014
904,10.355402,0,-1,0,-2,-4,-1031
905,10.366974,0,0,-1,1,3,-1018
906,10.37853,0,0,0,1,-4,-1025
907,10.39019,0,0,0,0,-3,-1024
908,10.40181,0,0,0,-2,-1,-1026
909,10.413467,0,0,-1,0,1,-1025
910,10.425162,0,0,0,0,4,-1025
911,10.436807,0,0,-1,-2,-4,-1019
912,10.448453,0,1,0,-1,1,-1021
913,10.460131,0,0,0,-1,1,-1021
914,10.471788,0,0,0,-2,2,-1027
915,10.483452,0,0,1,1,3,-1021
916,10.495113,0,-1,1,-5,2,-1025
917,10.506674,0,0,0,0,-1,-1025
918,10.518241,0,0,0,-1,-1,-1024
919,10.529838,0,0,0,-1,-1,-1019
920,10.541399,0,0,-1,-4,1,-1025
921,10.552966,0,0,0,0,2,-1026
922,10.564509,0,1,-1,-1,-1,-1032
923,10.576051,0,1,0,0,3,-1023
924,10.587603,1,0,1,-3,-1,-1028
925,10.599261,0,0,0,0,0,-1024
926,10.610942,0,-1,0,2,1,-1020
927,10.622612,0,-1,0,2,-1,-1027
928,10.634274,0,0,0,0,-1,-1027
929,10.645942,1,0,0,-2,1,-1022
930,10.65762,0,0,0,0,0,-1026
931,10.669298,0,0,0,-3,-4,-1027
932,10.680951,1,-1,0,1,2,-1024
933,10.692638,0,0,0,0,0,-1027
934,10.704318,1,0,0,1,-1,-1022
935,10.71588,0,0,0,2,-1,-1025
936,10.727431,0,1,0,-1,-2,-1024
937,10.738984,0,0,0,-1,-4,-1031
938,10.75059,0,-1,-1,2,0,-1026
939,10.762173,0,0,-1,-3,2,-1023
940,10.773762,0,0,0,-3,0,-1021
941,10.785321,0,0,1,1,1,-1021
942,10.796889,0,1,0,0,6,-1025
943,10.808527,0,0,0,0,0,-1023
944,10.820189,0,0,0,-1,0,-1026
945,10.831859,0,0,-1,-1,0,-1022
946,10.843514,1,0,-1,-3,-1,-1016
947,10.855167,0,0,0,0,-1,-1024
948,10.86682,0,1,0,0,-1,-1025
949,10.878469,0,0,0,1,-2,-1019
950,10.890143,0,0,0,-2,1,-1031
951,10.901812,1,0,-1,-1,3,-1028
952,10.913391,0,1,0,-2,-1,-1026
953,10.924978,0,1,0,-2,-1,-1024
954,10.936534,0,0,0,-2,-1,-1023
955,10.948105,0,0,0,-3,3,-1026
956,10.95965,0,1,0,-3,1,-1032
957,10.971199,0,0,0,0,-3,-1021
958,10.98275,0,0,0,0,-1,-1026
959,10.994325,1,-1,0,-2,0,-1026
960,11.005898,0,-1,-1,-1,-1,-1023
961,11.017598,1,0,0,0,-2,-1025
962,11.029286,0,0,-1,0,-1,-1027
963,11.040944,0,0,-1,-3,-2,-1023
964,11.052612,0,1,0,-4,2,-1030
965,11.06429,0,0,0,5,3,-1016
966,11.075944,0,-1,0,2,0,-1022
967,11.087617,0,1,-1,-3,-2,-1023
968,11.09928,1,1,0,-2,-2,-1021
969,11.110949,0,0,0,-3,-2,-1020
970,11.122618,0,0,0,1,-3,-1024
971,11.134177,0,0,0,-2,1,-1022
972,11.145762,0,0,0,3,-3,-1021
973,11.157324,0,0,0,0,1,-1027
974,11.168888,1,0,0,1,-3,-1025
975,11.180482,0,1,0,-3,-1,-1024
976,11.192038,0,0,0,1,1,-1019
977,11.203599,0,0,-1,-3,2,-1022
978,11.215163,0,0,0,1,2,-1027
979,11.22679,0,0,-1,0,6,-1022
980,11.238481,0,0,0,2,-3,-1024
981,11.250152,0,0,1,-2,1,-1024
982,11.26182,0,-1,-1,-2,-2,-1023
983,11.273563,0,0,0,-3,-2,-1017
984,11.285272,1,0,0,1,-2,-1027
985,11.296925,0,-1,1,-1,0,-1025
986,11.308593,0,0,1,2,1,-1022
987,11.32026,0,0,-1,1,-3,-1022
988,11.331919,0,-1,0,7,-1,-1024
989,11.343593,0,1,0,1,-3,-1026
990,11.355261,0,0,0,1,2,-1026
991,11.366945,1,-1,0,1,0,-1021
992,11.37862,1,-1,0,3,1,-1022
993,11.390296,1,1,0,1,1,-1025
994,11.401961,1,0,0,3,2,-1021
995,11.413639,1,1,0,-1,2,-1026
996,11.425316,0,0,0,0,4,-1023
997,11.437028,0,1,0,2,-1,-1021
998,11.448689,0,-1,1,2,1,-1023
999,11.460337,1,-1,0,3,1,-1015
1000,11.47199,0,0,1,-3,2,-1025
1001,11.483661,0,0,0,-2,3,-1023
1002,11.495343,1,0,0,1,1,-1023
1003,11.507097,1,0,0,-4,1,-1017
1004,11.518774,1,-1,0,-5,1,-1024
1005,11.530478,1,1,0,0,1,-1020
1006,11.542194,0,-1,0,-2,1,-1030
1007,11.553763,0,-1,0,-2,-2,-1027
1008,11.565325,0,-1,-1,0,3,-1027
1009,11.576875,0,0,0,-1,-1,-1027
1010,11.588421,0,1,0,0,4,-1018
1011,11.599975,0,0,-1,-1,-1,-1026
1012,11.611545,0,0,-1,1,0,-1019
1013,11.623098,0,0,0,0,0,-1021
1014,11.634664,0,0,0,1,-1,-1024
1015,11.646299,1,0,1,-1,1,-1024
1016,11.657985,0,0,1,0,2,-1020
1017,11.669637,1,0,0,2,2,-1027
1018,11.681303,0,-1,0,3,0,-1023
1019,11.692963,0,-1,0,2,3,-1022
1020,11.704626,1,0,0,0,1,-1021
1021,11.716275,0,0,-1,0,-1,-1019
1022,11.727965,0,0,0,-3,-3,-1026
1023,11.739621,0,0,-1,-1,-3,-1023
1024,11.751295,0,0,-1,2,-2,-1018
1025,11.76285,0,0,0,-1,0,-1022
1026,11.774402,0,0,-1,1,3,-1022
1027,11.785995,0,0,0,-1,-3,-1022
1028,11.797589,0,0,0,2,0,-1020
1029,11.809178,0,0,0,-1,1,-1021
1030,11.820728,-1,0,0,2,3,-1033
1031,11.832281,1,0,0,2,-1,-1023
1032,11.84386,1,0,0,1,-3,-1023
1033,11.85551,0,0,-1,-4,-1,-1026
1034,11.867167,0,1,-1,2,1,-1024
1035,11.878824,1,0,0,-7,2,-1022
1036,11.890494,0,0,0,1,-1,-1023
1037,11.90215,0,1,-1,-1,-1,-1015
1038,11.913821,0,-1,0,-4,0,-1027
1039,11.925468,0,0,-1,-1,1,-1028
1040,11.937168,0,0,-1,0,-2,-1017
1041,11.948814,0,-1,0,-1,-2,-1026
1042,11.960375,1,0,1,2,-3,-1025
1043,11.971975,0,-1,0,4,4,-1026
1044,11.983534,0,-1,0,3,0,-1026
1045,11.995091,0,0,1,2,-2,-1032
1046,12.006632,1,0,1,-2,-2,-1024
1047,12.018186,1,-1,0,-1,1,-1026
1048,12.029756,1,0,-1,0,-8,-1022
1049,12.041341,1,0,0,0,0,-1025
1050,12.052895,0,0,0,3,3,-1020
1051,12.064529,0,0,0,2,0,-1019
1052,12.076182,1,0,0,1,-2,-1023
1053,12.087853,1,-1,0,-1,-1,-1022
1054,12.099526,0,0,0,0,-2,-1029
1055,12.111172,0,-1,1,0,-1,-1022
1056,12.122827,0,0,-1,-1,1,-1029
1057,12.134513,0,-1,0,1,2,-1024
1058,12.146193,1,0,1,2,-1,-1025
1059,12.157893,0,0,-1,3,3,-1020
1060,12.169573,0,0,-1,-2,-1,-1027
1061,12.181177,1,0,-1,0,0,-1026
1062,12.192732,1,0,-1,-4,-1,-1027
1063,12.204286,1,0,0,-1,-1,-1028
1064,12.215881,0,-1,0,1,2,-1024
1065,12.227457,0,0,-1,1,1,-1027
1066,12.239015,0,0,-1,-4,2,-1017
1067,12.250587,0,-1,0,-5,-1,-1019
1068,12.262156,0,0,-1,-2,1,-1022
1069,12.27381,1,0,-1,-2,1,-1026
1070,12.285463,0,-1,-1,0,-1,-1025
1071,12.29716,0,0,0,0,0,-1027
1072,12.308825,1,0,0,-2,0,-1023
1073,12.320513,1,0,0,-1,-3,-1027
1074,12.33216,0,0,0,1,0,-1021
1075,12.343837,0,0,0,1,-1,-1021
1076,12.355519,0,0,0,-1,-2,-1023
1077,12.367166,0,0,0,4,-1,-1027
1078,12.378791,0,0,0,1,-2,-1028
1079,12.390351,0,0,1,0,2,-1023
1080,12.401899,0,1,1,-5,-1,-1027
1081,12.413451,0,1,0,0,-2,-1024
1082,12.425021,1,1,0,-3,-2,-1023
1083,12.436578,1,0,-1,2,-1,-1021
1084,12.448132,0,1,0,1,-1,-1026
1085,12.4597,0,0,0,2,-4,-1020
1086,12.471262,0,0,-1,0,0,-1026
1087,12.482896,0,0,-1,-4,2,-1025
1088,12.494595,0,-1,0,1,-2,-1017
1089,12.506263,0,0,0,-2,1,-1024
1090,12.517978,0,0,-1,-1,-1,-1021
1091,12.529637,1,0,0,-1,1,-1026
1092,12.541304,0,-1,0,-3,0,-1025
1093,12.552972,1,0,0,1,-1,-1023
1094,12.564642,0,1,0,2,1,-1020
1095,12.576307,0,0,1,-1,2,-1023
1096,12.587962,1,1,0,3,2,-1026
1097,12.599524,0,0,0,-2,-1,-1020
1098,12.611078,0,1,0,-1,0,-1024
1099,12.622636,0,0,0,-2,0,-1021
1100,12.634223,0,0,1,0,2,-1021
1101,12.645765,0,-1,0,3,-2,-1028
1102,12.657334,0,0,1,-1,0,-1027
1103,12.668874,0,0,0,1,0,-1016
1104,12.680431,1,-1,0,-4,-1,-1019
1105,12.69205,0,0,0,0,3,-1020
1106,12.703702,0,-1,-1,-7,-1,-1023
1107,12.715392,0,0,0,-1,1,-1023
1108,12.727053,1,0,0,0,2,-1025
1109,12.73871,0,0,-1,1,-4,-1024
1110,12.750365,0,0,0,1,-3,-1021
1111,12.762059,1,1,0,-3,0,-1027
1112,12.773711,0,0,0,-1,1,-1035
1113,12.78542,0,-1,0,0,0,-1024
1114,12.797072,1,0,0,-1,0,-1023
1115,12.808625,0,0,-1,2,-4,-1024
1116,12.820177,0,-1,0,0,3,-1023
1117,12.831724,0,-1,0,-7,-1,-1025
1118,12.843311,0,-1,0,-4,-1,-1020
1119,12.85486,0,0,0,-1,-2,-1025
1120,12.866451,0,1,1,0,-1,-1020
1121,12.877985,1,0,0,-3,-1,-1019
1122,12.889525,0,0,0,-4,4,-1025
1123,12.901175,0,0,0,-2,-1,-1024
1124,12.912828,0,0,1,1,-1,-1025
1125,12.924515,1,0,0,-3,-3,-1024
1126,12.936174,1,0,0,2,-2,-1023
1127,12.947819,1,1,-1,0,1,-1016
1128,12.959468,0,0,0,-4,-4,-1025
1129,12.971136,0,0,0,3,-1,-1026
1130,12.982784,1,1,0,1,-3,-1023
1131,12.994473,1,0,0,-3,2,-1024
1132,13.006135,1,0,0,2,0,-1021
1133,13.017706,1,0,-1,0,0,-1023
1134,13.029267,0,-1,-1,-4,-2,-1025
1135,13.040818,0,0,0,0,-1,-1020
1136,13.052365,1,0,0,2,-2,-1027
1137,13.063946,0,0,0,1,-3,-1027
1138,13.075483,0,0,-1,-1,-4,-1022
1139,13.087035,0,0,0,0,0,-1022
1140,13.0986,0,-1,1,0,-2,-1024
1141,13.110236,0,0,0,0,-2,-1026
1142,13.121926,0,1,1,-2,-5,-1027
1143,13.133608,0,0,0,0,-5,-1027
1144,13.145284,1,0,0,-2,-1,-1023
1145,13.156934,1,0,0,3,2,-1022
1146,13.168603,1,0,1,-2,-1,-1025
1147,13.180256,1,-1,0,3,2,-1017
1148,13.19193,0,1,0,0,0,-1019
1149,13.203619,1,0,0,-4,-1,-1022
1150,13.215271,0,0,0,-3,-2,-1015
1151,13.226834,0,0,0,0,-1,-1029
1152,13.238385,0,0,0,-2,3,-1022
1153,13.249933,0,0,0,2,-2,-1027
1154,13.261511,0,0,0,-4,-2,-1020
1155,13.273083,0,0,0,-1,-4,-1024
1156,13.284633,0,0,0,-1,-1,-1022
1157,13.296251,1,0,0,-2,2,-1026
1158,13.307811,0,0,0,0,1,-1019
1159,13.319432,0,-1,0,-1,1,-1025
1160,13.331133,0,-1,0,0,1,-1025
1161,13.342792,0,0,0,-1,0,-1026
1162,13.354475,1,0,0,-1,2,-1022
1163,13.366135,0,-1,-1,-5,0,-1026
1164,13.377809,0,0,0,3,2,-1021
1165,13.389461,0,0,0,-4,1,-1025
1166,13.401159,1,0,0,-1,-1,-1016
1167,13.412836,0,0,0,-2,0,-1023
1168,13.424493,0,0,0,4,0,-1020
1169,13.436075,0,0,0,-5,0,-1028
1170,13.447643,1,0,-1,0,-1,-1026
1171,13.459204,1,0,0,-3,-1,-1024
1172,13.470768,0,1,-1,3,0,-1023
1173,13.482424,0,-1,-1,3,-3,-1021
1174,13.494012,0,-1,0,-4,-1,-1018
1175,13.505572,0,0,1,1,-1,-1024
1176,13.517241,0,0,0,3,1,-1026
1177,13.528887,0,0,0,2,1,-1019
1178,13.54056,1,1,0,-3,2,-1022
1179,13.552231,0,0,0,0,1,-1022
1180,13.563892,0,0,0,0,2,-1020
1181,13.575549,0,-1,0,2,1,-1027
1182,13.587215,0,1,0,-4,-1,-1029
1183,13.598873,1,0,1,0,-1,-1019
1184,13.610523,1,0,0,0,7,-1026
1185,13.622233,0,0,0,-1,-2,-1026
1186,13.633889,0,0,-1,-3,-2,-1025
1187,13.645572,-1,0,0,-5,5,-1029
1188,13.657244,-1,0,0,-2,-4,-1028
1189,13.668933,0,0,0,2,-1,-1025
1190,13.68061,1,0,0,0,2,-1028
1191,13.692275,0,0,1,-3,-1,-1028
1192,13.703925,0,0,1,-1,4,-1025
1193,13.715598,0,1,-1,3,3,-1024
1194,13.727285,0,0,0,-1,-1,-1021
1195,13.738942,0,1,1,-3,-3,-1024
1196,13.750623,0,-1,0,0,1,-1022
1197,13.762306,1,0,-1,3,1,-1022
1198,13.773982,1,0,0,-6,-2,-1026
1199,13.785643,0,0,0,-1,3,-1027
1200,13.797301,1,-1,0,-3,3,-1022
1201,13.808952,1,0,0,-3,0,-1028
1202,13.820622,0,0,0,-2,3,-1024
1203,13.83234,1,0,0,-3,0,-1028
1204,13.843998,1,0,0,0,-3,-1024
1205,13.855555,1,0,1,-2,-1,-1036
1206,13.867102,1,0,0,1,-3,-1024
1207,13.87865,0,-1,0,-2,0,-1026
1208,13.890227,-1,0,0,1,-2,-1027
1209,13.901754,0,0,-1,0,1,-1030
1210,13.913324,0,0,0,-2,1,-1027
1211,13.924872,0,-1,0,-3,-1,-1024
1212,13.936455,1,0,0,-2,-2,-1028
1213,13.948088,1,1,-1,1,-2,-1021
1214,13.959751,0,0,-1,-1,1,-1026
1215,13.971408,0,0,0,0,-1,-1018
1216,13.983072,-1,0,0,2,-1,-1020
1217,13.994737,0,0,0,1,1,-1027
1218,14.006398,0,0,0,1,3,-1024
1219,14.018088,0,0,1,2,4,-1025
1220,14.029769,0,0,0,-1,0,-1025
1221,14.041447,0,0,0,-2,4,-1020
1222,14.053115,0,0,0,2,-2,-1023
1223,14.06468,0,0,0,1,2,-1026
1224,14.076228,0,0,0,2,4,-1024
1225,14.087808,0,0,0,-2,0,-1022
1226,14.099346,0,0,0,-1,-2,-1024
1227,14.11089,0,0,0,-1,-2,-1024
1228,14.122465,0,0,0,-3,0,-1023
1229,14.133997,0,1,-1,-2,2,-1014
1230,14.145525,0,0,0,0,2,-1024
1231,14.157179,1,0,-1,-2,2,-1023
1232,14.168866,0,1,0,0,0,-1021
1233,14.18055,0,1,0,0,0,-1019
1234,14.192207,0,0,0,-3,2,-1019
1235,14.20387,0,0,0,5,1,-1024
1236,14.215527,0,0,0,-3,2,-1020
1237,14.227174,0,-1,0,-2,-1,-1023
1238,14.238855,0,1,1,-1,2,-1027
1239,14.250516,0,0,-1,-2,0,-1025
1240,14.262081,0,0,0,1,1,-1023
1241,14.273679,0,0,1,-4,0,-1027
1242,14.285256,0,0,0,2,-4,-1018
1243,14.296819,0,0,0,-2,0,-1025
1244,14.30836,0,0,0,0,1,-1025
1245,14.319904,0,0,1,-6,-2,-1018
1246,14.331455,0,0,0,2,-1,-1028
1247,14.343014,0,0,0,-1,-3,-1024
1248,14.354586,1,0,0,2,-2,-1020
1249,14.366209,0,0,0,1,-2,-1027
1250,14.377876,0,0,0,3,2,-1021
1251,14.389548,0,0,0,5,-2,-1027
1252,14.401254,0,-1,0,-1,-1,-1026
1253,14.412897,0,0,0,-1,1,-1023
1254,14.424545,0,0,0,0,0,-1026
1255,14.436238,0,1,0,-3,-1,-1019
1256,14.447882,0,0,0,-2,-1,-1021
1257,14.45954,1,0,0,0,1,-1019
1258,14.471203,1,1,0,0,0,-1025
1259,14.482803,1,-1,0,-1,1,-1031
1260,14.494367,0,-1,0,0,-1,-1024
1261,14.505943,0,-1,0,-1,-1,-1021
1262,14.517503,1,0,0,1,1,-1026
1263,14.529032,0,0,-1,0,0,-1023
1264,14.540579,0,0,0,-1,-4,-1025
1265,14.552126,0,1,0,3,1,-1024
1266,14.563707,1,0,0,-1,-3,-1025
1267,14.575491,0,0,-1,1,-3,-1024
1268,14.587158,0,0,0,-5,0,-1022
1269,14.598833,0,1,0,0,2,-1023
1270,14.610499,0,0,0,-1,3,-1023
1271,14.622161,1,1,0,2,-2,-1024
1272,14.633844,-1,0,-1,-2,0,-1022
1273,14.645493,1,0,0,1,0,-1022
1274,14.657164,0,0,-1,3,4,-1018
1275,14.668852,0,-1,0,0,1,-1025
1276,14.680597,1,-1,0,-1,2,-1027
1277,14.692192,0,0,0,0,-3,-1019
1278,14.703746,1,1,0,2,-3,-1023
1279,14.7153,0,0,1,1,-1,-1025
1280,14.726851,0,0,0,-3,0,-1021
1281,14.7384,1,1,0,-2,3,-1021
1282,14.749981,0,0,0,1,-2,-1026
1283,14.761518,0,0,0,-3,-2,-1024
1284,14.773113,1,0,-1,0,2,-1018
1285,14.78473,0,0,0,-1,1,-1027
1286,14.796379,0,0,1,1,2,-1017
1287,14.808028,0,0,1,-2,-1,-1025
1288,14.819698,0,0,0,0,-2,-1029
1289,14.831363,1,-1,0,-2,1,-1024
1290,14.843014,1,1,0,0,8,-1022
1291,14.854666,0,0,1,0,0,-1021
1292,14.86636,1,0,0,-1,-2,-1020
1293,14.878069,0,0,0,1,-1,-1018
1294,14.889755,1,0,0,-5,4,-1021
1295,14.901383,0,0,0,0,1,-1022
1296,14.913127,0,1,0,1,1,-1029
1297,14.924718,1,0,0,-1,-3,-1025
1298,14.936292,0,0,0,2,-3,-1023
1299,14.947848,0,0,-1,1,0,-1034
1300,14.959398,0,0,-1,1,-1,-1024
1301,14.970951,0,0,0,-4,-2,-1027
1302,14.982533,0,0,0,-3,-2,-1022
1303,14.994119,0,0,-1,-1,4,-1024
1304,15.005687,0,0,-1,-2,2,-1029
1305,15.017255,1,0,0,2,-1,-1029
1306,15.028809,1,0,0,3,-1,-1021
1307,15.040359,0,0,0,0,1,-1022
1308,15.051906,0,0,0,-1,-1,-1022
1309,15.063456,0,0,0,-1,-3,-1026
1310,15.075045,0,0,0,1,-5,-1021
1311,15.086613,0,0,0,-1,2,-1024
1312,15.098344,1,-1,0,-1,-2,-1032
1313,15.110005,0,0,-1,-2,-1,-1029
1314,15.121686,1,0,-1,1,-2,-1026
1315,15.133367,0,0,0,2,-3,-1021
1316,15.145075,0,0,0,-1,-3,-1029
1317,15.156735,0,0,-1,-1,-4,-1020
1318,15.168406,0,1,0,-3,4,-1023
1319,15.180057,0,0,0,-2,-1,-1022
1320,15.191731,1,0,0,0,-1,-1027
1321,15.203396,0,1,0,0,1,-1024
1322,15.214949,0,0,0,-2,0,-1026
1323,15.226497,1,0,0,-2,1,-1022
1324,15.238064,0,0,0,3,-4,-1023
1325,15.249632,1,0,0,-1,-4,-1024
1326,15.261184,1,1,0,-3,1,-1026
1327,15.272749,0,1,0,3,-2,-1020
1328,15.28431,0,1,0,2,1,-1026
1329,15.295875,0,0,0,2,2,-1021
1330,15.307494,0,0,0,0,2,-1028
1331,15.319154,1,0,0,-1,1,-1021
1332,15.330805,1,0,0,1,3,-1022
1333,15.342475,0,0,0,-5,-2,-1024
1334,15.354139,0,0,-1,-1,1,-1024
1335,15.365847,1,0,0,1,0,-1024
1336,15.377553,1,-1,0,1,-2,-1021
1337,15.389279,0,0,-1,1,-3,-1018
1338,15.400941,0,1,-1,-2,3,-1023
1339,15.412627,1,1,1,2,0,-1028
1340,15.424183,0,0,1,2,-2,-1028
1341,15.435732,1,1,0,0,1,-1024
1342,15.447281,0,-1,0,1,-3,-1022
1343,15.458827,1,-1,0,0,-1,-1025
1344,15.470375,0,0,0,-1,4,-1025
1345,15.48193,0,1,0,1,-2,-1024
1346,15.493518,1,0,-1,1,-1,-1025
1347,15.505099,1,0,-1,3,1,-1022
1348,15.516794,1,1,0,-4,0,-1015
1349,15.528468,1,1,0,2,2,-1023
1350,15.540123,0,0,-1,1,-2,-1025
1351,15.551782,0,-1,-1,-2,-3,-1020
1352,15.563447,0,1,0,3,1,-1018
1353,15.575107,1,0,0,-1,0,-1024
1354,15.586753,0,0,1,-2,-5,-1024
1355,15.598408,0,0,0,-1,1,-1022
1356,15.610096,1,1,-1,4,2,-1012
1357,15.621748,1,1,-1,0,2,-1029
1358,15.633425,1,1,0,-1,-1,-1026
1359,15.645105,0,0,0,4,0,-1024
1360,15.656776,1,1,0,-3,-2,-1025
1361,15.668425,1,0,1,-2,2,-1027
1362,15.680099,0,0,0,1,2,-1025
1363,15.691746,0,1,1,-2,-2,-1019
1364,15.703394,0,-1,0,-1,-1,-1031
1365,15.715055,1,0,1,-2,2,-1021
1366,15.726709,0,0,0,0,0,-1031
1367,15.738251,0,0,0,-3,-1,-1028
1368,15.749809,0,0,-1,-1,3,-1032
1369,15.761388,0,1,1,2,-2,-1024
1370,15.77294,0,0,1,2,0,-1023
1371,15.784487,0,0,0,-1,-4,-1027
1372,15.796058,1,0,-1,-4,1,-1022
1373,15.807619,0,0,-1,-2,-2,-1024
1374,15.819193,0,0,-1,1,-1,-1025
1375,15.830852,0,0,0,1,2,-1020
1376,15.842523,0,0,0,-3,6,-1028
1377,15.854209,0,1,0,-2,2,-1025
1378,15.865876,1,-1,0,-1,0,-1032
1379,15.877551,1,0,0,2,1,-1023
1380,15.889306,0,0,0,-1,-3,-1026
1381,15.900969,0,0,-1,1,0,-1030
1382,15.912624,0,0,-1,1,1,-1021
1383,15.9243,0,0,-1,1,-2,-1025
1384,15.935965,1,0,0,-1,1,-1029
1385,15.947546,0,0,0,-2,2,-1021
1386,15.959097,0,-1,1,1,-2,-1024
1387,15.970672,0,0,0,1,-2,-1017
1388,15.982229,0,0,0,1,2,-1022
1389,15.99375,0,1,0,0,-1,-1020
1390,16.005273,0,1,0,0,-2,-1018
1391,16.016819,1,0,0,-1,0,-1022
1392,16.028373,0,-1,0,-2,2,-1021
1393,16.039985,1,1,0,6,-3,-1028
1394,16.051633,0,0,0,-1,0,-1019
1395,16.063298,1,0,0,-4,-4,-1022
1396,16.074964,1,0,0,-3,0,-1022
1397,16.086617,0,0,-1,0,-1,-1023
1398,16.098309,0,0,-1,0,0,-1027
1399,16.109976,0,0,0,3,-2,-1022
1400,16.121631,0,0,0,-4,1,-1030
1401,16.133304,0,0,0,-2,-1,-1024
1402,16.14497,1,0,0,-1,2,-1028
1403,16.156553,1,0,0,-2,-2,-1025
1404,16.168122,0,1,0,-1,-3,-1026
1405,16.179688,1,0,0,2,-3,-1018
1406,16.191242,0,0,0,3,2,-1026
1407,16.202801,0,0,0,5,-1,-1023
1408,16.214363,0,0,0,2,2,-1026
1409,16.225922,0,0,0,2,-3,-1030
1410,16.237504,0,0,-1,3,-1,-1025
1411,16.249165,0,0,0,-4,-2,-1023
1412,16.260866,0,0,0,0,-3,-1025
1413,16.272534,-1,0,-1,-3,-1,-1024
1414,16.284192,0,1,-1,-1,2,-1020
1415,16.295861,0,0,0,2,0,-1024
1416,16.307519,1,0,-1,-1,-1,-1024
1417,16.319165,1,0,0,-1,-1,-1026
1418,16.330845,0,1,0,-2,-2,-1018
1419,16.342523,1,0,0,1,0,-1020
1420,16.354174,0,0,0,-2,-1,-1022
1421,16.365781,0,0,0,0,-1,-1023
1422,16.377337,0,0,0,-2,1,-1025
1423,16.388888,0,0,0,-3,4,-1021
1424,16.400455,0,0,1,0,-3,-1023
1425,16.412026,0,0,0,-1,1,-1023
1426,16.42357,0,0,1,-2,-1,-1021
1427,16.435118,0,1,0,1,1,-1027
1428,16.44668,0,1,0,-2,-4,-1026
1429,16.458358,0,1,-1,0,-1,-1026
1430,16.470061,0,0,0,0,-1,-1024
1431,16.48174,0,0,-1,0,2,-1027
1432,16.49341,0,0,0,-3,2,-1029
1433,16.505094,0,0,-1,-1,-1,-1023
1434,16.516749,1,-1,-1,-2,-3,-1032
1435,16.52839,0,0,0,-1,0,-1029
1436,16.540057,0,0,0,0,-3,-1023
1437,16.551736,0,-1,1,-5,0,-1021
1438,16.563405,0,0,0,3,-2,-1027
1439,16.574954,1,0,-1,-1,0,-1018
1440,16.5865,0,0,-1,1,2,-1025
1441,16.598061,0,0,-1,-1,-1,-1024
1442,16.609633,0,-1,0,-5,-1,-1026
1443,16.621184,0,0,0,0,1,-1025
1444,16.632796,0,0,0,-3,-3,-1025
1445,16.644342,0,0,-1,-4,-2,-1018
1446,16.655915,1,0,1,-1,-2,-1019
1447,16.667559,0,-1,0,3,-1,-1030
1448,16.679231,0,1,0,2,-3,-1023
1449,16.690886,0,1,0,-3,0,-1022
1450,16.702584,0,0,0,0,0,-1023
1451,16.714237,0,0,0,-3,0,-1025
1452,16.725894,0,0,0,2,-1,-1029
1453,16.737555,0,0,0,-3,-1,-1016
1454,16.749213,0,0,0,-1,-1,-1023
1455,16.76088,0,1,0,-1,0,-1023
1456,16.772533,0,0,0,-5,0,-1028
1457,16.784097,0,0,0,0,0,-1029
1458,16.795666,0,0,0,2,0,-1021
1459,16.807216,0,0,0,-1,-2,-1021
1460,16.818775,0,0,0,-2,-4,-1024
1461,16.830347,0,0,0,-1,-1,-1024
1462,16.8419,0,0,-1,-2,-3,-1026
1463,16.853458,0,1,0,0,1,-1025
1464,16.865041,-1,0,0,-2,-1,-1020
1465,16.876703,0,-1,0,-3,3,-1023
1466,16.888359,0,0,0,1,1,-1026
1467,16.900008,0,-1,0,2,-1,-1028
1468,16.911681,1,0,0,-1,-3,-1026
1469,16.923351,1,0,0,-1,3,-1021
1470,16.934998,1,0,0,-2,1,-1028
1471,16.946652,0,0,0,-2,1,-1020
1472,16.958327,1,1,0,2,1,-1028
1473,16.970002,1,0,0,1,0,-1015
1474,16.981692,0,0,0,1,-1,-1022
1475,16.993427,1,1,0,-1,1,-1019
1476,17.005107,0,0,0,1,1,-1032
1477,17.016755,0,0,0,0,1,-1018
1478,17.028401,0,-1,0,0,-1,-1023
1479,17.04007,1,0,0,2,0,-1022
1480,17.051721,0,-1,-1,-3,-1,-1019
1481,17.063372,1,0,0,1,2,-1025
1482,17.075052,0,0,-1,-4,0,-1024
1483,17.086718,0,0,1,-3,-2,-1017
1484,17.098372,0,0,0,-3,0,-1021
1485,17.110075,0,0,0,-2,-1,-1026
1486,17.121733,0,-1,0,-2,4,-1029
1487,17.13341,1,0,0,0,-1,-1026
1488,17.145104,0,1,1,0,1,-1021
1489,17.156753,1,0,-1,-3,1,-1019
1490,17.168417,0,1,0,4,2,-1016
1491,17.1801,0,0,0,0,-2,-1019
1492,17.191757,0,0,0,-2,-2,-1019
1493,17.203425,1,0,-1,1,-3,-1024
1494,17.215091,0,0,0,-4,-1,-1024
1495,17.226738,0,0,0,-3,0,-1028
1496,17.238399,1,0,-1,-1,-2,-1023
1497,17.250069,0,0,-1,1,0,-1024
1498,17.261726,0,0,-1,3,1,-1024
1499,17.273387,0,0,0,2,1,-1023
1500,17.285037,0,0,0,0,1,-1016
1501,17.296595,1,0,1,0,-2,-1025
1502,17.308162,0,0,0,4,-1,-1025
1503,17.319708,0,0,0,0,-2,-1026
1504,17.331251,0,0,0,-5,-1,-1027
1505,17.342802,0,0,0,-2,1,-1025
1506,17.354362,0,1,0,-3,-2,-1026
1507,17.365937,0,0,0,0,-1,-1026
1508,17.37753,1,0,0,-3,-2,-1024
1509,17.389091,0,0,0,0,1,-1025
1510,17.400709,1,0,-1,3,-2,-1023
1511,17.412371,0,0,0,-3,-2,-1023
1512,17.424072,0,0,0,2,0,-1025
1513,17.435734,1,0,0,0,0,-1025
1514,17.447395,1,0,0,0,-2,-1022
1515,17.459067,0,0,0,1,-2,-1023
1516,17.470725,0,0,0,1,2,-1026
1517,17.482393,0,0,0,-2,2,-1022
1518,17.494087,0,0,0,-6,0,-1025
1519,17.505759,0,0,0,-3,-1,-1029
1520,17.517319,0,-1,0,0,-2,-1017
1521,17.528871,0,0,0,0,1,-1020
1522,17.540426,0,0,0,1,0,-1027
1523,17.551971,0,-1,0,0,-2,-1028
1524,17.563518,1,0,0,-2,-1,-1026
1525,17.575077,1,0,-1,0,2,-1024
1526,17.586667,1,0,0,-2,-3,-1026
1527,17.598247,0,-1,0,4,0,-1020
1528,17.609797,1,0,0,-2,-4,-1021
1529,17.621348,1,0,-1,2,-3,-1022
1530,17.632934,1,0,-1,-2,2,-1022
1531,17.644484,0,0,1,-1,-2,-1022
1532,17.656047,1,0,0,-1,1,-1022
1533,17.667593,0,0,0,0,1,-1029
1534,17.679145,1,0,0,-2,-5,-1020
1535,17.690698,1,0,0,3,-2,-1022
1536,17.702365,0,0,0,1,-2,-1022
1537,17.714065,1,0,0,0,-1,-1027
1538,17.725724,1,0,0,7,0,-1021
1539,17.737404,0,0,-1,-1,-1,-1024
1540,17.749044,0,0,0,-1,-1,-1027
1541,17.760703,0,0,-1,1,1,-1024
1542,17.772361,0,0,0,2,-2,-1021
1543,17.784035,0,1,0,0,-1,-1022
1544,17.795699,0,0,0,-1,-5,-1021
1545,17.807293,0,0,-1,-3,0,-1023
1546,17.818907,0,1,0,1,2,-1029
1547,17.830502,1,0,0,2,-1,-1031
1548,17.842056,0,0,0,1,-3,-1022
1549,17.853623,1,0,0,-1,-2,-1022
1550,17.865184,1,0,-1,-1,0,-1021
1551,17.876753,0,0,0,-5,-2,-1021
1552,17.888305,0,0,0,-2,4,-1016
1553,17.899897,0,-1,-1,-1,-1,-1026
1554,17.911567,0,0,0,-3,-3,-1020
1555,17.923227,1,0,0,1,3,-1023
1556,17.934905,0,-1,0,2,-1,-1028
1557,17.94659,0,-1,0,1,-1,-1025
1558,17.958256,1,0,0,-2,-3,-1025
1559,17.969944,0,1,1,-1,0,-1023
1560,17.981599,0,0,-1,1,-1,-1021
1561,17.99329,1,0,0,2,2,-1024
1562,18.004995,1,0,0,-2,3,-1024
1563,18.01667,0,0,0,0,-2,-1026
1564,18.02824,0,0,0,2,1,-1028
1565,18.039805,0,0,-1,-1,-1,-1028
1566,18.051401,0,0,0,-3,2,-1026
1567,18.06296,1,0,1,-1,1,-1025
1568,18.074533,0,0,1,2,1,-1029
1569,18.086102,0,0,0,-2,2,-1032
1570,18.097662,1,0,0,2,0,-1021
1571,18.1093,0,0,0,0,-2,-1024
1572,18.121034,1,1,0,-3,1,-1023
1573,18.132729,0,0,0,0,-3,-1023
1574,18.144378,1,0,-1,-2,-3,-1024
1575,18.156051,0,0,0,-2,2,-1023
1576,18.169934,0,1,0,-1,4,-1026
1577,18.181627,1,0,0,0,-4,-1020
1578,18.193316,1,0,1,0,-1,-1021
1579,18.204977,1,0,0,1,0,-1028
1580,18.216649,0,0,0,-4,1,-1025
1581,18.228349,0,1,0,-1,-1,-1019
1582,18.239915,0,1,-1,-2,-1,-1023
1583,18.251457,0,0,0,-1,1,-1027
1584,18.263013,1,0,0,3,0,-1026
1585,18.274567,0,0,1,2,0,-1026
1586,18.286169,0,0,0,3,3,-1026
1587,18.29778,1,0,0,-2,0,-1023
1588,18.309338,1,-1,0,3,-3,-1025
1589,18.320914,0,0,0,-4,3,-1030
1590,18.332534,0,0,0,4,0,-1020
1591,18.3442,1,0,1,-2,1,-1026
1592,18.355852,0,0,0,-3,1,-1024
1593,18.367505,0,-1,-1,0,-1,-1022
1594,18.379173,0,0,0,3,-1,-1023
1595,18.390828,0,1,0,1,0,-1030
1596,18.402478,0,0,0,1,1,-1024
1597,18.414139,0,1,0,1,1,-1023
1598,18.425829,0,0,0,-1,-3,-1030
1599,18.437485,0,1,0,4,0,-1025
1600,18.449035,0,0,-1,1,-3,-1023
1601,18.460616,0,0,0,-2,-3,-1022
1602,18.472174,0,0,0,0,-1,-1030
1603,18.483785,0,1,0,-3,1,-1024
1604,18.495331,1,-1,0,-3,3,-1027
1605,18.506878,0,0,0,2,-3,-1023
1606,18.518427,1,-1,0,-3,-2,-1027
1607,18.530005,0,0,-1,-3,-1,-1023
1608,18.541637,0,0,0,-1,1,-1026
1609,18.553314,0,1,0,-3,1,-1025
1610,18.564978,1,0,0,-2,-1,-1023
1611,18.57663,1,-1,1,-1,-3,-1028
1612,18.588313,0,0,-1,4,1,-1031
1613,18.599973,0,0,-1,-1,1,-1028
1614,18.611622,1,0,-1,-5,-1,-1025
1615,18.623276,0,0,0,-2,3,-1025
1616,18.634984,0,-1,0,-2,0,-1020
1617,18.646649,0,1,0,0,-3,-1025
1618,18.658237,0,0,0,-2,1,-1024
1619,18.669754,1,0,0,4,2,-1030
1620,18.681272,1,0,0,2,-2,-1025
1621,18.692823,0,0,0,3,2,-1027
1622,18.704399,0,1,0,-2,1,-1029
1623,18.715944,0,1,-1,2,0,-1022
1624,18.727483,0,0,1,1,2,-1021
1625,18.739041,0,0,-1,2,-1,-1021
1626,18.750661,0,-1,0,1,2,-1028
1627,18.762338,0,0,0,0,-5,-1016
1628,18.773997,0,0,1,0,1,-1023
1629,18.785683,1,0,0,-1,2,-1023
1630,18.797349,0,0,0,-2,1,-1025
1631,18.809043,0,1,0,1,-1,-1022
1632,18.820704,0,0,0,-2,0,-1019
1633,18.832359,1,1,0,4,0,-1027
1634,18.844033,1,0,0,-3,-4,-1019
1635,18.855709,0,1,0,-2,-1,-1025
1636,18.867281,0,0,-1,-1,1,-1024
1637,18.878833,0,1,0,-1,-4,-1018
1638,18.890402,0,1,0,2,-4,-1025
1639,18.901964,1,0,0,-2,-4,-1023
1640,18.913516,0,0,0,0,3,-1027
1641,18.92502,1,0,0,1,-2,-1027
1642,18.936566,0,0,-1,4,-1,-1022
1643,18.948145,1,1,1,1,-4,-1021
1644,18.959837,0,1,0,2,-3,-1027
1645,18.971499,0,0,-1,-3,-3,-1027
1646,18.983169,0,0,0,-3,1,-1023
1647,18.994826,-1,0,-1,0,-1,-1029
1648,19.006483,0,0,-1,1,1,-1027
1649,19.018154,0,0,0,-3,1,-1024
1650,19.02982,0,0,1,0,-2,-1029
1651,19.041473,0,1,0,0,3,-1020
1652,19.053158,1,0,0,2,-3,-1022
1653,19.064739,0,0,0,0,-5,-1018
1654,19.076293,1,0,0,3,-3,-1022
1655,19.087856,0,0,-1,1,-2,-1027
1656,19.099403,1,0,0,2,0,-1025
1657,19.110948,0,1,1,2,0,-1022
1658,19.122526,1,1,0,0,-2,-1027
1659,19.134077,0,0,-1,1,1,-1022
1660,19.14564,1,0,0,1,3,-1026
1661,19.157208,0,0,0,1,-6,-1029
1662,19.168838,1,1,0,-4,-2,-1016
1663,19.180489,1,0,0,3,1,-1027
1664,19.192162,1,0,1,1,-3,-1024
1665,19.203835,0,0,0,1,-2,-1030
1666,19.215478,1,0,0,0,3,-1013
1667,19.227148,0,0,0,3,-5,-1026
1668,19.238822,0,-1,0,-2,-2,-1024
1669,19.250472,0,0,0,-1,-2,-1027
1670,19.262144,1,1,0,1,0,-1023
1671,19.273803,0,-1,1,-1,-2,-1023
1672,19.285358,0,0,0,-2,1,-1028
1673,19.296912,0,0,0,1,-3,-1027
1674,19.308462,1,0,0,5,1,-1028
1675,19.320026,0,0,0,0,-4,-1023
1676,19.331593,0,-1,-1,1,1,-1018
1677,19.343153,1,0,0,3,2,-1023
1678,19.354703,0,0,-1,-1,-1,-1025
1679,19.366282,1,0,0,0,-1,-1022
1680,19.377968,1,1,0,0,-2,-1027
1681,19.389637,1,1,0,0,-1,-1023
1682,19.401301,0,0,-1,-2,-1,-1018
1683,19.412958,1,-1,-1,0,-2,-1026
1684,19.424609,0,-1,0,-2,1,-1030
1685,19.436269,0,-1,-1,2,1,-1022
1686,19.447939,0,0,0,0,2,-1025
1687,19.459595,0,0,0,-2,-4,-1020
1688,19.47127,0,1,0,1,2,-1021
1689,19.482934,0,0,0,2,2,-1028
1690,19.494592,0,0,0,2,1,-1025
1691,19.506306,0,0,0,-4,1,-1027
1692,19.517969,0,0,-1,-3,-1,-1026
1693,19.529644,0,0,0,3,1,-1027
1694,19.541305,1,1,0,1,-2,-1026
1695,19.552965,0,0,0,-4,-2,-1022
1696,19.564622,0,-1,0,-1,0,-1027
1697,19.576384,0,0,0,-2,-1,-1026
1698,19.588062,1,0,0,0,-3,-1019
1699,19.599677,0,0,0,-1,-3,-1020
1700,19.611255,0,0,1,0,0,-1022
1701,19.622803,1,0,-1,-2,4,-1029
1702,19.634374,0,1,1,2,2,-1025
1703,19.645933,0,1,0,1,-6,-1017
1704,19.657526,1,0,0,1,2,-1023
1705,19.669077,0,0,0,-4,0,-1023
1706,19.680642,0,-1,0,-3,-4,-1026
1707,19.692317,0,0,0,0,-1,-1023
1708,19.703962,0,0,1,-2,-1,-1027
1709,19.715618,0,1,0,3,-1,-1014
1710,19.727262,1,0,1,0,1,-1021
1711,19.738946,1,1,1,-3,3,-1026
1712,19.750603,0,0,0,-2,1,-1027
1713,19.762255,0,0,0,-1,-1,-1023
1714,19.773928,0,0,0,3,0,-1025
1715,19.785564,0,0,1,1,0,-1022
1716,19.797142,1,0,1,2,-1,-1025
1717,19.808699,1,0,0,4,-3,-1026
1718,19.820266,0,0,0,1,-1,-1026
1719,19.831822,0,0,0,-1,-2,-1024
1720,19.843382,1,0,-1,1,-1,-1029
1721,19.854942,0,0,0,-3,1,-1028
1722,19.866502,1,-1,0,3,1,-1017
1723,19.878055,0,0,0,0,2,-1028
1724,19.889645,0,0,-1,-3,2,-1021
1725,19.901308,0,0,0,-3,2,-1021
1726,19.912955,1,0,0,1,-2,-1024
1727,19.924603,-1,-1,0,-3,1,-1024
1728,19.936247,0,1,1,0,-1,-1026
1729,19.947899,0,0,1,-3,3,-1020
1730,19.959565,0,1,0,-1,-3,-1022
1731,19.971242,0,1,1,0,3,-1024
1732,19.982934,0,0,0,-1,2,-1018
1733,19.994591,1,0,0,-8,-5,-1022
1734,20.006264,0,0,1,-1,0,-1021
1735,20.017944,0,0,0,3,0,-1025
1736,20.029674,0,1,0,1,-3,-1024
1737,20.041348,0,1,0,0,2,-1026
1738,20.053026,0,0,-1,0,0,-1026
1739,20.064693,0,1,0,3,0,-1024
1740,20.076351,0,0,-1,0,0,-1022
1741,20.088015,0,0,0,-3,3,-1014
1742,20.0997,1,1,1,-1,3,-1029
1743,20.111359,0,0,1,2,-2,-1026
1744,20.123008,0,1,0,1,-2,-1023
1745,20.134658,0,1,0,-3,3,-1024
1746,20.14634,0,0,-1,-1,0,-1022
1747,20.157992,0,0,0,-4,0,-1025
1748,20.16968,0,-1,-1,-1,0,-1025
1749,20.18135,0,0,0,4,-2,-1018
1750,20.193097,0,0,0,0,1,-1024
1751,20.204792,0,1,0,-5,0,-1023
1752,20.216401,0,0,0,1,4,-1026
1753,20.22795,0,-1,-1,-2,2,-1020
1754,20.239498,0,0,0,2,-6,-1021
1755,20.25105,0,0,0,-1,-4,-1020
1756,20.262643,0,0,0,-4,1,-1022
1757,20.274228,0,0,0,-1,2,-1031
1758,20.285763,0,-1,0,-1,0,-1022
1759,20.297323,0,-1,0,-2,2,-1022
1760,20.308946,0,0,0,0,-2,-1026
1761,20.320596,0,0,0,-1,1,-1021
1762,20.332252,1,0,0,-3,-3,-1021
1763,20.343954,1,0,0,-3,-1,-1024
1764,20.355602,0,0,0,1,1,-1020
1765,20.367256,1,1,0,0,-1,-1030
1766,20.378969,1,0,0,3,-1,-1024
1767,20.390616,0,0,0,-1,1,-1025
1768,20.402306,0,0,0,1,1,-1024
1769,20.413967,0,1,0,-3,0,-1023
1770,20.425519,1,0,0,-1,1,-1022
1771,20.437077,0,0,0,0,1,-1019
1772,20.448634,0,0,-1,2,1,-1019
1773,20.460184,0,0,0,4,-3,-1027
1774,20.471736,0,1,0,-2,1,-1025
1775,20.483286,0,0,0,-1,2,-1026
1776,20.494848,0,1,0,-3,1,-1021
1777,20.506417,-1,1,0,-3,-2,-1024
1778,20.518014,0,0,0,2,2,-1029
1779,20.529573,1,1,0,-4,-1,-1022
1780,20.541155,0,0,0,-4,3,-1033
1781,20.552695,0,0,0,-2,2,-1024
1782,20.564256,0,0,0,-3,1,-1021
1783,20.575799,0,-1,0,-4,3,-1020
1784,20.587366,0,0,0,2,0,-1019
1785,20.59894,0,0,0,-2,-2,-1024
1786,20.610567,1,1,0,1,-1,-1026
1787,20.622194,0,0,-1,1,1,-1024
1788,20.633856,0,0,-1,-1,3,-1023
1789,20.645555,1,0,0,0,1,-1028
1790,20.657211,1,0,-1,2,2,-1022
1791,20.668864,0,0,-1,1,2,-1021
1792,20.680538,0,0,-1,-1,1,-1022
1793,20.69219,1,0,-1,3,1,-1029
1794,20.703838,0,0,0,0,-3,-1020
1795,20.715529,0,0,0,-1,1,-1027
1796,20.727193,0,1,0,-6,0,-1028
1797,20.738842,0,1,-1,2,-3,-1027
1798,20.750492,1,0,-1,0,-3,-1024
1799,20.762151,0,0,0,-1,-3,-1023
1800,20.773823,0,0,0,-4,-3,-1026
1801,20.785472,0,0,0,-2,0,-1029
1802,20.797121,1,0,0,1,-1,-1013
1803,20.808792,1,1,0,-3,-1,-1026
1804,20.820469,0,0,-1,2,-1,-1022
1805,20.83212,0,0,1,-1,-4,-1023
1806,20.843792,0,0,0,3,-5,-1023
1807,20.855449,0,1,0,-4,1,-1020
1808,20.867105,0,0,0,0,0,-1022
1809,20.878774,1,0,0,-1,-1,-1029
1810,20.890456,1,0,0,0,0,-1027
1811,20.902126,0,-1,0,-1,1,-1025
1812,20.913811,0,-1,0,-1,4,-1023
1813,20.925496,0,-1,0,-5,-4,-1029
1814,20.937179,0,0,-1,-2,-4,-1018
1815,20.948821,1,1,0,-2,-1,-1023
1816,20.960468,1,0,0,-2,-1,-1028
1817,20.97215,1,-1,-1,1,-1,-1024
1818,20.983815,0,0,0,-1,0,-1021
1819,20.99547,0,-1,0,-1,2,-1025
1820,21.007118,1,-1,0,-4,-1,-1032
1821,21.018801,0,0,-1,2,-2,-1022
1822,21.03048,1,0,-1,-2,0,-1021
1823,21.042144,1,0,1,2,-1,-1026
1824,21.053712,0,0,0,-1,1,-1026
1825,21.065292,0,0,0,-1,-1,-1027
1826,21.076889,0,1,1,0,-3,-1027
1827,21.088463,0,0,0,-1,-3,-1023
1828,21.100021,0,0,1,0,-3,-1023
1829,21.111564,0,0,0,3,0,-1019
1830,21.123111,0,1,-1,-1,-3,-1028
1831,21.134677,0,1,0,3,3,-1028
1832,21.146316,0,0,0,-3,-6,-1023
1833,21.157983,0,0,0,4,2,-1024
1834,21.169682,0,0,0,0,0,-1024
1835,21.181303,0,0,0,-1,0,-1020
1836,21.192953,1,0,0,-1,-1,-1023
1837,21.204609,0,0,1,0,-2,-1019
1838,21.216285,1,1,-1,-2,1,-1022
1839,21.227934,0,1,0,-4,-2,-1024
1840,21.239595,0,-1,0,-2,-2,-1014
1841,21.251277,1,-1,0,1,-1,-1022
1842,21.26283,0,0,-1,1,2,-1022
1843,21.274387,0,0,0,-1,-3,-1023
1844,21.286001,0,0,0,2,4,-1018
1845,21.297558,1,0,0,-1,3,-1022
1846,21.309146,0,0,-1,-1,0,-1025
1847,21.320692,1,0,-1,1,2,-1022
1848,21.332251,0,-1,0,1,0,-1030
1849,21.343807,0,0,0,1,-3,-1025
1850,21.355423,0,0,1,2,0,-1023
1851,21.367079,0,0,-1,-1,3,-1025
1852,21.378725,1,0,-1,2,0,-1022
1853,21.390406,0,0,0,2,-2,-1027
1854,21.402073,0,-1,0,2,-6,-1021
1855,21.413748,0,-1,-1,2,0,-1031
1856,21.425433,0,0,0,0,-4,-1029
1857,21.437089,0,0,0,-1,-1,-1024
1858,21.448792,0,0,0,0,-2,-1021
1859,21.460453,0,-1,0,1,0,-1025
1860,21.472027,0,0,-1,-4,0,-1027
1861,21.483576,0,0,0,-2,2,-1025
1862,21.495133,0,0,0,-2,-2,-1028
1863,21.506696,0,0,0,-2,-1,-1030
1864,21.518259,0,0,-1,-1,-2,-1028
1865,21.529806,0,1,0,4,-1,-1022
1866,21.541354,0,0,-1,0,2,-1026
1867,21.552915,0,0,0,3,-2,-1021
1868,21.564593,0,0,0,1,-1,-1022
1869,21.57625,0,0,0,3,3,-1027
1870,21.587913,0,-1,0,-1,1,-1026
1871,21.599569,0,-1,0,2,3,-1023
1872,21.611218,0,1,0,1,3,-1025
1873,21.622868,0,-1,-1,-2,-3,-1018
1874,21.634547,0,-1,0,0,1,-1025
1875,21.646213,0,0,0,0,1,-1020
1876,21.657884,0,0,0,-4,-2,-1033
1877,21.669564,0,-1,-1,-1,-5,-1023
1878,21.681152,1,-1,0,-1,4,-1023
1879,21.692727,1,-1,0,1,2,-1023
1880,21.704284,0,-1,0,-1,-2,-1028
1881,21.715885,0,1,0,-3,3,-1024
1882,21.727436,0,-1,-1,-2,-5,-1022
1883,21.739001,0,0,0,1,-1,-1020
1884,21.750542,0,0,0,-1,0,-1023
1885,21.76215,1,0,0,-2,-1,-1022
1886,21.773855,1,0,1,2,0,-1028
1887,21.785552,0,0,1,-1,-1,-1022
1888,21.797216,0,1,0,-3,5,-1025
1889,21.808893,0,0,0,0,3,-1024
1890,21.820575,0,0,-1,1,3,-1022
1891,21.832229,1,0,0,1,-1,-1021
1892,21.843908,0,0,1,-5,-2,-1024
1893,21.855557,0,0,0,0,-1,-1022
1894,21.867203,0,0,0,-1,1,-1023
1895,21.878819,1,1,-1,-1,0,-1028
1896,21.89038,0,0,0,-3,-5,-1020
1897,21.902,1,0,0,3,3,-1024
1898,21.91356,1,0,1,-3,1,-1025
1899,21.925146,1,0,0,1,-1,-1027
1900,21.936692,0,0,-1,-2,-2,-1026
1901,21.948251,0,0,-1,-1,-1,-1025
1902,21.959796,0,0,0,-5,-1,-1024
1903,21.971353,0,0,0,2,-4,-1025
1904,21.982961,0,0,0,-2,-2,-1019
1905,21.99462,0,0,-1,4,0,-1021
1906,22.00632,0,1,0,-1,-1,-1021
1907,22.017992,0,0,-1,-3,-3,-1026
1908,22.029679,0,0,0,-1,-7,-1025
1909,22.041303,1,0,0,-3,-4,-1027
1910,22.05297,0,0,0,-6,0,-1023
1911,22.06464,0,0,0,-4,2,-1023
1912,22.076307,0,0,0,-4,2,-1022
1913,22.087973,0,0,0,3,0,-1023
1914,22.099534,1,0,0,0,0,-1023
1915,22.111116,1,0,-1,2,2,-1026
1916,22.122664,0,0,0,-1,2,-1023
1917,22.134246,0,0,1,1,1,-1022
1918,22.145795,0,-1,0,5,2,-1029
1919,22.157348,1,0,0,18,-3,-1024
1920,22.168892,0,-1,0,-2,2,-1026
1921,22.18049,1,1,0,-3,-2,-1021
1922,22.192158,0,0,0,3,1,-1023
1923,22.203816,0,1,0,-2,-6,-1023
1924,22.215456,1,-1,0,2,-2,-1025
1925,22.227102,1,-1,0,-3,-2,-1019
1926,22.23877,0,-1,0,3,1,-1020
1927,22.250453,0,0,0,-1,0,-1020
1928,22.262074,0,0,0,-2,-3,-1032
1929,22.273728,0,0,0,0,2,-1025
1930,22.285388,1,1,0,1,-1,-1020
1931,22.297049,1,0,0,2,1,-1022
1932,22.308628,1,0,0,-4,0,-1020
1933,22.320199,0,0,0,-2,-3,-1022
1934,22.331749,0,1,0,2,-2,-1022
1935,22.343297,1,0,0,0,0,-1029
1936,22.354844,1,0,0,1,-1,-1025
1937,22.3664,0,0,0,-1,1,-1028
1938,22.377995,1,0,0,2,1,-1024
1939,22.389581,0,0,0,5,-1,-1026
1940,22.401211,0,-1,0,-3,4,-1020
1941,22.41289,1,-1,0,-3,1,-1029
1942,22.424541,0,0,0,-1,-4,-1025
1943,22.436195,0,0,0,3,-2,-1022
1944,22.447859,1,0,0,-3,-1,-1019
1945,22.459528,0,0,0,-2,-2,-1019
1946,22.471187,0,0,-1,-1,-1,-1027
1947,22.482847,1,0,-1,0,1,-1023
1948,22.49454,1,1,0,2,3,-1022
1949,22.506188,1,0,0,-1,-4,-1025
1950,22.51776,0,0,0,0,1,-1026
1951,22.529345,0,0,0,1,3,-1022
1952,22.540929,0,0,0,0,-1,-1026
1953,22.552487,0,1,0,-3,4,-1021
1954,22.564053,0,1,0,-2,1,-1022
1955,22.57562,0,0,0,0,4,-1023
1956,22.587174,1,0,0,3,5,-1019
1957,22.598758,0,0,0,-2,3,-1024
1958,22.610388,1,1,0,3,0,-1024
1959,22.622077,0,0,-1,-3,-1,-1024
1960,22.63376,0,0,-1,1,1,-1027
1961,22.645451,0,0,0,-1,1,-1020
1962,22.657099,0,1,0,1,0,-1021
1963,22.668775,0,0,0,3,-1,-1027
1964,22.680432,0,0,0,0,3,-1025
1965,22.692081,0,1,0,-1,6,-1022
1966,22.703744,0,0,0,-2,-3,-1024
1967,22.715298,0,1,0,0,0,-1019
1968,22.726848,0,0,0,1,1,-1019
1969,22.738404,0,0,0,-5,3,-1017
1970,22.749995,0,1,0,-1,1,-1021
1971,22.761568,0,0,0,-2,2,-1025
1972,22.773145,0,0,0,3,-2,-1023
1973,22.784732,1,0,0,-3,0,-1023
1974,22.79629,1,0,0,-2,0,-1027
1975,22.807893,1,0,-1,-2,1,-1030
1976,22.819536,1,0,0,2,-1,-1025
1977,22.831195,1,0,0,-2,6,-1025
1978,22.842838,0,0,0,-2,-1,-1032
1979,22.854514,0,0,-1,1,-3,-1025
1980,22.866197,-1,1,0,2,0,-1027
1981,22.877858,0,0,0,0,-5,-1026
1982,22.889552,1,-1,-1,-1,-2,-1027
1983,22.901202,-1,0,-1,-5,0,-1023
1984,22.912862,0,0,-1,1,-1,-1023
1985,22.924521,0,0,0,0,0,-1026
1986,22.936151,0,0,-1,6,-2,-1012
1987,22.94773,0,0,0,0,5,-1024
1988,22.959269,0,0,-1,3,-2,-1020
1989,22.970816,0,0,0,3,-2,-1021
1990,22.982375,0,0,-1,-2,1,-1021
1991,22.99393,1,1,-1,-3,-3,-1020
1992,23.005505,0,0,-1,-4,-2,-1019
1993,23.017125,0,-1,0,0,3,-1018
1994,23.028805,0,0,0,-1,2,-1019
1995,23.040468,0,0,0,2,-3,-1023
1996,23.052162,0,0,-1,-1,-1,-1016
1997,23.063807,0,0,0,-1,2,-1026
1998,23.075454,0,0,-1,2,0,-1024
1999,23.087131,0,0,0,-1,-2,-1024
