sample,t_s,gyro_x,gyro_y,gyro_z,accel_x,accel_y,accel_z
0,1.1e-05,4,5,9,13,28,-1025
1,0.011335,2,5,10,12,25,-1019
2,0.022534,3,5,9,16,28,-1023
3,0.033726,2,6,9,14,25,-1023
4,0.044912,2,6,9,9,25,-1018
5,0.056101,2,5,10,12,28,-1023
6,0.067272,3,6,9,10,27,-1022
7,0.078452,2,5,9,10,26,-1019
8,0.089634,1,4,10,13,25,-1025
9,0.100817,3,6,10,15,23,-1026
10,0.112006,2,6,10,10,24,-1021
11,0.123201,3,6,10,12,27,-1022
12,0.134386,2,5,9,14,27,-1025
13,0.145568,2,4,9,9,28,-1020
14,0.156753,2,5,9,14,25,-1019
15,0.167935,2,6,9,13,26,-1021
16,0.179087,2,5,10,13,25,-1019
17,0.190271,2,6,9,10,24,-1026
18,0.201452,2,6,10,13,26,-1017
19,0.212635,2,7,10,16,28,-1018
20,0.223816,2,6,9,10,26,-1023
21,0.235013,3,7,10,13,26,-1026
22,0.246197,3,6,10,15,27,-1024
23,0.257398,2,6,9,8,24,-1019
24,0.268584,3,6,8,12,27,-1028
25,0.27977,2,6,9,14,27,-1019
26,0.290955,1,5,8,12,25,-1021
27,0.302137,2,5,9,12,26,-1023
28,0.31332,3,6,8,13,26,-1023
29,0.3245,2,5,9,9,24,-1029
30,0.335684,2,6,9,14,28,-1020
31,0.346868,2,7,9,12,30,-1020
32,0.358051,2,6,9,11,24,-1020
33,0.369233,2,6,8,10,25,-1018
34,0.380419,2,7,9,15,23,-1021
35,0.391607,2,6,9,12,28,-1026
36,0.402796,2,7,9,7,26,-1023
37,0.413995,2,7,10,15,27,-1021
38,0.425179,2,6,10,11,26,-1025
39,0.436359,2,6,9,13,19,-1020
40,0.447541,2,5,10,14,28,-1026
41,0.458719,2,6,9,12,23,-1028
42,0.469909,2,6,9,13,24,-1021
43,0.481094,2,6,9,10,27,-1018
44,0.492281,3,6,8,14,23,-1019
45,0.503457,3,7,10,13,26,-1023
46,0.514649,2,8,8,14,28,-1021
47,0.525831,2,7,9,12,28,-1022
48,0.537012,2,7,9,11,28,-1021
49,0.548192,2,6,9,15,24,-1023
50,0.559387,3,7,9,12,24,-1027
51,0.57053,2,7,8,10,24,-1020
52,0.581715,2,6,9,14,26,-1015
53,0.592899,3,6,8,12,27,-1024
54,0.604082,2,6,8,11,24,-1015
55,0.615282,3,7,9,13,26,-1027
56,0.626469,3,8,9,16,27,-1022
57,0.637653,2,7,9,13,24,-1019
58,0.648842,2,7,9,13,23,-1017
59,0.660022,2,8,9,12,22,-1020
60,0.671211,3,8,10,11,25,-1024
61,0.682394,3,6,9,11,26,-1024
62,0.693578,2,7,8,12,29,-1025
63,0.704755,2,6,9,15,24,-1020
64,0.715937,2,7,9,14,27,-1022
65,0.727088,2,5,9,16,29,-1017
66,0.738278,2,6,8,13,25,-1021
67,0.749462,3,6,9,11,26,-1025
68,0.760651,2,5,9,15,26,-1016
69,0.771888,3,6,9,13,24,-1020
70,0.783089,2,4,9,11,27,-1022
71,0.794278,2,6,8,10,29,-1029
72,0.805466,3,6,9,15,26,-1025
73,0.816651,2,6,10,11,26,-1023
74,0.827835,3,6,8,10,28,-1023
75,0.839024,2,6,8,11,24,-1024
76,0.850207,2,6,8,9,26,-1019
77,0.861395,2,6,9,8,24,-1025
78,0.87258,3,8,9,17,28,-1026
79,0.883763,2,6,9,15,25,-1025
80,0.89495,3,5,9,12,24,-1023
81,0.90613,3,4,8,10,24,-1017
82,0.917309,2,5,9,16,28,-1020
83,0.928488,2,6,10,16,27,-1023
84,0.939671,3,7,10,12,27,-1022
85,0.950854,3,8,9,12,24,-1023
86,0.962035,3,7,8,14,23,-1022
87,0.97323,2,6,8,17,22,-1022
88,0.98441,2,7,9,11,27,-1026
89,0.995597,3,7,9,11,27,-1021
90,1.006784,2,7,8,10,26,-1026
91,1.017973,3,6,9,16,23,-1024
92,1.029158,2,6,9,11,25,-1022
93,1.040348,3,6,9,11,26,-1019
94,1.051532,2,7,9,12,26,-1024
95,1.062722,2,6,9,9,28,-1024
96,1.073911,2,6,9,16,24,-1023
97,1.085095,2,6,9,17,29,-1019
98,1.096287,2,5,9,12,27,-1012
99,1.107458,3,6,9,13,21,-1022
100,1.118653,3,6,10,13,24,-1017
101,1.129847,2,7,9,12,24,-1021
102,1.141032,2,5,9,12,24,-1023
103,1.152217,2,5,9,11,27,-1016
104,1.163405,2,6,8,14,25,-1025
105,1.174597,3,6,9,12,23,-1020
106,1.18578,2,5,9,9,24,-1023
107,1.196963,2,5,9,11,22,-1021
108,1.208147,2,6,9,16,26,-1019
109,1.219337,2,5,8,13,28,-1022
110,1.230531,2,6,8,15,26,-1025
111,1.241713,3,6,9,15,25,-1022
112,1.252901,3,7,9,14,24,-1022
113,1.26408,2,6,8,11,27,-1023
114,1.275274,3,6,8,6,25,-1025
115,1.286467,3,7,8,12,26,-1018
116,1.297652,2,7,9,14,28,-1030
117,1.308838,2,8,9,12,26,-1018
118,1.320031,3,7,10,10,26,-1025
119,1.331221,3,5,9,12,21,-1022
120,1.342411,2,5,10,14,23,-1014
121,1.353602,2,5,10,14,26,-1023
122,1.364788,2,4,8,12,25,-1023
123,1.375973,2,5,9,12,26,-1028
124,1.387162,2,6,10,11,27,-1025
125,1.398344,3,5,9,13,25,-1013
126,1.409532,3,6,9,15,26,-1029
127,1.420713,2,5,8,12,27,-1021
128,1.431902,3,6,8,10,24,-1016
129,1.443093,2,5,9,12,23,-1021
130,1.454277,2,6,9,11,27,-1025
131,1.46546,2,6,8,14,25,-1026
132,1.476646,2,5,8,14,25,-1024
133,1.48784,2,5,8,12,25,-1020
134,1.499027,2,6,9,13,25,-1017
135,1.510213,2,6,9,11,26,-1026
136,1.521397,4,8,8,12,24,-1023
137,1.532583,3,7,8,14,26,-1022
138,1.543775,3,7,9,13,22,-1019
139,1.554963,2,5,8,17,24,-1022
140,1.566158,2,6,9,12,23,-1016
141,1.577339,3,5,9,10,26,-1022
142,1.588529,2,6,10,12,23,-1028
143,1.599723,2,5,9,12,22,-1016
144,1.610901,2,5,9,11,29,-1024
145,1.622088,2,5,9,11,27,-1025
146,1.633271,2,5,10,9,22,-1024
147,1.64446,2,5,9,9,23,-1022
148,1.655645,2,6,8,13,25,-1023
149,1.666833,2,6,8,8,25,-1020
150,1.67803,2,6,8,13,28,-1022
151,1.689211,2,5,8,14,30,-1021
152,1.700394,2,5,9,10,27,-1021
153,1.71158,2,6,8,12,25,-1019
154,1.722767,2,5,9,12,27,-1025
155,1.733958,2,4,8,10,25,-1025
156,1.745145,3,6,8,15,26,-1022
157,1.756342,2,6,9,10,24,-1028
158,1.767527,2,7,9,11,26,-1025
159,1.778716,2,7,9,13,27,-1023
160,1.789905,2,6,9,13,25,-1018
161,1.801099,2,6,9,12,24,-1020
162,1.812281,2,5,9,13,28,-1023
163,1.823457,2,6,9,13,23,-1021
164,1.834644,3,6,9,14,24,-1017
165,1.84584,3,6,9,13,26,-1026
166,1.857023,3,6,9,11,27,-1027
167,1.868209,2,7,9,12,25,-1019
168,1.879396,2,6,9,13,26,-1023
169,1.890586,2,6,9,14,26,-1022
170,1.901769,2,5,9,15,26,-1020
171,1.912952,2,6,9,13,26,-1018
172,1.924134,2,6,9,12,22,-1025
173,1.935327,3,6,10,13,25,-1019
174,1.946532,2,5,9,11,26,-1023
175,1.957715,2,8,9,12,24,-1023
176,1.968897,2,7,8,12,27,-1030
177,1.980085,2,6,8,12,22,-1018
178,1.991272,2,6,9,10,28,-1027
179,2.002463,2,7,9,8,24,-1015
180,2.013646,3,8,8,16,27,-1024
181,2.024833,3,8,9,14,26,-1020
182,2.036015,3,8,9,11,25,-1023
183,2.047206,3,7,9,13,27,-1022
184,2.058389,3,8,9,15,23,-1019
185,2.069571,3,8,9,10,23,-1016
186,2.080753,3,7,8,13,23,-1023
187,2.091936,2,6,8,11,26,-1022
188,2.10309,2,5,9,15,25,-1021
189,2.114271,3,5,8,11,28,-1023
190,2.125455,3,4,9,13,24,-1019
191,2.136639,2,6,9,10,26,-1025
192,2.147823,2,6,9,13,25,-1016
193,2.159017,2,5,9,12,28,-1018
194,2.170201,3,6,8,10,23,-1023
195,2.181383,3,6,9,14,24,-1022
196,2.192563,2,5,9,12,24,-1027
197,2.203754,2,5,9,9,28,-1028
198,2.214903,1,6,8,10,26,-1024
199,2.226089,2,5,8,13,25,-1023
200,2.237271,2,5,9,14,24,-1018
201,2.248466,2,6,9,16,25,-1019
202,2.259646,3,5,9,15,27,-1014
203,2.270831,2,6,8,13,28,-1026
204,2.282025,1,4,8,13,23,-1013
205,2.293518,2,5,9,11,27,-1022
206,2.305076,2,6,8,10,25,-1022
207,2.316668,2,6,9,13,22,-1020
208,2.32822,3,6,9,13,24,-1022
209,2.339803,3,6,8,15,23,-1011
210,2.351351,3,6,9,11,26,-1023
211,2.362925,2,6,9,9,22,-1022
212,2.374471,3,6,9,17,23,-1023
213,2.386026,3,7,9,16,27,-1026
214,2.397697,2,6,9,12,26,-1031
215,2.409354,2,6,9,15,23,-1024
216,2.421008,2,5,9,11,26,-1021
217,2.432653,3,6,9,14,26,-1025
218,2.444299,2,5,9,11,27,-1018
219,2.455991,2,5,8,14,28,-1023
220,2.467608,3,6,9,9,22,-1018
221,2.479266,3,7,9,7,27,-1025
222,2.490941,2,6,9,12,28,-1019
223,2.502569,3,6,9,13,29,-1021
224,2.51415,2,6,9,14,28,-1020
225,2.525702,2,6,8,10,20,-1020
226,2.537286,2,5,9,11,26,-1019
227,2.548833,2,6,9,17,24,-1022
228,2.560409,2,6,10,11,25,-1026
229,2.571981,2,6,9,12,25,-1021
230,2.583549,3,6,8,13,23,-1024
231,2.595107,3,6,8,10,24,-1026
232,2.606802,3,6,9,15,25,-1019
233,2.618472,2,6,9,14,24,-1022
234,2.630121,2,5,9,12,23,-1030
235,2.64178,3,5,9,14,25,-1016
236,2.653422,2,6,9,14,31,-1017
237,2.66507,3,6,9,11,27,-1021
238,2.676735,2,5,9,17,26,-1017
239,2.688378,2,6,9,13,22,-1021
240,2.700045,2,6,9,15,27,-1024
241,2.711731,2,6,9,12,25,-1024
242,2.723312,2,6,9,10,28,-1020
243,2.734881,2,6,9,11,26,-1026
244,2.746432,2,6,9,15,26,-1026
245,2.757973,2,6,9,9,24,-1027
246,2.769519,2,6,8,15,25,-1024
247,2.781068,2,6,9,10,22,-1022
248,2.792639,2,6,9,11,28,-1022
249,2.804202,2,7,9,14,27,-1019
250,2.81585,2,5,9,12,20,-1015
251,2.827532,2,7,9,14,25,-1031
252,2.839216,2,6,9,12,30,-1027
253,2.850836,2,6,9,11,23,-1022
254,2.862492,2,6,9,9,26,-1021
255,2.874145,3,7,10,11,24,-1023
256,2.885816,2,5,9,11,27,-1024
257,2.897464,3,6,9,9,26,-1025
258,2.909131,2,6,9,14,27,-1024
259,2.92079,2,6,9,12,27,-1023
260,2.932347,2,6,9,14,23,-1015
261,2.943958,2,7,9,13,26,-1027
262,2.95555,2,7,9,13,24,-1025
263,2.967109,2,6,8,12,22,-1017
264,2.978694,2,6,8,20,28,-1018
265,2.990233,2,6,9,13,24,-1024
266,3.001782,2,5,8,10,24,-1029
267,3.013341,2,6,8,15,26,-1018
268,3.024981,2,6,9,15,25,-1022
269,3.036652,2,7,9,12,26,-1024
270,3.048353,2,5,10,10,27,-1023
271,3.060038,2,6,9,11,25,-1018
272,3.071734,2,6,8,11,27,-1024
273,3.083392,2,6,9,9,23,-1027
274,3.095077,3,6,9,12,25,-1024
275,3.106734,2,6,9,14,27,-1023
276,3.118399,2,5,9,15,27,-1026
277,3.130058,2,7,9,10,26,-1021
278,3.141645,2,6,8,14,29,-1021
279,3.153196,3,7,9,9,23,-1021
280,3.164765,3,5,9,14,27,-1021
281,3.176307,2,6,9,9,28,-1021
282,3.187848,2,6,8,14,23,-1017
283,3.199412,2,6,8,13,26,-1018
284,3.210964,2,6,8,11,24,-1022
285,3.222519,2,5,9,9,24,-1020
286,3.234132,2,6,9,9,26,-1024
287,3.245778,3,6,9,8,29,-1021
288,3.25745,2,6,8,13,27,-1020
289,3.269096,2,6,9,11,31,-1020
290,3.280741,3,6,8,12,21,-1024
291,3.29239,2,6,8,15,26,-1026
292,3.304095,2,5,9,12,28,-1025
293,3.315758,2,6,9,12,28,-1025
294,3.327415,2,6,10,10,25,-1022
295,3.339081,2,6,9,11,28,-1021
296,3.350692,2,6,9,10,27,-1017
297,3.362236,2,6,9,15,25,-1026
298,3.373784,3,6,9,12,25,-1019
299,3.385326,2,6,9,10,25,-1021
300,3.396889,1,6,8,12,27,-1019
301,3.408437,2,6,9,11,25,-1022
302,3.420057,2,6,9,14,27,-1027
303,3.431621,3,6,9,18,22,-1016
304,3.443254,2,6,8,13,27,-1018
305,3.454925,2,6,9,13,24,-1015
306,3.466584,3,6,8,13,25,-1029
307,3.478241,3,6,9,14,32,-1029
308,3.489901,3,7,9,17,24,-1021
309,3.501556,2,6,9,18,30,-1025
310,3.51323,3,6,9,14,28,-1020
311,3.524886,2,6,8,10,24,-1017
312,3.536547,2,7,9,11,27,-1019
313,3.548213,2,6,9,13,27,-1021
314,3.55978,2,6,9,12,26,-1017
315,3.571341,2,6,9,12,26,-1019
316,3.582924,2,6,9,12,23,-1025
317,3.594476,2,6,9,11,28,-1019
318,3.606024,2,6,10,15,25,-1027
319,3.617576,2,6,9,14,30,-1026
320,3.629159,2,6,9,10,21,-1022
321,3.640718,2,5,9,14,28,-1018
322,3.652348,3,6,9,11,29,-1016
323,3.664016,2,5,10,12,25,-1020
324,3.675693,2,6,9,12,30,-1018
325,3.687352,2,6,9,11,23,-1022
326,3.699007,2,6,9,9,26,-1021
327,3.710651,2,5,10,13,25,-1023
328,3.722298,2,6,9,17,23,-1020
329,3.733964,2,6,10,12,29,-1020
330,3.745627,3,6,9,15,27,-1021
331,3.75729,2,6,10,16,28,-1027
332,3.768853,3,6,8,15,29,-1025
333,3.78042,3,7,9,12,23,-1026
334,3.791992,3,6,9,10,22,-1024
335,3.803545,2,7,9,15,25,-1018
336,3.815175,2,7,9,16,23,-1022
337,3.826798,3,6,9,8,23,-1019
338,3.83835,2,6,8,13,28,-1022
339,3.849943,2,6,9,12,23,-1018
340,3.861488,2,7,9,10,22,-1018
341,3.873038,3,6,9,16,28,-1025
342,3.88459,2,6,10,9,26,-1028
343,3.896158,3,6,9,10,26,-1024
344,3.907733,2,6,9,12,24,-1025
345,3.9193,2,6,9,11,26,-1017
346,3.930857,3,6,9,10,23,-1020
347,3.942421,2,7,9,9,29,-1020
348,3.95404,2,6,9,18,25,-1017
349,3.965691,2,6,9,10,29,-1018
350,3.97736,2,6,9,14,28,-1022
351,3.989022,2,6,9,13,24,-1017
352,4.000666,3,6,9,6,26,-1021
353,4.012334,2,6,9,12,26,-1018
354,4.023999,2,6,9,12,26,-1026
355,4.035648,3,6,9,9,27,-1020
356,4.047364,2,6,9,10,23,-1019
357,4.059047,2,6,10,12,25,-1028
358,4.070725,3,6,9,12,28,-1021
359,4.082374,2,6,9,13,24,-1022
360,4.094018,2,6,9,13,23,-1032
361,4.105684,2,6,8,13,24,-1023
362,4.117334,2,6,9,16,27,-1020
363,4.128983,2,6,9,16,29,-1022
364,4.140626,2,6,9,14,27,-1017
365,4.152277,2,7,8,9,27,-1019
366,4.163968,2,6,9,11,26,-1025
367,4.175607,2,6,9,13,26,-1018
368,4.187265,2,6,9,12,26,-1024
369,4.198906,2,6,9,14,26,-1019
370,4.210575,2,6,9,15,23,-1022
371,4.222224,2,6,9,14,25,-1017
372,4.233862,3,6,9,9,24,-1022
373,4.245506,3,5,9,12,29,-1023
374,4.257169,2,6,8,10,27,-1021
375,4.268821,2,6,8,6,21,-1024
376,4.280479,2,7,9,14,27,-1015
377,4.29213,2,6,9,8,28,-1017
378,4.30381,2,6,9,10,24,-1016
379,4.315478,2,6,9,10,23,-1024
380,4.327132,3,6,9,12,24,-1020
381,4.338827,3,6,9,13,25,-1025
382,4.35048,2,6,9,12,24,-1019
383,4.362128,2,6,9,11,23,-1029
384,4.373792,2,5,9,12,25,-1024
385,4.385461,2,7,9,12,26,-1020
386,4.397107,2,6,9,12,22,-1025
387,4.408751,2,6,9,9,22,-1022
388,4.420442,3,6,9,9,26,-1017
389,4.43212,2,6,8,11,24,-1021
390,4.443779,2,7,9,12,24,-1019
391,4.455472,2,7,8,16,24,-1023
392,4.467093,2,6,8,15,26,-1023
393,4.478784,2,6,10,10,28,-1020
394,4.49046,3,7,9,10,26,-1024
395,4.502103,2,6,9,13,24,-1025
396,4.513751,2,6,9,12,27,-1017
397,4.525417,2,6,9,9,25,-1030
398,4.537097,2,6,8,14,24,-1012
399,4.548751,1,7,9,13,28,-1020
400,4.560418,3,6,9,13,27,-1022
401,4.572101,3,6,9,14,27,-1016
402,4.583788,2,7,9,11,23,-1021
403,4.595478,2,6,8,14,26,-1018
404,4.607137,2,6,9,12,28,-1021
405,4.618825,2,6,10,12,23,-1024
406,4.630478,2,6,9,10,23,-1021
407,4.642125,2,5,8,13,24,-1019
408,4.653788,2,6,9,15,29,-1019
409,4.665434,2,6,8,11,28,-1024
410,4.677089,2,6,9,13,23,-1018
411,4.688751,3,6,9,14,26,-1023
412,4.700398,2,7,8,11,24,-1017
413,4.712056,2,6,8,9,20,-1028
414,4.723736,2,6,10,13,29,-1020
415,4.735389,2,6,9,10,28,-1020
416,4.747078,3,7,9,11,26,-1022
417,4.758734,3,6,9,12,25,-1026
418,4.770376,2,5,9,16,26,-1023
419,4.782025,3,7,9,13,20,-1021
420,4.793775,2,6,9,12,27,-1024
421,4.80542,2,7,9,13,24,-1018
422,4.817075,2,6,8,10,27,-1022
423,4.828729,3,6,9,16,24,-1020
424,4.840382,1,6,9,17,24,-1022
425,4.852079,2,5,9,10,24,-1025
426,4.863742,3,6,9,12,22,-1013
427,4.875402,2,6,8,13,25,-1023
428,4.887089,3,6,9,13,24,-1029
429,4.898755,2,6,8,15,27,-1025
430,4.91044,3,6,8,9,24,-1031
431,4.922047,2,6,9,13,25,-1026
432,4.933616,3,6,9,13,26,-1016
433,4.945163,3,6,9,11,26,-1027
434,4.956707,2,5,10,12,24,-1025
435,4.968261,2,6,9,14,29,-1022
436,4.979781,2,6,9,12,30,-1017
437,4.991332,2,6,9,11,26,-1016
438,5.002903,2,6,9,12,26,-1025
439,5.014608,2,6,10,16,29,-1022
440,5.026284,3,6,9,16,26,-1023
441,5.037967,2,6,9,13,29,-1023
442,5.04962,2,5,9,16,26,-1023
443,5.061292,2,6,9,13,27,-1027
444,5.072964,3,6,8,15,22,-1018
445,5.084622,3,7,9,12,25,-1018
446,5.096308,2,6,9,8,23,-1023
447,5.107998,2,6,9,13,24,-1023
448,5.119671,2,6,8,13,29,-1020
449,5.131285,3,7,9,18,25,-1027
450,5.142808,2,6,8,12,25,-1023
451,5.154352,2,5,9,16,30,-1020
452,5.165931,2,5,9,12,28,-1025
453,5.177475,2,5,9,14,28,-1019
454,5.189017,2,6,9,14,25,-1020
455,5.200568,3,5,9,10,26,-1023
456,5.212154,2,6,10,12,26,-1019
457,5.223845,3,7,8,10,24,-1021
458,5.235514,3,6,9,7,26,-1021
459,5.247164,2,6,9,12,24,-1021
460,5.258838,2,6,9,9,27,-1019
461,5.270486,2,7,9,11,27,-1021
462,5.282126,3,6,9,13,27,-1015
463,5.293772,3,7,9,14,25,-1022
464,5.305437,2,6,9,14,25,-1020
465,5.317095,2,6,9,11,29,-1020
466,5.328746,2,6,8,15,27,-1020
467,5.340311,2,6,8,11,23,-1022
468,5.351915,2,5,9,14,27,-1021
469,5.363472,3,6,9,9,26,-1025
470,5.37505,3,6,9,15,29,-1020
471,5.386648,2,7,10,12,25,-1024
472,5.398193,2,7,9,6,25,-1028
473,5.409735,2,6,9,16,25,-1026
474,5.4213,2,6,9,15,23,-1019
475,5.432962,2,6,9,10,24,-1020
476,5.444621,2,6,9,15,28,-1022
477,5.456304,3,6,10,13,22,-1021
478,5.467985,3,6,10,11,24,-1026
479,5.479608,2,6,9,12,26,-1023
480,5.491289,2,6,9,14,25,-1024
481,5.502982,3,6,10,12,24,-1021
482,5.514641,2,6,9,13,24,-1020
483,5.526346,2,7,9,15,27,-1018
484,5.538049,2,6,9,9,26,-1028
485,5.549598,3,6,8,14,25,-1027
486,5.561153,3,6,9,12,21,-1022
487,5.572697,2,6,9,17,25,-1023
488,5.584244,2,6,9,10,22,-1021
489,5.595777,2,6,9,14,25,-1021
490,5.607336,3,7,9,11,26,-1021
491,5.618899,2,5,8,14,19,-1022
492,5.630455,3,6,9,15,28,-1021
493,5.642069,3,6,10,12,24,-1028
494,5.65372,3,6,8,15,30,-1025
495,5.66537,2,6,9,15,24,-1018
496,5.677026,2,6,9,17,24,-1023
497,5.688692,2,6,9,13,27,-1020
498,5.700334,3,6,9,18,27,-1024
499,5.711994,2,6,9,13,24,-1024
500,5.723641,2,6,9,9,26,-1020
501,5.735308,1,6,8,16,32,-1017
502,5.746981,3,7,8,11,22,-1015
503,5.758632,2,6,9,20,27,-1020
504,5.770283,2,5,9,16,25,-1019
505,5.781948,2,6,9,14,23,-1019
506,5.793598,2,7,9,14,26,-1023
507,5.805251,2,7,9,11,28,-1020
508,5.817033,3,6,9,10,23,-1022
509,5.828855,2,6,8,16,27,-1023
510,5.840636,2,6,9,15,25,-1029
511,5.852345,2,6,9,9,23,-1025
512,5.863917,2,5,9,11,25,-1014
513,5.875473,2,6,9,18,23,-1019
514,5.887059,2,6,9,9,26,-1020
515,5.898639,2,6,9,12,27,-1020
516,5.910237,2,6,8,10,28,-1024
517,5.921799,2,6,9,10,26,-1021
518,5.933376,3,5,9,14,30,-1019
519,5.94492,2,6,9,14,25,-1018
520,5.95657,2,6,9,11,23,-1016
521,5.968213,2,7,9,16,25,-1019
522,5.979869,2,6,10,17,24,-1024
523,5.991552,2,6,9,13,22,-1019
524,6.003235,2,6,9,16,25,-1026
525,6.014897,2,6,9,12,23,-1015
526,6.026582,2,5,9,13,29,-1025
527,6.038229,2,5,9,14,30,-1019
528,6.0499,2,5,9,10,28,-1028
529,6.061574,3,6,9,17,26,-1024
530,6.073147,2,6,8,16,27,-1025
531,6.084701,2,7,10,14,25,-1021
532,6.09627,2,6,9,13,25,-1028
533,6.107821,2,6,8,15,25,-1021
534,6.119426,3,5,9,12,27,-1027
535,6.130984,3,7,9,12,23,-1027
536,6.142554,2,7,9,13,25,-1022
537,6.154151,2,7,9,13,20,-1023
538,6.165792,3,6,9,14,24,-1018
539,6.177461,3,6,9,10,26,-1022
540,6.189119,2,6,9,8,27,-1018
541,6.200798,2,6,9,14,27,-1024
542,6.212481,2,6,9,13,25,-1023
543,6.224156,2,7,9,16,21,-1023
544,6.235855,2,7,8,13,24,-1024
545,6.247515,2,6,10,11,22,-1023
546,6.25923,2,6,9,10,25,-1017
547,6.27093,2,5,9,9,28,-1024
548,6.282518,2,6,9,12,19,-1022
549,6.29406,2,7,9,13,22,-1025
550,6.305595,2,7,9,13,21,-1024
551,6.317147,2,6,8,13,24,-1022
552,6.328692,2,6,9,15,23,-1019
553,6.340233,3,6,10,13,28,-1022
554,6.351778,3,6,10,10,23,-1015
555,6.363363,2,6,9,8,27,-1027
556,6.375023,2,6,9,14,23,-1027
557,6.38671,3,6,9,12,25,-1024
558,6.398362,2,6,9,15,26,-1022
559,6.410036,2,6,9,11,26,-1022
560,6.421685,2,6,8,11,27,-1020
561,6.433327,2,6,9,13,25,-1027
562,6.444976,2,6,9,15,24,-1025
563,6.456618,2,6,9,15,26,-1021
564,6.468279,2,6,9,12,25,-1017
565,6.47995,2,6,9,14,27,-1019
566,6.491606,3,6,9,15,30,-1025
567,6.503262,3,5,9,13,24,-1023
568,6.514976,3,6,10,15,24,-1026
569,6.52663,2,6,9,9,26,-1019
570,6.538279,2,6,9,11,26,-1016
571,6.549942,2,6,9,12,25,-1017
572,6.561588,3,6,9,12,21,-1024
573,6.573265,2,6,9,14,22,-1029
574,6.584939,3,5,9,13,26,-1017
575,6.596586,3,6,9,12,25,-1016
576,6.608235,2,6,9,15,28,-1020
577,6.619866,2,7,9,9,25,-1024
578,6.631531,2,6,9,17,26,-1024
579,6.643239,2,6,9,14,27,-1017
580,6.654889,2,6,8,10,23,-1020
581,6.666574,3,6,9,11,27,-1015
582,6.678235,2,6,10,11,26,-1019
583,6.689892,3,5,9,17,26,-1022
584,6.701487,1,6,8,13,30,-1025
585,6.713046,2,6,10,15,27,-1022
586,6.724635,2,6,8,16,21,-1023
587,6.736171,2,6,9,11,26,-1022
588,6.747716,3,6,9,9,21,-1019
589,6.759289,2,6,9,13,25,-1018
590,6.770862,3,7,9,10,27,-1021
591,6.782429,3,6,9,11,27,-1022
592,6.794069,3,7,9,14,25,-1021
593,6.80573,3,6,9,14,31,-1022
594,6.817399,2,6,9,12,27,-1027
595,6.82906,3,6,9,13,23,-1021
596,6.840711,2,6,9,13,26,-1024
597,6.852364,2,7,9,13,28,-1019
598,6.864028,3,7,9,12,22,-1023
599,6.875731,3,6,8,15,26,-1022
600,6.887342,2,6,10,15,24,-1024
601,6.898914,3,7,9,18,24,-1020
602,6.910464,3,6,9,12,27,-1019
603,6.922031,2,6,9,12,25,-1019
604,6.933597,2,6,9,12,21,-1021
605,6.945143,2,6,9,11,29,-1030
606,6.956685,2,6,8,11,25,-1025
607,6.968234,2,6,9,14,28,-1020
608,6.979783,2,6,9,18,27,-1018
609,6.991347,2,6,9,12,27,-1025
610,7.002977,2,6,9,14,24,-1025
611,7.014728,1,6,9,12,25,-1024
612,7.026403,2,6,10,13,24,-1025
613,7.038063,3,6,9,14,32,-1019
614,7.049716,2,6,8,14,26,-1021
615,7.061374,2,6,9,12,29,-1023
616,7.07303,3,6,10,14,28,-1018
617,7.084698,3,6,9,9,28,-1030
618,7.096369,3,6,8,15,24,-1018
619,7.108041,2,6,10,11,25,-1022
620,7.119592,2,6,9,14,30,-1021
621,7.131167,2,6,9,11,27,-1022
622,7.142722,2,6,8,12,27,-1022
623,7.154267,2,6,9,12,24,-1019
624,7.165812,2,6,9,12,22,-1024
625,7.177357,2,7,9,14,26,-1022
626,7.188906,2,5,8,14,22,-1024
627,7.200467,3,6,9,13,26,-1020
628,7.212088,2,7,9,12,24,-1022
629,7.223753,3,6,9,13,23,-1017
630,7.23543,3,6,8,11,28,-1021
631,7.247094,3,6,8,16,25,-1016
632,7.258747,2,6,9,12,21,-1024
633,7.270419,3,6,9,13,22,-1024
634,7.282064,3,7,9,11,22,-1023
635,7.293712,3,6,9,11,25,-1020
636,7.305379,2,7,9,15,25,-1021
637,7.31703,2,6,8,13,26,-1024
638,7.328611,2,5,10,12,27,-1023
639,7.340171,2,6,9,13,28,-1016
640,7.351784,2,7,9,12,29,-1021
641,7.363374,2,7,10,12,24,-1024
642,7.374939,3,6,9,12,29,-1029
643,7.386515,2,6,8,10,28,-1016
644,7.398066,2,6,9,13,23,-1020
645,7.409641,2,6,9,14,21,-1023
646,7.42127,2,6,9,14,25,-1022
647,7.432949,2,5,9,14,27,-1018
648,7.444604,2,6,9,14,26,-1020
649,7.456285,2,6,9,12,27,-1018
650,7.467943,2,6,9,12,25,-1018
651,7.479613,2,6,9,17,23,-1019
652,7.491291,3,6,10,14,27,-1019
653,7.50297,2,7,9,9,25,-1021
654,7.514713,3,5,9,15,27,-1024
655,7.526377,2,6,9,14,25,-1021
656,7.537933,2,6,9,13,30,-1017
657,7.549499,2,6,9,11,24,-1023
658,7.56104,2,6,8,11,28,-1020
659,7.572593,3,5,8,13,26,-1018
660,7.584146,2,7,9,14,25,-1019
661,7.595699,2,6,9,12,23,-1021
662,7.607261,2,6,9,11,24,-1021
663,7.61883,2,7,8,16,25,-1018
664,7.630482,1,7,9,14,27,-1019
665,7.64216,3,6,9,29,26,-1020
666,7.653809,2,5,8,13,26,-1026
667,7.665459,2,7,9,12,28,-1023
668,7.677102,2,7,8,11,24,-1025
669,7.688748,1,6,9,13,23,-1023
670,7.700414,2,6,9,9,23,-1022
671,7.712062,2,6,9,11,24,-1024
672,7.723764,3,6,10,12,24,-1018
673,7.735467,2,6,9,10,24,-1028
674,7.747098,2,6,9,10,25,-1019
675,7.758785,2,6,9,15,29,-1026
676,7.770436,2,6,9,11,27,-1019
677,7.782077,2,6,10,12,26,-1020
678,7.793721,3,5,9,14,26,-1021
679,7.805383,3,6,9,13,25,-1018
680,7.817071,2,6,10,10,26,-1018
681,7.828745,3,6,9,13,24,-1022
682,7.840435,2,6,8,15,27,-1024
683,7.852022,2,6,10,9,25,-1021
684,7.863575,2,6,10,13,24,-1019
685,7.875126,2,5,9,14,26,-1024
686,7.886691,2,6,9,12,25,-1019
687,7.898243,2,6,9,15,27,-1020
688,7.90979,3,6,8,11,27,-1013
689,7.921368,2,7,10,12,26,-1020
690,7.932923,2,6,10,16,26,-1022
691,7.944589,3,6,9,13,27,-1023
692,7.956251,2,6,10,14,27,-1018
693,7.967911,3,6,9,12,27,-1021
694,7.979598,2,6,10,10,25,-1018
695,7.991269,3,7,9,12,24,-1029
696,8.00297,2,7,9,11,31,-1024
697,8.014644,2,6,9,13,26,-1025
698,8.026302,2,5,8,10,27,-1023
699,8.037975,3,5,9,13,27,-1022
700,8.049663,3,5,9,8,21,-1024
701,8.061308,2,5,9,14,19,-1017
702,8.072957,3,6,9,12,22,-1016
703,8.084604,2,7,9,12,23,-1020
704,8.096273,3,6,9,18,26,-1020
705,8.107936,2,5,9,8,27,-1015
706,8.119607,3,6,9,8,28,-1026
707,8.131301,2,6,9,16,24,-1025
708,8.143,2,6,9,13,26,-1026
709,8.154704,2,6,9,11,23,-1025
710,8.166405,2,7,9,10,24,-1015
711,8.178125,2,6,8,12,30,-1023
712,8.189797,2,6,9,10,28,-1029
713,8.201446,1,6,10,12,27,-1027
714,8.213096,3,6,9,12,23,-1017
715,8.224759,3,6,9,9,30,-1023
716,8.236417,2,7,9,14,24,-1025
717,8.248144,2,7,9,15,27,-1024
718,8.259887,2,6,9,10,26,-1020
719,8.271449,2,6,9,16,25,-1022
720,8.283031,3,6,9,15,24,-1019
721,8.29457,2,6,9,13,21,-1021
722,8.306138,3,7,9,13,24,-1020
723,8.317727,2,6,9,10,31,-1019
724,8.32928,2,6,10,14,26,-1024
725,8.340865,2,6,9,15,28,-1024
726,8.352423,2,7,9,14,25,-1018
727,8.364071,2,7,10,15,22,-1025
728,8.37575,2,7,9,13,26,-1022
729,8.387413,3,6,8,13,26,-1019
730,8.399095,2,6,9,13,27,-1020
731,8.41074,2,5,9,10,27,-1018
732,8.422419,2,6,9,10,29,-1021
733,8.434079,2,6,9,13,26,-1020
734,8.445756,2,6,10,11,25,-1015
735,8.457436,3,6,9,16,26,-1016
736,8.469093,2,6,10,14,24,-1018
737,8.480655,2,6,9,7,24,-1021
738,8.492277,2,6,8,11,24,-1026
739,8.503849,2,5,9,11,27,-1020
740,8.515423,2,6,9,12,26,-1016
741,8.526986,2,6,10,11,27,-1025
742,8.538559,3,7,9,17,26,-1021
743,8.550123,2,5,9,12,27,-1026
744,8.561687,2,7,8,14,26,-1025
745,8.573299,2,6,8,10,23,-1022
746,8.58495,2,6,8,15,23,-1028
747,8.59659,2,7,9,14,29,-1016
748,8.608235,2,7,9,14,26,-1023
749,8.619891,2,6,9,11,25,-1021
750,8.631558,2,6,9,14,24,-1018
751,8.643221,2,7,9,13,28,-1021
752,8.65489,2,5,10,11,26,-1023
753,8.666582,2,6,9,13,23,-1023
754,8.678238,3,6,9,10,26,-1024
755,8.689798,2,6,9,15,27,-1023
756,8.701371,3,6,8,15,26,-1023
757,8.712917,2,6,9,12,22,-1021
758,8.724482,3,6,8,12,27,-1025
759,8.73603,2,6,9,14,24,-1026
760,8.747585,2,5,9,15,26,-1020
761,8.75914,2,7,9,12,29,-1025
762,8.770765,2,6,9,12,28,-1020
763,8.782425,2,6,8,14,26,-1029
764,8.794082,2,6,8,16,26,-1023
765,8.805724,1,7,9,12,26,-1026
766,8.817373,2,6,9,12,22,-1021
767,8.829066,2,6,10,13,27,-1027
768,8.840712,3,7,9,12,27,-1023
769,8.852365,3,6,9,11,23,-1021
770,8.86404,2,5,8,12,29,-1023
771,8.875765,2,6,9,15,23,-1021
772,8.887424,3,6,9,16,27,-1027
773,8.898988,1,6,9,12,24,-1018
774,8.910559,2,6,9,12,23,-1023
775,8.922128,3,6,9,16,25,-1019
776,8.933711,3,6,9,13,28,-1024
777,8.945273,2,6,9,17,21,-1019
778,8.956841,2,7,8,12,26,-1022
779,8.9684,2,6,9,16,23,-1019
780,8.979996,3,5,8,13,25,-1023
781,8.99173,3,6,9,14,21,-1020
782,9.003348,2,6,8,11,23,-1025
783,9.015003,2,6,9,14,24,-1022
784,9.026704,2,6,10,14,27,-1019
785,9.038353,2,6,9,13,25,-1025
786,9.049995,2,6,9,15,24,-1026
787,9.061669,2,6,8,13,28,-1021
788,9.073309,2,6,9,16,27,-1026
789,9.084954,2,5,9,15,22,-1019
790,9.096506,2,6,10,10,27,-1017
791,9.108047,3,6,10,12,20,-1019
792,9.1196,3,6,9,9,23,-1020
793,9.131168,2,7,9,11,27,-1027
794,9.142724,2,7,9,14,26,-1023
795,9.154263,1,6,8,16,22,-1025
796,9.165838,1,6,9,13,27,-1025
797,9.177398,1,6,9,14,23,-1020
798,9.18904,2,6,8,13,25,-1022
799,9.200697,2,6,10,14,24,-1024
800,9.212348,3,6,9,16,24,-1022
801,9.224026,2,6,10,13,25,-1024
802,9.235703,2,5,8,14,25,-1019
803,9.247364,2,6,9,10,21,-1017
804,9.259032,3,6,9,12,23,-1020
805,9.270704,3,7,9,14,24,-1023
806,9.282376,2,5,9,11,26,-1025
807,9.294036,3,6,9,12,27,-1021
808,9.305685,3,6,9,14,26,-1016
809,9.317337,2,5,9,11,27,-1021
810,9.329002,2,6,8,15,26,-1022
811,9.340663,3,6,8,10,25,-1019
812,9.352305,3,6,8,11,27,-1020
813,9.364004,2,4,10,9,26,-1018
814,9.375659,2,6,10,13,29,-1014
815,9.387362,2,6,9,9,27,-1023
816,9.399031,2,5,9,13,26,-1030
817,9.410706,2,6,9,14,27,-1019
818,9.422376,2,6,9,11,26,-1023
819,9.434034,2,6,10,11,28,-1029
820,9.445685,2,6,10,15,25,-1017
821,9.457331,2,7,9,9,24,-1019
822,9.468977,1,6,9,12,28,-1024
823,9.480649,2,6,9,10,25,-1021
824,9.492349,3,6,9,9,23,-1022
825,9.504012,2,6,9,14,25,-1022
826,9.515682,2,5,9,8,27,-1025
827,9.527344,2,6,9,13,21,-1023
828,9.539007,2,6,10,12,26,-1018
829,9.5507,2,6,10,14,22,-1021
830,9.562342,3,7,9,13,24,-1027
831,9.573987,2,5,9,15,25,-1021
832,9.585663,2,6,9,13,26,-1028
833,9.597317,2,6,9,15,26,-1022
834,9.609028,2,6,8,14,26,-1028
835,9.620604,2,6,8,12,25,-1020
836,9.632167,3,5,8,9,25,-1027
837,9.643758,2,6,9,10,24,-1017
838,9.65535,3,6,9,12,24,-1019
839,9.666924,3,6,9,19,27,-1018
840,9.678478,2,6,8,11,30,-1028
841,9.690027,2,5,9,17,25,-1019
842,9.701591,2,6,8,13,22,-1018
843,9.713213,2,6,10,13,29,-1024
844,9.724882,3,5,10,8,25,-1021
845,9.736542,2,7,9,16,26,-1025
846,9.74819,3,7,9,12,28,-1020
847,9.759895,2,5,8,16,28,-1022
848,9.771563,2,6,9,11,25,-1021
849,9.783239,1,5,9,14,24,-1020
850,9.794913,3,6,9,14,24,-1028
851,9.806593,3,6,9,12,30,-1019
852,9.818261,2,7,9,13,26,-1024
853,9.829812,3,6,9,12,28,-1022
854,9.841364,3,6,9,10,25,-1024
855,9.852908,3,5,9,12,27,-1018
856,9.864485,2,6,9,15,24,-1018
857,9.876046,3,6,9,15,27,-1026
858,9.887612,2,6,9,11,27,-1024
859,9.899174,2,6,10,13,23,-1020
860,9.910751,2,6,8,16,23,-1024
861,9.922374,2,6,9,13,24,-1023
862,9.934036,2,7,8,13,26,-1022
863,9.945686,3,5,9,11,25,-1015
864,9.957334,2,5,9,12,27,-1017
865,9.968998,2,6,9,10,23,-1021
866,9.980701,2,7,10,8,27,-1016
867,9.992395,2,6,9,14,26,-1027
868,10.004056,2,6,9,12,31,-1024
869,10.015741,2,6,9,9,28,-1026
870,10.02742,2,6,9,14,26,-1022
871,10.038981,2,7,9,17,23,-1021
872,10.050557,1,7,9,14,27,-1025
873,10.062119,2,6,9,11,29,-1019
874,10.073672,3,6,9,12,23,-1021
875,10.085234,3,6,9,7,27,-1020
876,10.096779,2,6,9,14,27,-1022
877,10.108337,2,6,9,14,30,-1025
878,10.119914,2,6,9,11,28,-1027
879,10.131544,2,6,9,8,24,-1025
880,10.143225,2,6,9,12,24,-1015
881,10.15491,2,6,9,11,25,-1026
882,10.16658,2,6,9,9,25,-1020
883,10.178229,2,6,9,13,26,-1026
884,10.189901,2,7,9,15,26,-1022
885,10.201552,2,6,9,12,24,-1023
886,10.213205,2,6,9,17,26,-1019
887,10.224874,3,6,9,14,24,-1026
888,10.236464,3,6,8,10,23,-1023
889,10.248012,2,6,9,10,25,-1023
890,10.259533,3,6,9,11,26,-1016
891,10.271052,3,7,9,13,23,-1024
892,10.282608,2,6,9,12,21,-1025
893,10.294155,3,6,9,14,24,-1017
894,10.3057,2,6,9,10,26,-1024
895,10.317247,2,6,9,15,26,-1023
896,10.328833,2,6,8,5,25,-1022
897,10.340493,2,7,8,12,26,-1022
898,10.352193,3,6,9,11,29,-1022
899,10.363877,3,6,9,13,25,-1020
900,10.375542,2,6,8,11,27,-1027
901,10.387228,2,6,8,12,26,-1023
902,10.398894,2,6,9,12,28,-1018
903,10.410573,2,6,8,13,22,-1024
904,10.422258,3,5,9,14,27,-1024
905,10.433917,2,7,8,11,24,-1024
906,10.44557,2,6,9,15,25,-1021
907,10.457228,2,5,10,13,29,-1020
908,10.468914,3,7,9,14,28,-1021
909,10.480569,2,6,9,14,26,-1018
910,10.492222,2,5,10,13,27,-1025
911,10.50389,2,5,9,11,22,-1021
912,10.515545,3,5,9,13,25,-1026
913,10.527251,3,6,8,13,28,-1020
914,10.538951,2,6,9,11,28,-1023
915,10.550579,3,6,9,12,23,-1017
916,10.562231,2,7,9,10,26,-1021
917,10.573905,2,6,9,14,24,-1021
918,10.585554,2,6,8,14,26,-1025
919,10.597207,2,6,9,14,26,-1020
920,10.608875,3,5,8,14,23,-1023
921,10.620535,2,5,8,12,24,-1021
922,10.632197,2,6,8,9,27,-1020
923,10.643886,2,6,9,10,25,-1018
924,10.655444,2,7,10,13,25,-1023
925,10.667004,2,7,9,14,28,-1024
926,10.678569,3,6,8,11,24,-1020
927,10.690122,2,6,9,12,30,-1026
928,10.701706,2,6,9,13,28,-1023
929,10.713259,2,5,8,12,27,-1021
930,10.724873,3,6,9,13,25,-1020
931,10.73644,3,6,9,10,24,-1021
932,10.748093,3,6,10,13,25,-1029
933,10.759778,3,6,9,12,27,-1022
934,10.771458,3,6,9,14,22,-1023
935,10.783098,3,6,10,14,26,-1026
936,10.794822,2,7,9,14,25,-1020
937,10.806471,2,6,9,12,25,-1019
938,10.818145,2,6,9,11,22,-1022
939,10.829801,3,5,9,11,26,-1020
940,10.841458,3,6,9,10,26,-1030
941,10.853133,2,6,9,12,29,-1019
942,10.86469,3,6,9,14,25,-1018
943,10.876232,2,6,8,14,26,-1021
944,10.887783,3,6,9,13,27,-1017
945,10.899354,3,6,9,10,27,-1021
946,10.910925,2,6,9,15,26,-1017
947,10.922482,2,6,9,11,27,-1024
948,10.934032,2,6,9,13,30,-1018
949,10.945607,3,6,9,11,24,-1025
950,10.957256,2,6,9,11,25,-1023
951,10.968955,2,6,9,16,25,-1027
952,10.980629,1,6,8,12,27,-1029
953,10.992288,2,5,10,11,22,-1023
954,11.003939,3,6,10,15,22,-1016
955,11.01562,2,6,9,16,27,-1020
956,11.027302,2,5,9,13,27,-1023
957,11.038977,2,6,9,16,24,-1030
958,11.050668,2,6,9,12,28,-1022
959,11.062334,2,6,9,12,28,-1018
960,11.073889,2,6,9,10,26,-1019
961,11.085439,2,6,9,14,22,-1019
962,11.09702,2,6,9,10,24,-1017
963,11.108597,2,6,10,12,21,-1018
964,11.120148,3,7,10,12,23,-1020
965,11.131725,3,6,9,12,28,-1022
966,11.143282,2,6,10,18,27,-1024
967,11.15482,2,5,9,15,29,-1024
968,11.166438,2,6,8,15,29,-1018
969,11.178089,2,6,9,13,26,-1019
970,11.189741,2,5,9,9,27,-1018
971,11.201408,3,6,9,13,27,-1018
972,11.213055,3,6,9,10,23,-1022
973,11.224731,2,5,9,11,21,-1024
974,11.236407,2,5,8,15,25,-1027
975,11.24805,3,5,9,16,21,-1021
976,11.259763,2,6,9,12,26,-1026
977,11.271408,2,6,9,11,25,-1023
978,11.282979,3,6,9,12,25,-1022
979,11.29452,3,5,9,17,25,-1019
980,11.306085,2,6,8,14,25,-1018
981,11.317629,2,5,8,12,25,-1025
982,11.329171,2,6,9,9,25,-1022
983,11.340714,2,6,9,12,24,-1029
984,11.352264,2,6,9,12,23,-1024
985,11.363851,2,6,9,11,23,-1023
986,11.375543,2,7,9,18,27,-1022
987,11.387238,2,7,9,9,24,-1018
988,11.398909,2,6,9,14,26,-1026
989,11.410575,2,6,9,13,25,-1018
990,11.422248,3,6,9,12,28,-1020
991,11.433897,3,6,9,13,28,-1021
992,11.445547,3,6,9,11,26,-1020
993,11.457194,2,5,9,13,26,-1021
994,11.468905,2,6,10,17,25,-1020
995,11.48057,2,6,9,13,24,-1025
996,11.492135,3,6,9,12,25,-1023
997,11.503741,2,6,9,14,26,-1021
998,11.515292,3,7,9,13,23,-1023
999,11.526798,2,7,9,14,29,-1024
1000,11.538348,3,5,9,9,27,-1016
1001,11.54992,3,6,9,13,29,-1021
1002,11.561477,3,5,8,13,29,-1024
1003,11.573043,3,6,10,10,25,-1022
1004,11.584662,2,6,9,12,20,-1017
1005,11.59633,2,6,9,13,24,-1025
1006,11.60801,2,6,10,14,20,-1025
1007,11.619671,2,6,9,17,20,-1013
1008,11.63136,2,6,9,12,26,-1021
1009,11.643026,2,6,9,12,24,-1022
1010,11.654702,3,7,10,12,27,-1018
1011,11.666386,3,7,9,13,25,-1024
1012,11.678056,2,6,9,15,26,-1024
1013,11.689723,2,6,10,14,31,-1017
1014,11.70127,2,6,9,12,25,-1020
1015,11.712826,3,5,8,12,23,-1019
1016,11.724375,2,6,9,11,28,-1024
1017,11.735922,2,6,9,7,25,-1025
1018,11.74747,1,6,9,13,26,-1014
1019,11.75904,3,6,8,13,26,-1018
1020,11.770567,3,6,8,15,25,-1025
1021,11.782124,2,6,8,12,23,-1029
1022,11.793745,2,6,9,9,29,-1024
1023,11.805463,2,6,8,16,25,-1018
1024,11.817381,2,5,8,11,27,-1010
1025,11.82908,1,6,9,15,27,-1021
1026,11.840816,2,6,9,14,25,-1017
1027,11.852498,3,6,8,16,25,-1023
1028,11.864159,2,6,9,13,25,-1025
1029,11.875871,2,6,9,14,25,-1023
1030,11.887551,1,6,9,13,22,-1025
1031,11.899224,2,6,8,12,26,-1023
1032,11.910901,2,6,9,13,29,-1019
1033,11.92257,2,5,8,12,28,-1023
1034,11.934223,2,6,8,12,27,-1026
1035,11.945891,3,7,9,16,25,-1019
1036,11.957557,2,5,9,16,24,-1026
1037,11.969209,2,6,9,12,26,-1018
1038,11.980973,3,6,9,12,26,-1022
1039,11.992649,1,6,9,11,27,-1017
1040,12.004209,3,6,9,13,27,-1025
1041,12.015792,2,6,9,10,27,-1025
1042,12.027351,2,7,9,14,23,-1020
1043,12.038974,2,6,9,12,27,-1025
1044,12.050558,2,7,8,12,29,-1018
1045,12.0621,3,6,9,11,29,-1018
1046,12.073644,2,7,9,13,24,-1025
1047,12.08519,2,6,8,11,23,-1019
1048,12.096738,2,5,9,16,28,-1024
1049,12.10829,2,6,9,16,27,-1021
1050,12.119854,2,6,9,13,27,-1022
1051,12.131435,3,6,9,11,27,-1017
1052,12.142991,3,6,9,13,28,-1016
1053,12.154565,2,6,9,13,22,-1027
1054,12.1661,2,7,9,15,24,-1017
1055,12.177643,2,7,9,15,25,-1023
1056,12.189192,2,5,10,10,24,-1026
1057,12.200873,2,6,8,9,26,-1018
1058,12.212533,2,5,9,14,26,-1020
1059,12.224187,3,6,9,12,24,-1021
1060,12.235882,2,6,9,11,27,-1028
1061,12.247536,3,7,9,15,30,-1021
1062,12.259218,2,6,9,10,27,-1017
1063,12.270893,2,6,9,14,27,-1022
1064,12.282566,2,6,9,10,26,-1028
1065,12.294254,3,5,9,13,25,-1020
1066,12.30591,2,6,9,16,27,-1026
1067,12.317479,2,6,9,13,27,-1020
1068,12.329049,2,7,9,10,22,-1022
1069,12.340604,2,6,9,13,22,-1021
1070,12.352216,2,6,9,8,25,-1022
1071,12.363783,3,6,9,15,25,-1027
1072,12.375344,2,7,8,10,25,-1022
1073,12.386922,2,6,9,12,23,-1023
1074,12.398489,2,6,9,10,25,-1021
1075,12.410148,2,6,9,14,23,-1022
1076,12.421801,2,5,10,12,24,-1025
1077,12.433473,2,5,10,17,26,-1017
1078,12.445158,2,6,9,13,27,-1010
1079,12.456808,3,5,9,12,25,-1025
1080,12.468487,2,7,9,16,27,-1020
1081,12.480137,3,6,10,12,26,-1023
1082,12.491793,2,6,9,14,23,-1025
1083,12.503501,2,6,9,10,29,-1024
1084,12.515162,3,6,9,14,24,-1023
1085,12.52672,1,5,9,19,31,-1014
1086,12.538288,2,6,9,13,28,-1023
1087,12.549848,2,5,9,14,22,-1018
1088,12.561392,3,6,9,14,26,-1022
1089,12.572964,3,6,9,14,27,-1027
1090,12.584521,3,7,9,13,25,-1016
1091,12.596085,2,6,8,13,25,-1024
1092,12.607661,2,6,9,13,26,-1015
1093,12.619275,2,6,9,12,29,-1026
1094,12.630976,2,7,9,11,24,-1024
1095,12.642641,2,6,9,12,23,-1022
1096,12.654286,2,6,9,16,24,-1019
1097,12.665934,2,6,9,11,23,-1029
1098,12.677571,3,6,8,15,27,-1017
1099,12.689222,1,6,9,9,28,-1022
1100,12.70088,2,6,10,13,25,-1030
1101,12.712553,2,6,9,12,24,-1018
1102,12.724203,3,6,9,13,26,-1021
1103,12.735766,2,6,9,11,24,-1026
1104,12.747289,2,6,9,16,28,-1017
1105,12.758811,2,6,9,12,27,-1020
1106,12.770362,2,6,9,16,27,-1024
1107,12.781907,2,6,9,9,23,-1024
1108,12.793453,3,6,10,14,25,-1022
1109,12.804996,2,6,9,15,24,-1023
1110,12.816559,2,6,9,14,23,-1020
1111,12.828177,2,6,9,14,26,-1029
1112,12.839864,3,6,9,14,27,-1018
1113,12.85152,2,6,8,11,26,-1023
1114,12.863171,2,6,9,12,26,-1024
1115,12.874832,2,6,9,12,30,-1020
1116,12.886492,2,6,9,13,31,-1015
1117,12.898144,2,6,9,16,27,-1027
1118,12.909797,2,6,9,17,21,-1022
1119,12.921472,1,5,9,15,25,-1024
1120,12.93314,2,5,9,13,24,-1026
1121,12.944737,2,6,9,10,29,-1021
1122,12.95629,2,5,9,11,23,-1019
1123,12.96785,2,6,9,15,26,-1022
1124,12.979413,2,6,9,12,24,-1023
1125,12.990964,2,6,9,14,28,-1018
1126,13.002552,2,7,9,16,25,-1020
1127,13.014101,2,6,9,11,26,-1017
1128,13.025669,2,5,10,11,29,-1015
1129,13.037278,2,6,9,12,24,-1018
1130,13.048936,2,6,9,11,27,-1024
1131,13.06072,2,6,9,15,28,-1019
1132,13.072382,3,6,9,15,26,-1020
1133,13.084048,3,7,9,14,27,-1018
1134,13.095746,2,6,9,11,26,-1024
1135,13.107401,2,6,9,15,28,-1025
1136,13.119085,3,6,9,13,23,-1025
1137,13.130796,3,6,9,14,22,-1013
1138,13.142447,2,6,9,16,24,-1022
1139,13.154123,2,5,10,11,22,-1021
1140,13.165781,2,7,9,11,25,-1017
1141,13.177425,3,6,9,14,25,-1021
1142,13.189077,3,7,10,14,25,-1020
1143,13.200774,3,7,9,14,27,-1028
1144,13.212419,2,6,10,9,24,-1024
1145,13.224129,2,6,8,10,27,-1024
1146,13.235863,1,6,9,10,26,-1023
1147,13.247531,2,6,9,10,26,-1022
1148,13.259102,2,7,9,19,26,-1026
1149,13.270649,2,6,9,13,32,-1024
1150,13.282203,2,6,9,15,27,-1017
1151,13.29376,2,7,10,13,27,-1024
1152,13.305326,2,7,9,14,26,-1017
1153,13.316902,2,6,9,13,29,-1021
1154,13.328476,2,6,9,14,27,-1027
1155,13.340068,3,7,9,14,29,-1024
1156,13.351758,2,7,9,13,27,-1017
1157,13.363423,2,7,10,12,23,-1024
1158,13.375103,2,6,9,13,21,-1021
1159,13.386758,2,6,9,10,23,-1026
1160,13.398409,2,6,9,11,25,-1024
1161,13.410062,2,6,9,13,28,-1020
1162,13.421707,2,6,9,10,25,-1023
1163,13.433349,2,6,9,13,23,-1023
1164,13.445026,3,6,9,12,24,-1025
1165,13.456668,2,6,9,11,26,-1018
1166,13.468314,2,6,9,9,26,-1021
1167,13.480007,1,7,8,10,22,-1025
1168,13.491655,2,6,9,11,28,-1028
1169,13.503332,3,7,9,11,33,-1021
1170,13.515023,2,6,9,9,23,-1025
1171,13.526685,3,6,9,13,24,-1026
1172,13.538363,3,6,9,13,25,-1016
1173,13.550033,3,6,8,13,28,-1018
1174,13.561678,3,5,9,16,26,-1025
1175,13.573243,2,7,9,15,29,-1022
1176,13.584819,2,6,9,16,25,-1023
1177,13.596368,2,6,9,14,23,-1019
1178,13.607949,2,5,8,12,24,-1021
1179,13.61952,1,6,10,7,22,-1019
1180,13.631049,1,6,9,11,27,-1021
1181,13.642559,2,7,8,12,26,-1017
1182,13.654117,2,6,9,12,23,-1025
1183,13.665738,2,6,9,15,26,-1027
1184,13.677398,3,6,10,14,24,-1018
1185,13.689081,2,8,8,13,23,-1025
1186,13.700753,2,7,10,13,26,-1024
1187,13.712411,2,6,9,10,28,-1019
1188,13.724087,2,5,9,7,26,-1024
1189,13.735761,2,7,9,8,28,-1022
1190,13.747419,2,7,9,11,21,-1025
1191,13.759116,2,5,8,14,24,-1019
1192,13.770772,2,5,9,11,25,-1021
1193,13.782333,2,6,9,12,25,-1026
1194,13.793907,3,6,9,12,23,-1021
1195,13.805459,2,6,9,12,28,-1031
1196,13.817006,2,6,9,11,27,-1022
1197,13.828561,2,6,9,16,25,-1022
1198,13.840116,3,6,9,8,27,-1019
1199,13.851715,2,6,9,14,28,-1022
1200,13.863309,2,6,8,9,27,-1021
1201,13.87499,2,6,8,14,25,-1021
1202,13.886632,2,7,9,14,26,-1020
1203,13.89828,2,5,8,19,25,-1025
1204,13.90994,2,7,8,13,27,-1024
1205,13.921611,2,6,9,12,21,-1024
1206,13.933283,2,5,9,15,29,-1023
1207,13.94495,3,6,9,16,22,-1019
1208,13.956623,2,5,9,11,29,-1023
1209,13.968266,2,6,9,12,24,-1024
1210,13.979835,3,6,10,13,25,-1013
1211,13.991403,3,6,9,10,23,-1023
1212,14.002963,2,6,9,13,24,-1022
1213,14.014511,3,5,9,15,25,-1023
1214,14.026077,3,6,9,8,26,-1023
1215,14.037643,3,6,9,15,25,-1021
1216,14.049204,2,7,8,11,23,-1023
1217,14.060784,2,7,9,13,25,-1021
1218,14.072405,1,7,9,14,23,-1021
1219,14.084189,2,5,9,13,24,-1028
1220,14.09587,1,6,9,9,25,-1023
1221,14.107527,2,6,8,12,22,-1022
1222,14.11922,2,6,9,11,28,-1022
1223,14.130886,2,5,9,12,31,-1022
1224,14.142568,2,6,9,14,27,-1023
1225,14.154236,2,6,9,15,30,-1017
1226,14.165907,2,5,9,12,26,-1023
1227,14.177602,2,6,9,12,24,-1024
1228,14.189192,2,6,10,12,29,-1026
1229,14.200743,3,5,9,15,22,-1024
1230,14.21231,2,5,9,16,24,-1025
1231,14.223864,2,6,9,8,26,-1023
1232,14.235427,3,6,9,11,25,-1020
1233,14.246982,3,6,9,18,26,-1022
1234,14.258572,2,6,9,13,25,-1025
1235,14.270136,1,6,9,12,23,-1019
1236,14.281756,2,6,9,15,25,-1019
1237,14.29341,2,6,10,10,25,-1020
1238,14.305051,2,7,9,12,29,-1016
1239,14.316695,3,6,9,11,25,-1019
1240,14.328366,3,6,9,12,29,-1022
1241,14.340013,2,6,9,11,28,-1027
1242,14.351668,2,6,9,14,30,-1019
1243,14.363341,2,6,9,14,25,-1026
1244,14.375018,2,6,10,13,22,-1023
1245,14.386679,2,5,9,14,26,-1025
1246,14.398241,2,5,8,17,26,-1019
1247,14.409812,3,6,9,10,22,-1018
1248,14.421388,1,6,9,14,20,-1025
1249,14.432975,3,6,9,9,25,-1025
1250,14.444563,3,6,9,9,24,-1021
1251,14.456115,3,6,9,12,24,-1021
1252,14.467697,2,6,8,14,27,-1026
1253,14.479295,2,5,9,16,22,-1020
1254,14.490919,2,5,9,15,26,-1017
1255,14.502581,2,6,9,13,24,-1021
1256,14.51424,2,6,9,12,29,-1024
1257,14.525894,2,6,9,12,26,-1028
1258,14.537549,2,6,9,14,26,-1018
1259,14.549195,3,6,8,14,25,-1024
1260,14.560872,2,6,9,21,29,-1020
1261,14.57253,2,6,9,9,27,-1018
1262,14.584169,2,6,9,10,24,-1028
1263,14.595723,2,6,10,13,26,-1023
1264,14.607284,2,5,9,10,24,-1022
1265,14.618812,2,5,9,14,24,-1025
1266,14.630367,2,6,8,11,24,-1022
1267,14.641956,3,6,9,10,24,-1020
1268,14.653509,2,6,9,8,24,-1024
1269,14.665069,3,6,9,11,26,-1025
1270,14.676607,3,6,10,14,23,-1015
1271,14.688161,3,5,10,11,30,-1021
1272,14.699859,2,6,9,16,29,-1017
1273,14.711524,3,6,9,15,25,-1021
1274,14.723224,2,6,9,12,25,-1021
1275,14.734888,2,5,9,14,29,-1020
1276,14.746569,2,6,9,14,24,-1011
1277,14.758245,2,7,9,11,27,-1022
1278,14.769892,2,6,9,11,21,-1023
1279,14.781541,2,6,9,15,28,-1026
1280,14.793217,2,6,9,9,23,-1016
1281,14.804819,2,5,8,9,28,-1023
1282,14.816391,2,6,8,16,27,-1017
1283,14.827957,2,6,8,12,25,-1020
1284,14.839557,2,6,9,11,26,-1020
1285,14.85114,2,5,10,14,25,-1019
1286,14.862803,2,6,9,13,26,-1027
1287,14.874352,2,6,9,13,28,-1020
1288,14.88591,3,6,9,10,25,-1025
1289,14.897598,2,7,9,14,28,-1021
1290,14.909259,2,6,8,13,25,-1024
1291,14.920965,2,6,8,11,29,-1024
1292,14.932626,2,6,9,15,27,-1017
1293,14.944277,3,6,9,14,27,-1026
1294,14.95595,2,6,9,12,26,-1021
1295,14.967606,2,6,10,12,21,-1017
1296,14.97926,2,6,9,15,27,-1019
1297,14.990925,2,7,9,12,28,-1018
1298,15.002584,2,7,8,7,27,-1021
1299,15.01424,2,6,9,11,26,-1018
1300,15.025891,2,5,9,13,24,-1020
1301,15.03753,2,6,9,14,28,-1022
1302,15.049177,3,6,9,14,25,-1024
1303,15.06085,3,6,9,13,29,-1023
1304,15.072498,1,6,9,13,25,-1020
1305,15.084143,2,6,9,9,25,-1022
1306,15.09582,2,6,9,10,22,-1027
1307,15.107736,2,6,8,14,28,-1021
1308,15.119408,2,5,9,13,25,-1019
1309,15.131106,2,6,8,13,29,-1026
1310,15.142762,2,6,9,14,25,-1028
1311,15.154415,2,6,10,13,23,-1024
1312,15.166113,2,7,9,14,26,-1024
1313,15.177759,2,6,9,13,26,-1021
1314,15.189407,2,6,9,14,21,-1024
1315,15.201091,2,7,9,13,26,-1021
1316,15.21276,2,7,9,15,26,-1027
1317,15.224321,2,7,9,17,27,-1017
1318,15.235898,2,6,9,14,27,-1021
1319,15.247458,2,7,9,14,31,-1025
1320,15.259045,2,7,9,16,25,-1023
1321,15.270569,2,6,9,11,28,-1032
1322,15.282133,3,6,9,13,29,-1016
1323,15.29371,3,6,10,7,27,-1023
1324,15.305283,3,6,9,12,26,-1023
1325,15.316895,2,6,8,13,26,-1021
1326,15.328561,2,6,9,11,27,-1021
1327,15.340213,2,6,9,12,22,-1022
1328,15.351867,2,6,9,13,22,-1021
1329,15.363524,2,6,9,15,22,-1026
1330,15.375217,1,6,9,17,28,-1018
1331,15.386878,3,6,9,14,24,-1022
1332,15.398556,2,7,9,10,26,-1026
1333,15.410251,2,6,9,11,25,-1027
1334,15.42193,2,6,10,13,30,-1023
1335,15.433491,2,6,9,12,25,-1026
1336,15.445058,2,7,8,18,29,-1016
1337,15.456612,2,6,8,14,24,-1023
1338,15.468188,1,6,9,13,27,-1026
1339,15.479759,2,6,9,12,24,-1017
1340,15.491288,2,6,9,11,26,-1030
1341,15.502809,2,6,9,10,25,-1025
1342,15.514363,2,6,9,16,24,-1022
1343,15.525982,2,6,9,8,27,-1024
1344,15.537656,2,6,9,10,26,-1023
1345,15.549331,2,5,9,11,26,-1021
1346,15.560989,3,6,9,15,27,-1022
1347,15.57264,2,6,9,11,27,-1023
1348,15.584286,2,5,9,13,26,-1021
1349,15.595959,2,6,9,12,27,-1025
1350,15.607615,2,7,8,13,24,-1023
1351,15.619275,2,6,9,15,26,-1012
1352,15.630947,3,6,8,15,26,-1017
1353,15.642553,2,5,9,14,27,-1019
1354,15.654114,3,6,9,15,27,-1022
1355,15.665704,2,6,8,16,21,-1025
1356,15.677269,2,6,9,10,27,-1023
1357,15.688821,2,6,9,14,26,-1021
1358,15.700364,1,6,9,12,28,-1020
1359,15.711928,2,6,9,14,27,-1025
1360,15.7235,2,6,10,14,27,-1018
1361,15.735099,2,6,8,11,27,-1022
1362,15.746759,2,6,9,13,23,-1017
1363,15.75841,3,7,8,13,25,-1026
1364,15.770081,2,6,9,14,25,-1019
1365,15.781731,2,6,9,13,25,-1021
1366,15.793378,3,6,9,14,27,-1022
1367,15.805032,2,6,8,13,25,-1017
1368,15.816716,2,7,9,18,24,-1016
1369,15.828396,2,5,9,14,24,-1018
1370,15.84009,2,7,8,15,28,-1023
1371,15.851658,2,6,9,11,25,-1024
1372,15.863215,2,7,9,12,26,-1021
1373,15.874798,2,7,9,13,28,-1027
1374,15.886346,2,6,8,15,26,-1023
1375,15.897892,2,7,9,14,27,-1021
1376,15.909487,2,7,10,10,27,-1018
1377,15.921055,2,6,10,15,24,-1023
1378,15.932616,3,6,10,13,24,-1024
1379,15.944239,2,6,9,10,25,-1021
1380,15.955877,2,6,9,13,26,-1020
1381,15.96753,3,7,9,15,25,-1019
1382,15.979218,2,6,9,14,26,-1023
1383,15.990883,3,5,8,14,24,-1027
1384,16.002554,2,6,8,10,27,-1016
1385,16.014217,2,6,9,9,26,-1024
1386,16.025869,2,6,9,12,25,-1027
1387,16.037523,2,6,8,15,28,-1021
1388,16.049209,2,6,9,15,25,-1023
1389,16.060804,2,5,10,9,28,-1020
1390,16.072351,2,5,9,12,27,-1020
1391,16.083912,3,6,9,12,25,-1024
1392,16.095478,2,6,9,11,24,-1028
1393,16.107047,2,6,8,12,25,-1025
1394,16.118569,3,6,9,10,28,-1022
1395,16.130117,2,6,9,13,20,-1019
1396,16.141686,2,6,10,11,25,-1021
1397,16.153352,2,6,9,11,29,-1020
1398,16.16501,3,6,10,13,25,-1021
1399,16.176651,3,6,9,16,22,-1019
1400,16.188303,2,6,8,10,26,-1026
1401,16.19999,2,7,9,13,26,-1025
1402,16.211607,2,7,9,13,28,-1019
1403,16.22326,2,6,9,10,23,-1025
1404,16.234936,2,5,9,11,26,-1019
1405,16.24663,2,5,8,15,26,-1020
1406,16.258305,2,6,9,11,28,-1027
1407,16.269862,1,6,9,17,25,-1022
1408,16.281448,2,6,9,11,23,-1022
1409,16.293006,2,5,8,12,24,-1023
1410,16.304559,2,6,8,14,28,-1024
1411,16.316103,3,5,9,10,26,-1021
1412,16.327655,2,6,10,12,23,-1031
1413,16.339216,2,6,9,17,24,-1017
1414,16.350824,3,6,10,13,29,-1023
1415,16.362476,2,6,8,15,28,-1017
1416,16.374133,2,7,9,8,25,-1019
1417,16.385795,2,7,9,10,26,-1022
1418,16.397487,2,6,9,14,28,-1024
1419,16.409142,3,6,9,12,26,-1025
1420,16.42081,2,6,8,15,22,-1028
1421,16.432475,1,6,9,17,25,-1018
1422,16.444127,1,6,9,13,26,-1028
1423,16.455809,2,5,9,11,24,-1022
1424,16.467494,2,6,9,15,29,-1019
1425,16.479154,1,6,9,13,23,-1024
1426,16.490849,2,6,9,11,25,-1030
1427,16.5025,2,6,9,12,25,-1018
1428,16.514149,1,7,9,16,23,-1021
1429,16.525818,3,6,9,12,27,-1024
1430,16.537476,3,6,8,15,22,-1028
1431,16.549127,2,6,9,10,30,-1024
1432,16.560803,2,6,9,15,27,-1019
1433,16.572469,2,6,9,10,24,-1022
1434,16.584124,2,6,8,15,26,-1022
1435,16.595781,2,6,8,9,23,-1026
1436,16.607478,2,7,9,13,23,-1027
1437,16.619144,2,6,10,13,22,-1023
1438,16.630832,2,7,9,14,27,-1024
1439,16.642485,3,7,9,11,25,-1026
1440,16.654164,2,6,9,12,24,-1021
1441,16.665836,2,6,9,11,26,-1024
1442,16.677504,2,6,9,9,25,-1023
1443,16.689055,3,6,9,11,27,-1025
1444,16.700598,1,7,9,8,26,-1016
1445,16.712157,2,6,9,13,26,-1019
1446,16.723708,2,5,9,15,27,-1024
1447,16.73528,2,6,9,12,25,-1021
1448,16.74681,3,6,9,12,21,-1015
1449,16.758375,1,6,9,11,30,-1022
1450,16.769952,2,6,9,14,27,-1020
1451,16.781598,2,6,10,15,25,-1027
1452,16.793256,3,6,9,11,25,-1025
1453,16.8049,2,6,9,15,26,-1028
1454,16.816556,3,6,9,14,25,-1023
1455,16.828228,2,6,8,15,24,-1018
1456,16.839856,2,6,9,12,28,-1018
1457,16.851514,3,6,9,11,28,-1025
1458,16.863187,2,7,10,13,25,-1020
1459,16.874846,2,6,9,17,26,-1024
1460,16.886502,2,6,9,13,26,-1022
1461,16.898087,2,5,9,13,24,-1020
1462,16.90967,2,5,10,12,21,-1024
1463,16.921209,2,6,9,12,28,-1026
1464,16.932776,2,7,8,12,26,-1021
1465,16.944329,2,6,10,16,29,-1021
1466,16.955936,2,6,9,11,27,-1022
1467,16.967522,3,6,9,13,28,-1022
1468,16.979062,2,6,9,9,26,-1027
1469,16.990755,2,6,9,14,25,-1027
1470,17.002405,2,6,9,12,27,-1019
1471,17.014084,2,6,9,16,28,-1019
1472,17.025768,2,5,9,9,27,-1014
1473,17.037421,2,6,9,9,25,-1022
1474,17.049101,3,6,9,15,24,-1022
1475,17.060762,2,6,9,12,27,-1023
1476,17.072411,2,6,9,9,24,-1022
1477,17.084107,2,6,9,12,22,-1025
1478,17.095764,2,6,9,13,28,-1027
1479,17.10729,2,5,8,11,24,-1020
1480,17.118811,2,6,9,14,26,-1026
1481,17.130359,2,6,9,13,25,-1019
1482,17.141912,2,5,8,12,25,-1026
1483,17.15347,2,6,8,11,25,-1023
1484,17.165033,2,6,9,16,25,-1025
1485,17.176595,2,6,9,12,28,-1023
1486,17.188192,3,6,9,10,28,-1029
1487,17.19985,1,7,10,13,22,-1022
1488,17.211513,2,6,9,10,24,-1021
1489,17.223159,2,6,9,10,25,-1025
1490,17.234843,3,6,10,13,24,-1022
1491,17.246494,2,7,9,12,25,-1024
1492,17.258132,2,7,9,13,28,-1026
1493,17.2698,2,6,10,10,23,-1022
1494,17.281465,3,6,9,10,26,-1033
1495,17.293125,2,5,8,14,29,-1019
1496,17.304781,2,5,9,14,28,-1021
1497,17.316338,2,6,9,10,26,-1017
1498,17.327912,2,6,10,11,29,-1024
1499,17.339476,3,7,9,13,27,-1022
1500,17.351053,2,6,9,17,24,-1015
1501,17.362611,3,5,8,11,26,-1019
1502,17.374172,2,6,9,9,24,-1024
1503,17.385714,2,6,9,9,28,-1023
1504,17.397315,3,6,9,12,27,-1025
1505,17.409008,2,6,9,11,26,-1019
1506,17.420679,3,6,9,10,25,-1026
1507,17.432339,3,6,9,15,27,-1016
1508,17.443996,3,7,9,15,26,-1022
1509,17.455672,2,7,9,11,23,-1024
1510,17.467344,2,6,10,15,27,-1018
1511,17.479001,2,6,9,16,29,-1019
1512,17.490658,2,6,9,10,23,-1026
1513,17.50234,2,6,9,14,26,-1020
1514,17.513995,2,7,9,14,26,-1024
1515,17.525651,2,6,9,13,25,-1021
1516,17.537296,3,5,9,16,29,-1025
1517,17.548952,3,5,9,12,25,-1022
1518,17.560607,2,6,9,16,24,-1020
1519,17.572252,2,6,9,14,26,-1024
1520,17.583906,2,7,8,11,28,-1018
1521,17.595606,2,6,9,13,19,-1022
1522,17.607336,2,6,9,16,28,-1025
1523,17.619007,2,6,9,13,30,-1019
1524,17.630698,2,7,9,8,24,-1019
1525,17.64234,2,6,8,14,22,-1023
1526,17.653995,3,6,9,13,24,-1019
1527,17.665632,2,6,9,10,27,-1025
1528,17.67728,2,6,9,15,25,-1018
1529,17.688952,2,5,10,11,24,-1023
1530,17.700594,2,6,9,14,26,-1026
1531,17.712257,3,6,9,14,27,-1025
1532,17.723929,2,6,8,16,30,-1020
1533,17.735538,2,6,8,14,25,-1021
1534,17.747053,2,7,9,13,27,-1020
1535,17.758567,2,6,8,13,25,-1016
1536,17.770131,2,6,8,11,25,-1019
1537,17.781677,2,6,8,14,31,-1025
1538,17.79322,2,5,9,13,24,-1021
1539,17.80478,2,7,9,10,26,-1015
1540,17.816515,2,6,9,13,26,-1026
1541,17.828128,2,6,9,14,26,-1020
1542,17.839687,2,6,9,12,29,-1022
1543,17.851296,2,6,9,14,21,-1023
1544,17.862897,2,6,10,14,29,-1028
1545,17.874447,3,6,9,11,29,-1024
1546,17.886044,3,6,9,12,23,-1020
1547,17.89759,2,5,9,13,28,-1020
1548,17.909136,2,7,8,16,21,-1026
1549,17.920689,2,6,9,12,25,-1022
1550,17.932344,2,5,9,16,23,-1021
1551,17.944003,3,5,9,12,27,-1022
1552,17.955658,2,6,9,17,25,-1025
1553,17.967348,2,6,10,16,26,-1018
1554,17.979011,2,6,9,15,27,-1025
1555,17.990654,2,6,9,13,27,-1026
1556,18.002326,1,6,9,14,25,-1028
1557,18.013978,2,6,8,16,22,-1018
1558,18.025634,2,7,8,14,26,-1021
1559,18.037284,2,6,9,12,31,-1025
1560,18.048974,2,6,9,11,26,-1019
1561,18.060617,2,6,9,12,27,-1018
1562,18.072268,2,6,10,10,28,-1020
1563,18.083957,2,6,9,14,25,-1024
1564,18.095605,3,7,9,11,26,-1026
1565,18.107259,3,6,10,12,27,-1014
1566,18.118954,3,7,10,16,23,-1019
1567,18.130703,2,5,10,12,26,-1025
1568,18.142366,2,5,9,9,24,-1022
1569,18.153927,3,6,9,12,21,-1020
1570,18.165507,2,5,9,15,27,-1022
1571,18.177061,3,5,9,13,28,-1024
1572,18.188655,2,6,9,16,29,-1021
1573,18.2002,2,6,8,10,24,-1021
1574,18.21178,2,6,9,14,25,-1024
1575,18.223297,2,7,9,13,28,-1021
1576,18.234817,2,6,9,13,28,-1016
1577,18.246465,2,6,9,12,27,-1025
1578,18.258115,2,7,9,13,25,-1024
1579,18.26976,3,5,9,13,24,-1014
1580,18.281427,2,7,9,16,28,-1019
1581,18.29309,3,7,9,15,20,-1017
1582,18.304736,2,6,8,13,27,-1023
1583,18.316386,2,7,9,14,25,-1027
1584,18.328042,2,6,9,13,25,-1021
1585,18.339724,2,6,9,12,22,-1024
1586,18.351297,2,6,9,13,24,-1023
1587,18.362809,2,6,9,18,27,-1023
1588,18.374379,2,7,9,17,24,-1022
1589,18.385923,2,5,8,15,25,-1021
1590,18.397507,2,6,9,12,26,-1022
1591,18.40912,2,6,9,12,26,-1026
1592,18.420677,2,6,10,12,29,-1021
1593,18.432216,2,5,10,10,24,-1025
1594,18.44388,3,6,9,15,23,-1018
1595,18.455566,2,7,10,14,26,-1017
1596,18.467224,2,5,9,13,25,-1027
1597,18.478889,2,5,9,13,23,-1022
1598,18.490577,2,6,9,15,28,-1017
1599,18.502265,2,7,9,12,28,-1016
1600,18.513953,2,5,9,13,29,-1026
1601,18.525596,2,6,9,12,25,-1019
1602,18.537259,2,7,9,16,22,-1017
1603,18.548935,2,6,9,12,29,-1022
1604,18.56059,2,6,9,12,24,-1023
1605,18.572241,2,6,10,13,25,-1015
1606,18.583872,2,6,9,11,24,-1020
1607,18.595544,2,6,10,15,26,-1030
1608,18.607223,2,6,9,15,24,-1023
1609,18.618883,3,6,8,11,28,-1025
1610,18.630568,2,6,8,13,27,-1016
1611,18.642239,2,6,9,8,24,-1024
1612,18.65669,3,6,8,14,26,-1021
1613,18.668409,2,6,9,14,29,-1025
1614,18.680081,2,6,9,17,26,-1021
1615,18.691826,2,6,9,9,24,-1025
1616,18.703497,2,6,9,11,29,-1018
1617,18.715177,2,6,9,12,29,-1024
1618,18.726839,2,6,9,13,26,-1028
1619,18.73849,2,6,8,15,25,-1025
1620,18.750151,2,7,8,16,29,-1020
1621,18.761699,2,7,9,15,27,-1023
1622,18.773247,3,6,9,15,29,-1021
1623,18.784795,2,6,9,12,26,-1017
1624,18.796381,2,6,9,11,22,-1014
1625,18.807937,2,6,9,14,23,-1022
1626,18.819531,2,5,9,11,24,-1017
1627,18.831049,3,6,9,16,21,-1020
1628,18.842568,2,6,9,13,24,-1024
1629,18.854126,2,6,8,14,22,-1024
1630,18.865747,2,6,9,13,28,-1017
1631,18.877462,3,5,9,9,25,-1027
1632,18.889122,2,5,9,13,25,-1022
1633,18.900813,3,6,8,13,28,-1026
1634,18.912475,3,6,9,14,22,-1027
1635,18.924133,2,7,9,10,25,-1023
1636,18.935818,2,6,9,13,27,-1016
1637,18.947545,2,6,10,13,27,-1023
1638,18.95926,2,6,8,14,27,-1021
1639,18.970966,3,6,9,12,23,-1022
1640,18.982579,3,5,9,16,27,-1019
1641,18.994225,2,7,9,14,23,-1024
1642,19.005878,2,5,9,15,29,-1023
1643,19.017541,3,6,9,14,23,-1026
1644,19.029196,2,7,8,14,25,-1015
1645,19.040846,2,6,9,14,25,-1024
1646,19.052499,3,7,8,12,30,-1016
1647,19.064151,3,6,9,10,29,-1018
1648,19.075828,1,6,9,10,27,-1011
1649,19.087495,2,5,8,13,26,-1019
1650,19.099143,2,6,8,15,25,-1021
1651,19.110841,2,6,9,7,25,-1021
1652,19.122495,2,6,9,11,28,-1027
1653,19.134138,2,6,8,9,22,-1027
1654,19.145808,3,7,8,10,26,-1018
1655,19.157459,2,7,8,13,29,-1023
1656,19.169129,2,6,9,11,30,-1027
1657,19.180782,2,6,10,14,27,-1023
1658,19.192493,2,7,9,15,29,-1018
1659,19.204275,2,6,8,13,25,-1020
1660,19.215957,2,5,9,11,29,-1014
1661,19.2276,3,6,10,14,26,-1021
1662,19.239261,2,6,8,15,25,-1023
1663,19.250959,2,6,9,11,27,-1022
1664,19.262579,2,6,8,15,24,-1018
1665,19.274335,3,6,9,12,23,-1028
1666,19.285995,2,6,10,16,23,-1020
1667,19.29756,2,6,9,13,25,-1022
1668,19.309146,2,6,8,12,26,-1022
1669,19.320692,3,6,9,14,25,-1019
1670,19.332248,2,6,8,15,25,-1019
1671,19.343789,3,5,9,11,26,-1020
1672,19.35534,2,6,9,14,25,-1022
1673,19.366885,2,6,8,12,25,-1021
1674,19.378483,2,6,8,11,23,-1018
1675,19.390113,2,6,8,11,22,-1021
1676,19.40179,2,6,9,17,26,-1024
1677,19.413456,3,6,9,12,25,-1020
1678,19.425111,2,7,8,13,26,-1023
1679,19.436773,2,6,9,14,27,-1022
1680,19.448479,2,6,9,14,26,-1017
1681,19.460136,3,6,10,11,27,-1024
1682,19.471801,2,6,9,11,21,-1020
1683,19.483493,2,5,9,15,30,-1020
1684,19.495155,3,5,9,12,23,-1024
1685,19.506737,2,5,8,10,29,-1022
1686,19.518285,2,6,9,13,26,-1016
1687,19.529862,2,6,9,11,26,-1021
1688,19.541414,2,6,10,11,28,-1020
1689,19.552963,3,6,9,17,27,-1021
1690,19.564527,3,6,9,16,29,-1021
1691,19.576066,2,6,9,14,25,-1026
1692,19.587618,2,7,9,9,28,-1025
1693,19.599246,2,7,8,11,26,-1023
1694,19.610903,2,6,9,15,29,-1009
1695,19.622585,2,6,9,14,24,-1020
1696,19.634242,3,5,8,12,30,-1021
1697,19.645919,2,6,9,12,26,-1019
1698,19.657587,2,6,8,14,25,-1028
1699,19.669239,3,6,9,11,25,-1024
1700,19.68088,2,6,10,15,26,-1028
1701,19.692576,2,6,9,15,25,-1025
1702,19.704239,2,6,9,12,23,-1018
1703,19.7158,2,6,9,11,25,-1024
1704,19.727354,3,6,10,15,24,-1023
1705,19.738934,2,5,9,12,25,-1025
1706,19.750516,2,6,9,16,23,-1024
1707,19.762066,2,6,9,16,31,-1021
1708,19.773643,2,6,9,14,24,-1023
1709,19.785185,2,5,9,15,23,-1026
1710,19.796759,2,6,9,12,25,-1026
1711,19.808485,1,7,8,15,28,-1032
1712,19.820182,2,6,8,15,27,-1018
1713,19.831862,2,5,8,9,23,-1022
1714,19.843549,2,6,9,16,27,-1023
1715,19.855226,3,6,8,9,29,-1025
1716,19.86691,2,6,8,11,27,-1019
1717,19.87858,2,6,8,11,26,-1027
1718,19.890224,2,6,10,13,26,-1020
1719,19.901888,2,6,9,14,27,-1022
1720,19.913545,3,6,9,16,28,-1028
1721,19.925136,3,6,9,13,27,-1018
1722,19.936683,2,6,8,11,22,-1016
1723,19.948223,2,6,9,11,29,-1022
1724,19.959782,2,6,9,9,24,-1016
1725,19.971337,2,6,9,14,26,-1021
1726,19.982897,3,6,8,16,26,-1020
1727,19.994436,2,6,9,13,29,-1022
1728,20.005987,2,6,9,14,24,-1020
1729,20.017623,3,7,9,13,29,-1022
1730,20.029269,3,6,9,11,24,-1021
1731,20.040914,2,5,9,14,26,-1028
1732,20.052579,2,5,9,13,28,-1023
1733,20.06422,2,5,9,15,25,-1021
1734,20.075864,2,5,9,13,28,-1021
1735,20.087554,2,6,9,16,25,-1022
1736,20.099223,2,6,9,10,23,-1021
1737,20.110874,3,6,9,13,22,-1024
1738,20.12242,3,6,9,11,23,-1015
1739,20.133961,3,5,9,13,26,-1019
1740,20.145519,2,6,9,13,28,-1025
1741,20.157066,2,6,9,6,23,-1023
1742,20.168616,3,6,9,12,25,-1024
1743,20.180158,3,5,9,12,25,-1022
1744,20.191738,3,6,9,14,23,-1023
1745,20.203294,2,6,8,8,26,-1023
1746,20.214894,2,6,9,14,24,-1021
1747,20.226614,2,6,9,14,25,-1018
1748,20.238302,3,6,8,11,25,-1020
1749,20.249963,2,6,9,13,25,-1023
1750,20.261622,3,5,9,16,24,-1020
1751,20.273296,2,5,9,9,26,-1019
1752,20.284953,2,6,9,13,27,-1020
1753,20.296606,2,6,9,14,26,-1020
1754,20.308269,3,6,8,12,27,-1017
1755,20.31994,3,5,9,7,24,-1023
1756,20.331588,3,6,8,13,25,-1019
1757,20.343177,2,7,9,15,26,-1020
1758,20.354791,2,6,8,15,27,-1028
1759,20.366337,3,6,9,13,28,-1016
1760,20.377888,3,6,9,13,26,-1024
1761,20.389458,2,6,9,12,25,-1021
1762,20.401008,3,7,9,13,25,-1019
1763,20.412562,2,6,9,11,24,-1025
1764,20.424163,2,6,9,13,28,-1021
1765,20.435808,2,6,9,13,28,-1019
1766,20.447481,2,6,9,15,27,-1023
1767,20.459091,3,6,9,14,26,-1027
1768,20.470747,2,6,9,8,24,-1029
1769,20.482397,1,6,8,11,30,-1021
1770,20.494071,3,6,8,12,30,-1019
1771,20.505727,3,6,8,15,24,-1017
1772,20.51737,2,6,9,14,25,-1024
1773,20.529033,2,6,9,16,25,-1019
1774,20.540694,3,7,9,12,32,-1016
1775,20.552271,2,7,9,12,25,-1020
1776,20.563821,3,7,9,15,27,-1023
1777,20.575371,2,5,9,9,25,-1023
1778,20.586935,3,6,9,15,26,-1019
1779,20.598502,2,6,9,12,24,-1023
1780,20.610058,2,5,9,12,24,-1018
1781,20.621653,2,5,9,9,26,-1016
1782,20.63322,2,6,8,12,26,-1023
1783,20.644825,2,6,9,10,27,-1018
1784,20.656493,2,7,9,9,28,-1023
1785,20.668144,3,6,9,10,26,-1026
1786,20.679814,2,6,9,14,24,-1021
1787,20.691481,2,5,9,13,27,-1022
1788,20.703128,2,6,9,12,22,-1022
1789,20.714828,2,6,9,11,27,-1020
1790,20.726484,1,6,9,9,26,-1024
1791,20.738179,3,6,9,12,25,-1020
1792,20.749829,2,6,9,13,25,-1031
1793,20.761413,2,6,9,11,27,-1026
1794,20.772981,2,6,9,15,27,-1023
1795,20.784543,2,7,9,21,28,-1023
1796,20.796141,2,6,8,10,26,-1022
1797,20.807705,2,6,8,12,26,-1020
1798,20.819281,2,6,9,13,26,-1020
1799,20.830811,2,6,8,11,24,-1024
1800,20.842366,3,5,9,11,26,-1020
1801,20.854057,2,5,8,13,24,-1016
1802,20.865709,2,6,9,9,24,-1020
1803,20.877362,2,5,9,13,27,-1019
1804,20.889032,2,5,9,13,27,-1023
1805,20.900686,2,6,9,11,24,-1023
1806,20.912338,2,6,9,14,27,-1022
1807,20.924006,2,6,9,16,21,-1021
1808,20.935655,2,6,9,14,24,-1023
1809,20.94733,2,6,9,13,29,-1023
1810,20.958886,2,6,10,10,26,-1022
1811,20.970447,2,5,9,17,26,-1019
1812,20.982011,3,6,9,11,24,-1023
1813,20.993557,3,6,10,13,23,-1020
1814,21.005101,3,7,9,10,26,-1025
1815,21.016642,2,5,9,14,26,-1017
1816,21.028202,3,7,10,14,28,-1017
1817,21.039768,2,6,9,11,25,-1023
1818,21.051329,2,5,8,12,26,-1026
1819,21.062998,2,6,9,17,25,-1022
1820,21.074698,3,7,9,14,25,-1018
1821,21.08635,2,6,9,15,21,-1018
1822,21.09801,2,6,10,15,25,-1028
1823,21.109674,2,6,9,16,25,-1022
1824,21.121345,2,6,8,11,26,-1021
1825,21.133007,2,5,9,12,25,-1021
1826,21.144682,3,5,9,14,27,-1031
1827,21.156339,2,6,9,13,27,-1025
1828,21.168008,2,5,8,13,24,-1023
1829,21.179677,3,6,9,14,26,-1027
1830,21.191367,3,6,8,11,25,-1023
1831,21.203098,3,5,9,11,26,-1024
1832,21.214785,3,7,8,13,29,-1015
1833,21.22645,2,6,9,14,27,-1022
1834,21.238108,2,7,9,11,25,-1021
1835,21.249764,2,6,9,12,26,-1022
1836,21.261435,2,6,9,11,25,-1022
1837,21.273091,2,7,9,15,25,-1017
1838,21.284754,2,6,9,8,24,-1019
1839,21.296425,2,5,9,10,25,-1028
1840,21.308112,3,6,10,13,29,-1032
1841,21.319796,2,6,9,15,28,-1026
1842,21.331469,3,5,9,12,23,-1029
1843,21.343096,2,6,9,14,29,-1025
1844,21.354846,2,7,9,14,24,-1018
1845,21.36656,2,5,9,12,26,-1020
1846,21.378119,2,6,9,14,25,-1023
1847,21.389669,3,5,9,14,26,-1022
1848,21.40125,2,6,9,13,25,-1021
1849,21.412799,3,6,9,15,22,-1019
1850,21.424373,2,6,9,9,25,-1022
1851,21.435924,2,6,9,19,26,-1027
1852,21.447466,2,6,9,13,20,-1026
1853,21.459054,3,5,9,10,27,-1026
1854,21.470714,2,6,9,15,24,-1017
1855,21.48237,2,6,8,13,28,-1019
1856,21.494071,2,6,9,13,23,-1022
1857,21.505725,2,6,9,13,25,-1022
1858,21.517389,3,6,9,9,24,-1020
1859,21.529046,2,6,9,9,27,-1021
1860,21.540694,2,6,9,12,23,-1023
1861,21.552343,2,7,9,9,24,-1024
1862,21.564016,2,6,9,10,25,-1022
1863,21.575681,2,6,9,12,24,-1022
1864,21.587264,2,7,10,13,23,-1022
1865,21.598811,2,5,10,14,26,-1020
1866,21.610381,2,6,9,13,23,-1018
1867,21.621923,2,6,9,12,29,-1020
1868,21.633465,3,7,9,11,25,-1019
1869,21.645018,2,6,9,12,24,-1021
1870,21.65656,2,6,9,11,27,-1029
1871,21.668114,2,6,10,15,26,-1025
1872,21.679752,2,6,9,15,27,-1017
1873,21.691416,2,6,9,11,28,-1019
1874,21.703095,2,7,9,11,25,-1022
1875,21.714747,2,6,8,12,24,-1023
1876,21.726401,3,6,9,12,23,-1019
1877,21.738066,3,6,10,14,24,-1023
1878,21.749712,2,6,9,15,25,-1021
1879,21.761364,2,5,9,14,29,-1027
1880,21.773025,2,6,9,15,28,-1027
1881,21.784686,2,6,9,12,23,-1021
1882,21.796258,2,6,9,16,26,-1024
1883,21.807778,2,5,9,15,24,-1013
1884,21.819358,2,6,9,12,23,-1023
1885,21.830925,2,6,9,10,25,-1008
1886,21.842496,2,5,9,12,26,-1022
1887,21.854041,2,6,8,14,26,-1023
1888,21.865597,2,6,8,12,30,-1026
1889,21.877142,2,6,10,13,29,-1027
1890,21.888841,3,6,8,11,27,-1025
1891,21.900501,2,6,9,14,28,-1025
1892,21.912165,2,6,9,7,25,-1019
1893,21.923854,2,6,9,9,26,-1019
1894,21.935514,2,6,9,14,26,-1021
1895,21.947172,2,6,9,12,28,-1014
1896,21.958827,2,6,9,14,28,-1019
1897,21.970469,2,6,9,12,31,-1023
1898,21.982132,2,6,8,13,27,-1025
1899,21.993803,3,7,9,14,27,-1022
1900,22.005448,3,6,9,13,24,-1024
1901,22.017101,3,6,9,13,24,-1020
1902,22.028742,3,6,10,11,23,-1017
1903,22.040391,2,5,9,11,25,-1024
1904,22.052059,2,6,9,14,26,-1027
1905,22.063729,2,5,10,11,26,-1023
1906,22.075348,2,6,9,12,23,-1017
1907,22.087056,2,6,9,17,22,-1023
1908,22.098724,2,6,9,11,25,-1026
1909,22.110377,2,6,9,14,23,-1022
1910,22.122052,2,5,9,13,24,-1023
1911,22.133697,3,6,9,14,26,-1026
1912,22.145347,2,6,9,8,23,-1017
1913,22.157012,3,6,9,11,26,-1020
1914,22.168673,3,5,9,12,23,-1021
1915,22.180329,2,5,9,16,26,-1019
1916,22.192047,2,6,9,16,27,-1020
1917,22.203727,2,6,9,11,29,-1024
1918,22.215352,3,6,8,13,28,-1024
1919,22.227026,2,6,9,10,29,-1022
1920,22.238727,2,6,10,14,27,-1022
1921,22.250375,3,5,9,16,25,-1025
1922,22.26204,3,6,9,13,27,-1021
1923,22.273688,2,6,8,11,26,-1021
1924,22.285351,3,5,9,11,27,-1025
1925,22.297008,2,6,8,16,27,-1024
1926,22.308696,2,7,9,13,24,-1025
1927,22.320257,2,6,9,11,28,-1025
1928,22.331798,2,6,9,11,28,-1018
1929,22.343356,2,6,9,13,27,-1020
1930,22.354933,2,5,8,12,28,-1018
1931,22.36649,3,6,10,12,29,-1022
1932,22.378047,3,6,8,10,25,-1019
1933,22.389642,3,5,9,8,25,-1022
1934,22.401226,2,5,9,15,27,-1024
1935,22.41284,3,6,9,15,23,-1021
1936,22.424514,3,6,9,15,27,-1016
1937,22.436166,3,5,9,13,24,-1025
1938,22.447844,3,5,8,14,23,-1023
1939,22.459515,2,6,9,14,20,-1019
1940,22.471177,2,6,10,15,25,-1017
1941,22.482838,2,5,9,8,27,-1022
1942,22.494497,2,6,9,12,23,-1015
1943,22.506163,2,5,9,12,28,-1029
1944,22.517819,2,6,9,9,28,-1022
1945,22.529471,2,7,8,8,26,-1024
1946,22.541144,2,6,9,11,23,-1025
1947,22.552806,2,7,9,9,25,-1025
1948,22.564481,2,6,9,13,29,-1020
1949,22.576173,3,6,9,11,23,-1021
1950,22.587848,3,5,8,12,23,-1024
1951,22.599528,3,6,9,16,25,-1024
1952,22.611309,2,7,9,13,29,-1016
1953,22.622972,3,5,10,13,26,-1021
1954,22.634563,2,6,9,15,24,-1021
1955,22.646123,2,6,9,11,26,-1016
1956,22.65767,2,7,8,16,24,-1013
1957,22.669219,3,6,9,11,25,-1023
1958,22.680765,2,6,8,13,27,-1022
1959,22.692311,2,6,9,12,26,-1025
1960,22.703885,2,6,9,18,31,-1026
1961,22.715492,3,6,9,12,23,-1022
1962,22.727101,3,6,9,14,26,-1020
1963,22.738776,2,6,8,12,25,-1017
1964,22.75043,2,6,9,14,24,-1022
1965,22.762083,1,6,9,12,25,-1022
1966,22.773746,2,7,9,14,25,-1014
1967,22.7854,2,6,8,15,29,-1027
1968,22.797054,2,6,9,14,24,-1025
1969,22.808701,2,6,9,12,28,-1024
1970,22.820367,1,6,9,18,23,-1022
1971,22.832061,2,6,9,13,28,-1020
1972,22.843648,2,5,9,12,28,-1019
1973,22.855239,2,6,9,8,26,-1024
1974,22.866804,3,5,9,10,25,-1025
1975,22.878356,1,6,9,11,29,-1017
1976,22.889908,2,7,9,11,26,-1021
1977,22.901455,2,7,8,15,22,-1022
1978,22.913005,2,6,9,15,25,-1018
1979,22.924625,2,6,9,15,23,-1021
1980,22.936263,2,7,8,9,28,-1028
1981,22.947939,2,7,8,12,26,-1019
1982,22.959611,2,6,9,13,25,-1027
1983,22.971266,2,6,9,11,22,-1024
1984,22.982973,3,6,9,12,25,-1024
1985,22.994629,2,7,9,15,24,-1020
1986,23.006297,2,6,8,10,27,-1024
1987,23.017943,3,6,9,13,20,-1017
1988,23.029604,2,6,9,11,26,-1029
1989,23.041256,2,6,8,11,28,-1026
1990,23.052867,2,6,9,12,25,-1020
1991,23.064424,2,5,9,12,23,-1018
1992,23.076002,2,6,9,14,27,-1025
1993,23.087533,3,6,9,14,25,-1019
1994,23.099047,3,6,9,14,21,-1024
1995,23.110567,3,6,9,7,23,-1022
1996,23.122108,2,6,9,10,25,-1023
1997,23.133662,2,6,9,13,26,-1026
1998,23.145281,2,6,9,14,25,-1020
1999,23.156942,2,7,9,9,24,-1019
