sample,t_s,gyro_x,gyro_y,gyro_z,accel_x,accel_y,accel_z
0,1.3e-05,-1,-2,0,1013,-3,-1532
1,0.011241,0,7,1,1015,-1,-1531
2,0.02244,0,2,0,1020,-3,-1533
3,0.033627,0,2,0,1021,0,-1534
4,0.044839,1,-1,1,1020,0,-1531
5,0.056025,1,-2,0,1013,2,-1526
6,0.067208,1,0,-1,1020,0,-1532
7,0.078393,0,-1,3,1020,0,-1522
8,0.089579,0,2,3,1017,0,-1524
9,0.100763,0,1,0,1017,0,-1529
10,0.111949,-1,1,2,1022,0,-1528
11,0.123137,3,2,0,1020,-2,-1529
12,0.13432,0,1,0,1019,-4,-1517
13,0.145509,0,2,2,1018,1,-1533
14,0.156694,0,1,-1,1019,2,-1527
15,0.167883,0,-1,4,1017,2,-1525
16,0.179068,1,0,0,1018,-1,-1529
17,0.190255,0,1,2,1016,0,-1537
18,0.201441,-1,1,2,1016,-2,-1531
19,0.212624,1,-2,2,1018,0,-1533
20,0.223816,2,5,1,1018,-1,-1530
21,0.235005,0,1,0,1016,0,-1534
22,0.246189,1,0,1,1019,1,-1529
23,0.257375,1,0,1,1017,-3,-1537
24,0.268572,0,1,1,1019,-1,-1535
25,0.279765,1,-1,2,1017,-1,-1525
26,0.290948,-1,2,1,1014,0,-1531
27,0.30213,1,-1,-1,1015,0,-1532
28,0.313314,1,1,0,1015,0,-1529
29,0.324505,-1,0,0,1017,0,-1531
30,0.335652,-1,1,-1,1017,1,-1526
31,0.346833,1,2,0,1018,0,-1532
32,0.358016,0,-2,3,1020,3,-1531
33,0.369199,0,2,-1,1017,1,-1528
34,0.380391,-1,-2,4,1022,0,-1519
35,0.391579,1,0,1,1021,2,-1533
36,0.402764,1,1,2,1019,0,-1527
37,0.413951,2,-2,0,1017,-2,-1531
38,0.425134,0,0,1,1020,3,-1529
39,0.436318,-2,-1,5,1015,0,-1533
40,0.44747,0,1,2,1019,0,-1522
41,0.458655,2,2,0,1019,-3,-1530
42,0.469836,0,2,2,1019,-1,-1531
43,0.48102,2,-1,-1,1017,0,-1529
44,0.492207,2,7,0,1016,-1,-1527
45,0.503392,3,-1,2,1020,2,-1532
46,0.514574,1,2,1,1019,-3,-1534
47,0.525774,1,0,2,1020,0,-1529
48,0.536958,-2,1,1,1021,0,-1529
49,0.548145,-1,2,2,1021,0,-1532
50,0.559328,1,-1,1,1016,2,-1531
51,0.57051,1,1,1,1019,0,-1530
52,0.581691,0,-2,1,1017,0,-1528
53,0.592875,2,0,0,1020,-1,-1531
54,0.60402,0,0,1,1018,-1,-1531
55,0.615202,-1,-3,1,1014,1,-1529
56,0.626385,1,1,0,1018,-4,-1529
57,0.637567,0,1,0,1020,-2,-1534
58,0.648755,-2,-3,2,1020,0,-1525
59,0.659949,0,0,1,1021,-2,-1532
60,0.671139,2,1,3,1023,4,-1533
61,0.682322,1,0,-1,1020,-2,-1526
62,0.693506,0,2,-1,1019,-2,-1532
63,0.70469,-2,-4,-1,1014,2,-1531
64,0.715838,0,-1,0,1015,0,-1528
65,0.727023,2,0,0,1021,-1,-1536
66,0.738207,0,-1,-1,1021,-1,-1528
67,0.749392,-1,0,1,1016,-3,-1531
68,0.760575,0,1,0,1019,1,-1530
69,0.771765,1,0,2,1019,0,-1529
70,0.782948,1,-1,0,1018,-1,-1524
71,0.794131,0,-1,-1,1020,-1,-1533
72,0.805315,0,2,3,1017,-2,-1529
73,0.816505,2,-1,-1,1018,0,-1531
74,0.827652,1,0,1,1017,-2,-1526
75,0.838834,0,2,1,1020,0,-1531
76,0.850016,0,-3,0,1022,1,-1525
77,0.861207,3,3,-1,1018,0,-1531
78,0.872393,0,2,1,1021,-3,-1525
79,0.88358,1,2,0,1017,-4,-1531
80,0.894765,2,1,2,1020,-1,-1529
81,0.905948,1,0,1,1021,-1,-1531
82,0.917131,2,2,0,1017,0,-1534
83,0.928318,1,1,1,1022,0,-1528
84,0.939467,0,2,1,1015,-3,-1525
85,0.950651,2,-2,0,1016,-1,-1527
86,0.961834,1,1,3,1017,0,-1529
87,0.973017,0,-8,0,1017,-1,-1529
88,0.984208,0,1,1,1019,0,-1536
89,0.995392,1,1,-1,1017,-2,-1529
90,1.006576,0,1,2,1021,1,-1529
91,1.017761,0,1,0,1018,0,-1528
92,1.028948,0,2,0,1016,0,-1526
93,1.040138,0,-1,1,1021,1,-1530
94,1.051323,1,2,2,1017,-4,-1532
95,1.062508,1,1,0,1021,3,-1526
96,1.073693,0,-1,1,1016,0,-1528
97,1.084879,2,-1,1,1019,-2,-1531
98,1.096023,0,1,0,1018,0,-1530
99,1.107206,1,1,3,1017,-3,-1531
100,1.118394,-1,1,1,1024,0,-1537
101,1.129578,-1,1,2,1024,-1,-1531
102,1.140763,0,-1,0,1018,0,-1529
103,1.15195,2,1,2,1014,2,-1525
104,1.163133,1,1,-1,1019,-1,-1535
105,1.174314,-2,-2,1,1017,0,-1526
106,1.185497,3,2,-3,1016,-2,-1529
107,1.196686,0,0,1,1019,1,-1528
108,1.207884,2,-1,0,1017,0,-1531
109,1.219076,1,2,1,1018,-1,-1537
110,1.230263,-2,-1,1,1018,1,-1532
111,1.24145,0,2,3,1016,0,-1536
112,1.252634,-1,1,1,1016,-2,-1530
113,1.263836,-1,0,2,1017,-1,-1530
114,1.275021,0,1,1,1021,2,-1535
115,1.286204,-2,0,0,1017,1,-1529
116,1.297399,0,2,1,1020,1,-1531
117,1.308582,1,2,1,1019,-1,-1526
118,1.319766,3,2,1,1020,2,-1525
119,1.330949,0,1,0,1015,0,-1527
120,1.342132,2,-4,1,1017,-3,-1530
121,1.353315,0,-1,1,1019,0,-1535
122,1.364502,2,0,1,1018,-2,-1526
123,1.375652,-1,0,0,1022,1,-1531
124,1.386835,0,2,1,1018,0,-1533
125,1.398016,-2,-2,0,1022,-3,-1536
126,1.409199,-1,0,1,1019,-4,-1528
127,1.420389,2,1,-1,1016,1,-1529
128,1.431582,1,-1,0,1020,-2,-1531
129,1.442767,0,2,1,1019,-1,-1526
130,1.453949,0,1,0,1019,0,-1531
131,1.465132,-1,1,0,1013,-2,-1530
132,1.476318,0,0,0,1017,1,-1530
133,1.487467,-1,0,2,1017,-3,-1535
134,1.498654,0,1,3,1014,-4,-1529
135,1.509834,1,-1,-1,1014,2,-1529
136,1.521015,0,2,1,1014,0,-1533
137,1.532205,0,-1,-1,1017,3,-1535
138,1.543389,1,1,3,1018,0,-1534
139,1.554571,2,1,0,1023,1,-1528
140,1.565754,0,1,0,1019,1,-1530
141,1.576937,1,0,0,1020,-1,-1529
142,1.588131,0,-2,1,1018,1,-1531
143,1.599315,0,1,-1,1018,-1,-1532
144,1.610498,3,-1,0,1015,0,-1523
145,1.621679,0,-1,1,1016,1,-1534
146,1.632863,-1,1,-1,1022,1,-1531
147,1.644023,2,1,0,1018,-1,-1529
148,1.655204,0,1,0,1019,3,-1529
149,1.666388,-2,-6,0,1017,-1,-1532
150,1.677575,3,-1,1,1020,1,-1529
151,1.688799,2,-1,3,1019,1,-1530
152,1.699988,3,-1,-2,1020,-4,-1531
153,1.711174,-1,0,-1,1018,-2,-1532
154,1.722357,2,2,2,1016,-1,-1534
155,1.733542,0,0,1,1021,2,-1527
156,1.744742,1,0,0,1014,-1,-1531
157,1.755926,2,0,3,1018,-3,-1532
158,1.767115,1,3,-1,1018,0,-1539
159,1.7783,1,1,1,1020,-5,-1527
160,1.789484,1,-1,-1,1020,0,-1528
161,1.800671,0,1,2,1019,0,-1534
162,1.811838,-2,1,4,1021,3,-1532
163,1.823021,1,6,2,1018,-1,-1529
164,1.834206,-1,0,1,1015,1,-1532
165,1.845399,2,0,0,1021,0,-1526
166,1.856582,2,1,1,1020,-4,-1531
167,1.867772,-1,-2,1,1017,1,-1527
168,1.878976,0,2,2,1018,0,-1528
169,1.890161,-1,1,0,1015,-1,-1523
170,1.901353,1,-2,1,1015,-1,-1536
171,1.912545,-1,-2,2,1015,0,-1521
172,1.923735,0,0,0,1018,0,-1530
173,1.934921,2,0,1,1017,-1,-1531
174,1.946106,0,1,2,1015,2,-1529
175,1.957293,0,-1,0,1019,0,-1531
176,1.968482,0,1,1,1021,0,-1521
177,1.979652,0,-1,3,1019,-3,-1526
178,1.990834,-1,-1,0,1019,-3,-1527
179,2.002016,0,2,2,1019,1,-1529
180,2.013198,1,-1,0,1017,1,-1531
181,2.024391,-2,4,-1,1015,2,-1529
182,2.035582,-2,-4,3,1015,0,-1529
183,2.046763,0,2,1,1019,0,-1529
184,2.057944,1,1,0,1019,1,-1529
185,2.069124,0,-1,2,1020,0,-1533
186,2.080316,2,0,0,1019,3,-1526
187,2.091467,0,4,4,1020,0,-1532
188,2.102651,-1,0,1,1020,0,-1529
189,2.113836,0,1,0,1018,-2,-1532
190,2.125016,1,2,0,1019,1,-1533
191,2.136207,0,1,3,1020,2,-1522
192,2.147389,2,-1,1,1017,-3,-1527
193,2.158571,1,-1,1,1015,0,-1528
194,2.169756,0,0,1,1015,1,-1529
195,2.180937,1,-2,1,1018,-1,-1533
196,2.192131,1,-1,2,1017,-1,-1529
197,2.203312,0,1,1,1019,0,-1529
198,2.214495,0,1,-1,1020,-1,-1525
199,2.22569,1,0,1,1017,2,-1531
200,2.236871,0,-1,2,1016,-2,-1526
201,2.248023,1,4,0,1018,3,-1530
202,2.259205,1,0,0,1020,-1,-1533
203,2.270388,2,0,2,1020,-3,-1529
204,2.281573,2,1,1,1020,-3,-1534
205,2.292758,-2,2,0,1021,-2,-1528
206,2.303949,1,-1,1,1020,-3,-1526
207,2.315134,-1,2,2,1023,-1,-1526
208,2.326319,1,2,0,1016,-1,-1530
209,2.337504,3,-1,3,1020,0,-1529
210,2.348688,0,3,-2,1021,0,-1534
211,2.359838,-1,-6,-1,1020,3,-1523
212,2.371023,0,2,0,1018,-2,-1530
213,2.382211,1,1,1,1020,0,-1526
214,2.393403,0,0,1,1020,2,-1528
215,2.404588,0,1,2,1018,0,-1529
216,2.415778,1,-1,2,1021,0,-1528
217,2.426963,0,0,1,1015,0,-1531
218,2.43815,-1,-1,0,1017,-1,-1529
219,2.449336,0,-1,3,1020,-2,-1531
220,2.460528,1,1,1,1015,-1,-1529
221,2.471718,0,1,-1,1011,1,-1529
222,2.482904,-2,3,-1,1021,0,-1529
223,2.494088,1,-2,0,1018,0,-1533
224,2.505278,0,1,0,1021,-3,-1527
225,2.516464,1,1,1,1015,-3,-1530
226,2.527653,1,0,0,1018,-3,-1534
227,2.538842,0,-2,1,1013,0,-1527
228,2.550025,1,1,-1,1018,-2,-1537
229,2.561214,1,-1,1,1019,1,-1524
230,2.572397,1,7,-1,1017,-3,-1531
231,2.583599,0,-1,0,1018,0,-1531
232,2.594796,2,2,0,1018,0,-1532
233,2.605987,1,-1,2,1013,-1,-1535
234,2.617174,0,1,0,1017,0,-1531
235,2.628365,1,2,2,1017,1,-1539
236,2.639554,-2,1,-1,1016,0,-1530
237,2.650739,0,1,1,1021,-4,-1533
238,2.661924,0,-1,0,1016,0,-1537
239,2.673106,2,-1,0,1019,-1,-1539
240,2.684293,1,0,1,1021,4,-1539
241,2.695467,-1,1,2,1020,0,-1529
242,2.706657,1,0,0,1018,1,-1524
243,2.717852,0,0,0,1017,0,-1535
244,2.729037,1,4,-1,1017,2,-1529
245,2.740207,1,-2,2,1018,-2,-1528
246,2.751395,1,-1,1,1019,-3,-1536
247,2.762581,-2,0,1,1018,-1,-1525
248,2.773767,1,3,1,1020,-4,-1529
249,2.78495,-2,-2,1,1020,1,-1532
250,2.796143,-1,1,-1,1018,-3,-1528
251,2.807328,-1,-1,0,1013,0,-1529
252,2.818513,1,0,0,1014,0,-1531
253,2.829695,-2,1,-1,1020,2,-1530
254,2.840878,-2,1,-1,1017,0,-1534
255,2.852022,1,-1,1,1018,-2,-1531
256,2.863209,-1,0,2,1017,1,-1533
257,2.874395,2,0,0,1022,0,-1527
258,2.8856,1,-1,0,1020,2,-1529
259,2.896787,1,1,1,1017,-3,-1526
260,2.907979,-1,0,3,1018,0,-1540
261,2.919169,0,2,0,1022,3,-1531
262,2.930382,0,-1,2,1018,3,-1528
263,2.941658,1,0,2,1020,-4,-1532
264,2.952854,0,2,0,1015,0,-1531
265,2.964023,0,2,1,1021,0,-1535
266,2.975221,-1,-1,0,1016,0,-1534
267,2.986406,0,-1,3,1021,2,-1531
268,2.997595,0,3,4,1021,0,-1529
269,3.008789,0,-1,0,1016,3,-1535
270,3.019975,1,1,1,1018,-1,-1529
271,3.03116,1,2,1,1020,-2,-1527
272,3.04235,1,0,1,1021,0,-1533
273,3.053536,-1,-3,1,1020,0,-1529
274,3.064724,0,-2,2,1018,0,-1533
275,3.075914,-1,0,1,1019,2,-1536
276,3.087098,0,3,1,1022,-1,-1524
277,3.098286,-2,1,0,1021,-1,-1524
278,3.109471,1,0,1,1017,1,-1527
279,3.120658,0,1,-2,1019,-2,-1527
280,3.131837,-1,-2,1,1021,0,-1533
281,3.143031,1,-1,0,1021,1,-1530
282,3.154217,-1,-2,0,1014,-3,-1527
283,3.165401,0,-1,0,1020,0,-1524
284,3.176591,0,0,-1,1021,-2,-1525
285,3.187778,-2,0,0,1018,3,-1532
286,3.198993,0,-2,0,1020,1,-1530
287,3.210249,1,3,2,1019,2,-1535
288,3.221545,0,2,-1,1014,-2,-1523
289,3.232738,-2,3,1,1021,1,-1534
290,3.243969,1,-1,1,1021,3,-1530
291,3.255162,0,2,0,1016,0,-1528
292,3.266354,0,1,1,1018,0,-1532
293,3.277543,0,0,0,1021,-4,-1536
294,3.28873,0,0,0,1021,0,-1533
295,3.299932,1,3,0,1015,-2,-1532
296,3.311121,-2,0,1,1020,-1,-1534
297,3.322317,0,1,-2,1020,0,-1527
298,3.3335,0,-1,-2,1019,0,-1528
299,3.344683,1,2,1,1016,1,-1527
300,3.355839,2,2,2,1017,-2,-1525
301,3.367034,1,-1,-2,1020,0,-1529
302,3.37822,-1,1,-1,1019,1,-1531
303,3.389407,2,-1,0,1016,0,-1529
304,3.400589,0,1,0,1017,-1,-1532
305,3.411783,0,0,1,1021,0,-1530
306,3.422972,1,6,1,1017,-3,-1528
307,3.434156,0,0,1,1018,0,-1536
308,3.445347,1,-1,1,1018,0,-1533
309,3.456542,-1,2,-1,1022,-1,-1530
310,3.467728,-2,2,2,1016,-1,-1530
311,3.478917,-2,0,1,1014,2,-1525
312,3.490101,2,-1,0,1021,0,-1534
313,3.501285,2,0,1,1021,0,-1525
314,3.512472,0,-1,1,1017,-2,-1529
315,3.523654,-2,-1,3,1020,-1,-1533
316,3.534841,2,3,2,1017,3,-1528
317,3.546026,-2,2,0,1014,0,-1532
318,3.557213,-1,-1,2,1021,-1,-1534
319,3.568396,-1,0,0,1019,1,-1528
320,3.579586,0,1,2,1021,-2,-1525
321,3.590773,2,0,1,1018,-4,-1528
322,3.601989,0,0,1,1018,-1,-1526
323,3.613172,2,0,2,1016,-2,-1531
324,3.624359,0,-1,0,1019,-4,-1534
325,3.635542,2,3,-2,1021,3,-1527
326,3.646724,1,0,2,1020,-2,-1523
327,3.657917,1,0,0,1017,-5,-1534
328,3.6691,0,0,1,1018,-2,-1532
329,3.680286,1,1,-1,1021,-3,-1534
330,3.691468,-2,-1,0,1020,-2,-1528
331,3.702655,0,0,2,1019,1,-1532
332,3.713837,-1,0,0,1019,1,-1531
333,3.725024,1,0,1,1017,-1,-1526
334,3.736336,-2,1,0,1015,0,-1532
335,3.747552,1,1,3,1018,0,-1539
336,3.75874,1,0,3,1020,0,-1536
337,3.769925,-2,0,1,1015,0,-1533
338,3.78111,2,2,1,1020,0,-1529
339,3.792293,1,1,0,1019,-1,-1530
340,3.803461,1,-1,1,1019,0,-1528
341,3.814644,0,0,1,1016,0,-1537
342,3.825828,0,1,0,1021,-1,-1536
343,3.837018,0,-1,1,1017,-1,-1535
344,3.848209,2,1,3,1017,-1,-1532
345,3.859393,1,-1,-1,1020,0,-1529
346,3.870579,0,2,3,1015,3,-1528
347,3.881762,1,-2,-3,1020,-3,-1536
348,3.892945,3,-1,-1,1021,2,-1530
349,3.904134,3,7,-1,1021,3,-1532
350,3.915318,5,2,1,1027,-1,-1563
351,3.926499,-5,4,0,1021,-10,-1482
352,3.937682,5,-5,-1,1023,1,-1545
353,3.94889,4,-3,0,1004,2,-1545
354,3.960082,7,-3,2,1003,12,-1539
355,3.97129,5,-5,2,1018,-5,-1536
356,3.98297,-10,5,2,1031,-9,-1521
357,3.99463,2,0,0,1035,2,-1537
358,4.006276,-8,5,1,1015,-1,-1521
359,4.017947,3,2,-2,1009,9,-1535
360,4.029629,9,0,1,1014,-1,-1529
361,4.041276,-6,3,2,1018,-2,-1517
362,4.052964,9,-1,2,1024,-3,-1528
363,4.064635,-6,2,-3,1024,-7,-1524
364,4.076314,-2,0,2,1019,10,-1539
365,4.087902,8,-2,2,1018,2,-1538
366,4.099448,-2,0,0,1013,7,-1533
367,4.110991,7,-2,0,1016,2,-1530
368,4.122545,-3,1,1,1022,-3,-1520
369,4.134089,-3,2,-1,1024,-1,-1530
370,4.145649,-1,1,3,1021,-7,-1525
371,4.157198,-4,0,1,1020,5,-1527
372,4.168809,6,-2,0,1012,-3,-1539
373,4.180449,1,0,-1,1019,-7,-1529
374,4.192157,2,0,0,1014,0,-1535
375,4.203812,3,0,1,1016,-3,-1525
376,4.215509,-5,2,2,1015,-3,-1525
377,4.227173,1,1,1,1017,-1,-1527
378,4.238827,-1,1,2,1015,-1,-1524
379,4.250492,-1,-1,3,1020,2,-1537
380,4.262147,2,0,-1,1022,1,-1530
381,4.273805,-2,1,0,1019,5,-1530
382,4.285481,1,-3,2,1018,0,-1533
383,4.29709,-2,1,2,1019,0,-1532
384,4.308687,0,2,1,1016,0,-1531
385,4.320233,0,-1,0,1013,-2,-1532
386,4.331813,-1,2,3,1017,-1,-1527
387,4.343368,1,2,1,1020,0,-1522
388,4.354935,-1,1,0,1020,1,-1530
389,4.366478,1,0,1,1019,0,-1526
390,4.378031,-1,2,1,1020,-1,-1534
391,4.389672,0,0,1,1016,0,-1532
392,4.401333,1,1,2,1018,1,-1532
393,4.412994,1,0,1,1014,1,-1531
394,4.424676,3,-1,1,1016,1,-1525
395,4.436348,0,1,-1,1021,-4,-1528
396,4.448031,0,0,1,1018,-1,-1529
397,4.459707,2,0,1,1019,0,-1533
398,4.471364,0,2,2,1019,-2,-1530
399,4.483033,3,0,0,1016,2,-1531
400,4.494707,-1,2,2,1015,0,-1526
401,4.506266,0,0,1,1018,-2,-1526
402,4.517819,1,-1,0,1016,-3,-1533
403,4.529413,2,2,-2,1018,-1,-1534
404,4.540973,0,0,1,1014,0,-1526
405,4.552569,0,1,2,1019,0,-1533
406,4.564137,1,1,3,1019,2,-1519
407,4.575688,0,-1,2,1021,-2,-1529
408,4.587263,1,2,1,1013,0,-1535
409,4.598888,0,-2,1,1017,0,-1524
410,4.610584,2,0,1,1022,-2,-1530
411,4.622231,-2,-1,0,1020,-3,-1524
412,4.633881,0,-1,0,1021,0,-1530
413,4.64555,-1,0,1,1016,-5,-1531
414,4.657224,1,0,2,1019,0,-1528
415,4.668906,3,0,0,1015,0,-1527
416,4.680588,2,0,-1,1019,3,-1534
417,4.692278,3,2,2,1021,0,-1533
418,4.703942,-1,-1,0,1016,-5,-1528
419,4.715561,0,0,-1,1020,1,-1531
420,4.727121,1,-1,0,1019,-1,-1534
421,4.738689,0,2,2,1019,-2,-1532
422,4.750247,0,1,0,1019,2,-1526
423,4.761917,0,2,1,1015,-1,-1520
424,4.773481,-1,2,1,1014,2,-1525
425,4.785061,0,1,1,1017,-1,-1534
426,4.796634,-1,0,1,1019,-1,-1536
427,4.808277,-1,0,1,1018,0,-1532
428,4.819955,2,1,1,1015,-2,-1530
429,4.831639,1,-1,-1,1020,-2,-1539
430,4.843288,0,-1,1,1018,-3,-1522
431,4.854966,0,-1,1,1017,0,-1531
432,4.866627,-2,2,-1,1013,-1,-1534
433,4.878273,1,1,1,1012,0,-1531
434,4.889926,-2,-1,2,1017,-1,-1528
435,4.901635,1,0,1,1014,-2,-1532
436,4.913287,-1,2,2,1021,-2,-1530
437,4.924854,1,-1,0,1018,2,-1536
438,4.936426,1,0,1,1016,0,-1534
439,4.947989,0,3,-1,1019,-4,-1526
440,4.95956,1,0,1,1019,1,-1531
441,4.971113,0,1,0,1016,-4,-1530
442,4.982679,-1,2,-2,1021,0,-1532
443,4.994217,0,1,2,1020,0,-1526
444,5.005769,-1,3,4,1021,1,-1540
445,5.017418,1,1,-1,1018,2,-1528
446,5.029073,-1,0,1,1018,3,-1526
447,5.040777,-1,-2,1,1019,0,-1528
448,5.052456,1,-1,2,1020,0,-1532
449,5.064106,-1,-1,1,1021,-1,-1531
450,5.075775,1,-1,1,1021,-1,-1529
451,5.087442,1,0,2,1016,0,-1526
452,5.099103,0,0,2,1021,-4,-1524
453,5.110759,0,1,1,1018,-1,-1538
454,5.122447,0,0,2,1017,-1,-1531
455,5.134046,0,-1,0,1019,1,-1536
456,5.145592,0,1,1,1018,0,-1529
457,5.157154,1,2,1,1018,1,-1525
458,5.168712,0,0,2,1016,0,-1526
459,5.180228,-1,2,2,1018,0,-1530
460,5.191753,1,0,1,1017,3,-1525
461,5.203307,1,0,-1,1018,1,-1538
462,5.214899,-1,1,1,1021,0,-1529
463,5.226557,0,0,0,1014,-2,-1531
464,5.238232,0,1,2,1018,0,-1523
465,5.249881,0,2,3,1019,-5,-1528
466,5.261526,1,0,2,1018,-1,-1527
467,5.2732,-1,0,3,1021,1,-1531
468,5.284859,0,-1,2,1018,3,-1530
469,5.296543,1,0,-1,1017,-1,-1531
470,5.308223,2,0,-1,1022,-1,-1536
471,5.319888,1,-1,0,1019,1,-1530
472,5.331441,-1,1,2,1018,0,-1530
473,5.34303,3,1,2,1020,-4,-1533
474,5.354579,1,1,2,1018,0,-1534
475,5.366157,-1,0,2,1017,-3,-1531
476,5.377703,0,0,0,1015,0,-1529
477,5.389283,1,2,1,1022,-1,-1528
478,5.400841,2,0,0,1017,-4,-1533
479,5.412427,2,1,-2,1018,2,-1529
480,5.424007,-1,1,2,1017,4,-1531
481,5.435673,0,1,2,1018,0,-1533
482,5.447338,1,-2,1,1014,-1,-1525
483,5.458988,-1,-1,0,1019,0,-1534
484,5.470635,-1,0,0,1018,1,-1525
485,5.482281,0,1,2,1018,0,-1529
486,5.493966,1,0,1,1017,-2,-1527
487,5.505615,0,1,2,1021,1,-1533
488,5.517277,0,-1,-1,1017,-3,-1534
489,5.528965,1,0,-1,1019,-2,-1526
490,5.540613,0,-1,1,1021,3,-1535
491,5.552286,0,0,1,1018,-3,-1530
492,5.563963,0,1,0,1021,1,-1533
493,5.575632,1,-2,0,1018,-1,-1533
494,5.587279,0,1,2,1016,1,-1528
495,5.598954,1,0,2,1016,-1,-1531
496,5.610605,0,1,2,1018,-1,-1527
497,5.622293,-1,3,1,1017,1,-1526
498,5.633947,2,2,1,1020,-2,-1528
499,5.645604,1,0,2,1020,2,-1535
500,5.657257,0,0,-2,1017,-1,-1528
501,5.668937,0,-1,-1,1016,-1,-1532
502,5.680596,1,0,0,1016,1,-1530
503,5.692279,0,-1,-1,1020,0,-1528
504,5.703928,0,2,1,1016,3,-1528
505,5.715593,1,0,1,1020,0,-1533
506,5.727273,0,0,2,1013,-1,-1532
507,5.738937,-1,-3,0,1018,-2,-1532
508,5.75059,0,0,0,1018,-2,-1529
509,5.762242,0,0,2,1021,1,-1529
510,5.773895,0,2,0,1019,-1,-1536
511,5.785696,1,1,1,1019,0,-1528
512,5.797352,-1,1,2,1017,1,-1533
513,5.809061,0,1,0,1017,3,-1529
514,5.820719,0,-1,2,1019,5,-1533
515,5.832422,1,2,2,1020,0,-1533
516,5.844107,2,-3,0,1017,-1,-1534
517,5.855681,1,0,0,1019,-2,-1530
518,5.867273,2,0,0,1020,0,-1533
519,5.878822,2,2,2,1018,-2,-1537
520,5.890361,0,-1,0,1019,-1,-1534
521,5.901915,2,-1,1,1019,-4,-1529
522,5.913458,1,2,1,1019,0,-1527
523,5.925003,1,1,1,1016,-3,-1528
524,5.936575,1,1,1,1021,-1,-1534
525,5.948213,0,0,1,1015,1,-1527
526,5.959892,0,1,0,1017,0,-1530
527,5.971583,0,-1,0,1019,2,-1527
528,5.983281,-1,3,-1,1019,4,-1531
529,5.994947,0,-1,0,1016,-1,-1533
530,6.0066,3,2,3,1020,0,-1533
531,6.018253,0,-2,0,1016,-1,-1527
532,6.029917,0,0,2,1018,-3,-1524
533,6.041584,1,1,1,1016,1,-1527
534,6.053249,2,0,1,1022,1,-1530
535,6.064837,0,1,0,1022,-2,-1533
536,6.076415,-1,0,-1,1021,-1,-1532
537,6.087979,-1,0,0,1021,0,-1529
538,6.099505,0,-1,2,1019,0,-1530
539,6.111059,0,-1,1,1014,0,-1526
540,6.122628,1,-1,0,1021,0,-1526
541,6.134174,3,-2,0,1023,-2,-1526
542,6.145765,0,0,-1,1015,-5,-1533
543,6.157418,-1,-1,0,1021,2,-1527
544,6.169083,-1,2,0,1019,0,-1530
545,6.180755,0,1,1,1018,4,-1530
546,6.192482,3,0,2,1019,1,-1534
547,6.204163,0,1,2,1016,4,-1525
548,6.21583,0,0,2,1020,1,-1527
549,6.227507,1,0,1,1019,-2,-1527
550,6.239212,1,1,1,1017,0,-1533
551,6.250885,1,0,1,1019,-3,-1529
552,6.262589,0,0,0,1018,2,-1533
553,6.274163,1,-2,1,1022,0,-1527
554,6.285709,0,0,-2,1018,1,-1527
555,6.297268,2,0,1,1016,-1,-1531
556,6.30884,1,-1,-1,1018,1,-1530
557,6.320412,0,1,1,1017,1,-1535
558,6.331984,1,2,1,1016,1,-1529
559,6.343544,0,2,1,1023,1,-1527
560,6.355111,1,1,0,1019,3,-1526
561,6.366721,0,0,0,1017,1,-1529
562,6.378373,1,-1,0,1017,2,-1535
563,6.390041,0,-1,1,1017,-7,-1528
564,6.401705,0,-2,2,1013,0,-1531
565,6.413357,0,1,1,1016,-3,-1532
566,6.425091,1,-1,1,1019,-4,-1527
567,6.436767,0,0,0,1019,-1,-1532
568,6.448443,-1,-1,3,1017,-2,-1536
569,6.460126,0,0,1,1019,1,-1529
570,6.471777,1,1,-1,1020,0,-1525
571,6.483335,2,-3,0,1016,-1,-1532
572,6.494912,0,1,1,1021,-1,-1532
573,6.506485,0,1,0,1021,0,-1528
574,6.518067,0,0,3,1020,0,-1531
575,6.529656,1,-3,-1,1017,2,-1527
576,6.541201,0,2,0,1022,-1,-1529
577,6.552761,0,1,1,1014,0,-1530
578,6.564359,0,0,0,1021,2,-1530
579,6.576056,0,1,2,1020,-3,-1526
580,6.587764,-1,-1,2,1020,-1,-1525
581,6.599514,2,-1,3,1015,0,-1528
582,6.611233,-1,-1,-2,1020,0,-1531
583,6.622888,1,0,1,1016,-1,-1524
584,6.634559,1,0,1,1018,-2,-1532
585,6.646213,0,-1,2,1018,0,-1528
586,6.65786,1,-1,1,1018,0,-1530
587,6.66951,-1,1,1,1017,-1,-1535
588,6.681058,-1,2,0,1020,0,-1530
589,6.692651,1,2,1,1018,-1,-1531
590,6.704225,0,1,1,1020,-2,-1532
591,6.715747,0,0,-1,1016,-2,-1529
592,6.727294,0,0,1,1019,-3,-1536
593,6.738851,3,-2,-1,1019,4,-1532
594,6.750396,3,-1,1,1021,-1,-1528
595,6.761942,0,1,1,1018,1,-1530
596,6.773505,2,-1,0,1021,0,-1531
597,6.785126,-1,1,0,1018,-6,-1528
598,6.796817,3,-2,2,1020,5,-1535
599,6.808566,2,1,1,1018,0,-1532
600,6.820224,1,1,1,1020,0,-1529
601,6.831902,1,0,0,1019,0,-1534
602,6.8436,-1,1,1,1018,1,-1532
603,6.855245,2,0,0,1015,0,-1533
604,6.866905,1,-2,2,1020,2,-1533
605,6.8786,0,1,1,1018,1,-1533
606,6.890317,-1,0,0,1018,0,-1531
607,6.901904,0,1,0,1020,-4,-1530
608,6.913449,1,1,1,1017,1,-1529
609,6.92499,0,1,-1,1020,-5,-1538
610,6.936544,0,1,0,1019,0,-1526
611,6.948107,2,0,1,1017,0,-1529
612,6.959661,-1,0,0,1020,1,-1526
613,6.971228,0,0,2,1021,3,-1532
614,6.982832,3,0,0,1017,1,-1526
615,6.994465,-1,0,1,1019,0,-1527
616,7.006125,0,1,1,1018,1,-1531
617,7.01777,0,-1,-1,1018,-3,-1529
618,7.02945,-2,4,0,1018,0,-1531
619,7.041106,2,-2,-2,1018,0,-1527
620,7.052787,-1,-2,2,1019,0,-1530
621,7.064461,-1,2,2,1018,1,-1535
622,7.076143,2,1,1,1018,0,-1525
623,7.087769,0,1,2,1019,0,-1530
624,7.099328,1,1,2,1017,1,-1527
625,7.110903,-1,0,0,1014,0,-1527
626,7.12245,1,-1,-1,1019,3,-1533
627,7.13399,0,-1,-2,1019,0,-1534
628,7.145543,1,0,1,1020,-1,-1526
629,7.157093,1,-1,0,1019,0,-1533
630,7.168663,0,0,-2,1021,0,-1529
631,7.180232,1,0,-2,1021,-4,-1529
632,7.191811,0,0,1,1015,0,-1525
633,7.203451,1,0,1,1021,-2,-1527
634,7.215099,2,0,0,1019,-3,-1530
635,7.226749,1,1,0,1023,-1,-1534
636,7.238387,2,0,1,1020,-2,-1538
637,7.250032,0,2,0,1016,-3,-1528
638,7.261725,0,3,3,1019,1,-1528
639,7.273366,-1,2,0,1018,3,-1522
640,7.285052,0,0,-1,1014,0,-1532
641,7.296732,2,0,0,1017,0,-1525
642,7.308413,-2,0,0,1020,-1,-1537
643,7.320004,-2,0,-1,1016,-2,-1526
644,7.331566,-2,0,1,1019,0,-1523
645,7.343153,1,0,-2,1017,1,-1539
646,7.354715,2,1,0,1016,-1,-1526
647,7.366266,-1,0,3,1016,0,-1530
648,7.377813,-1,-1,0,1021,-1,-1526
649,7.38938,1,1,1,1019,-2,-1532
650,7.400962,-1,2,1,1019,0,-1534
651,7.412594,2,1,1,1018,0,-1538
652,7.424282,0,1,2,1017,1,-1531
653,7.435967,0,0,2,1018,-2,-1529
654,7.447649,1,1,1,1018,2,-1527
655,7.459308,-1,0,1,1018,0,-1528
656,7.470964,1,0,2,1021,1,-1527
657,7.482621,2,1,-1,1017,3,-1527
658,7.494264,2,-1,1,1017,0,-1528
659,7.505934,0,0,0,1019,0,-1529
660,7.517585,1,0,0,1015,1,-1533
661,7.529159,0,1,1,1014,0,-1531
662,7.540714,0,-1,1,1018,0,-1528
663,7.552233,0,2,-1,1021,-1,-1526
664,7.56375,-1,-1,2,1019,0,-1528
665,7.575297,1,0,1,1015,0,-1535
666,7.586841,2,2,1,1021,0,-1533
667,7.598385,-1,-1,0,1018,-2,-1531
668,7.609945,1,0,2,1021,2,-1535
669,7.621592,1,1,2,1018,1,-1526
670,7.633243,1,1,2,1018,-1,-1528
671,7.644943,-1,0,2,1019,1,-1530
672,7.656596,1,1,0,1016,1,-1522
673,7.668286,0,0,0,1017,3,-1531
674,7.679956,0,2,1,1019,-1,-1531
675,7.691624,0,1,3,1022,0,-1531
676,7.703287,0,-3,-1,1018,-2,-1530
677,7.714953,3,0,1,1021,0,-1523
678,7.726632,0,-2,1,1021,0,-1527
679,7.738185,1,-1,1,1021,1,-1534
680,7.749737,1,0,-1,1019,0,-1527
681,7.761288,0,-1,0,1021,5,-1530
682,7.772843,-1,1,1,1018,-4,-1531
683,7.784413,-2,1,1,1019,0,-1531
684,7.796015,0,-1,0,1020,-1,-1529
685,7.807573,-1,1,2,1015,-2,-1528
686,7.819149,0,0,1,1018,0,-1526
687,7.830833,1,1,1,1021,0,-1534
688,7.842502,1,2,0,1022,-1,-1533
689,7.854179,2,0,-1,1018,0,-1529
690,7.865832,1,3,2,1021,2,-1534
691,7.877488,1,1,-1,1018,-1,-1529
692,7.889161,-1,-1,1,1020,0,-1532
693,7.900817,1,1,1,1019,0,-1539
694,7.912479,1,0,-1,1018,-2,-1528
695,7.924148,1,-1,2,1017,0,-1528
696,7.935737,1,1,1,1020,0,-1530
697,7.947283,-2,1,1,1018,1,-1534
698,7.958826,2,-1,-2,1020,0,-1536
699,7.970369,0,1,3,1019,1,-1528
700,7.981912,0,0,1,1020,1,-1536
701,7.993503,0,0,3,1018,5,-1530
702,8.005056,1,0,0,1017,-3,-1529
703,8.01664,2,0,-2,1019,-7,-1535
704,8.028251,-1,0,0,1020,0,-1532
705,8.039931,-1,3,0,1015,3,-1527
706,8.051583,3,-1,0,1018,3,-1532
707,8.063236,0,-1,1,1022,1,-1525
708,8.074905,2,0,1,1020,-1,-1528
709,8.086588,2,-1,-1,1018,2,-1523
710,8.098234,1,1,-1,1020,-4,-1529
711,8.109893,1,1,2,1017,1,-1523
712,8.121569,3,1,1,1019,0,-1525
713,8.13323,-1,2,1,1017,0,-1531
714,8.144897,-1,0,1,1020,-1,-1532
715,8.156562,-1,-2,1,1017,1,-1533
716,8.16822,-1,4,4,1016,1,-1535
717,8.17989,-1,-1,-1,1019,1,-1527
718,8.191515,0,0,2,1017,0,-1524
719,8.203189,1,-1,-1,1022,-4,-1526
720,8.214835,1,1,2,1018,0,-1532
721,8.226542,-2,2,2,1017,0,-1531
722,8.23823,-1,0,-1,1021,-1,-1533
723,8.249786,2,2,0,1021,2,-1529
724,8.261358,-1,1,1,1022,0,-1530
725,8.272937,0,0,0,1018,-1,-1526
726,8.28447,2,2,-1,1019,-2,-1533
727,8.295988,1,2,0,1022,-1,-1531
728,8.307543,0,-2,1,1014,-2,-1528
729,8.319098,2,-2,0,1021,-1,-1533
730,8.330684,1,-1,3,1018,-1,-1527
731,8.342366,1,1,3,1019,-1,-1530
732,8.35404,-1,0,1,1019,0,-1533
733,8.365741,0,1,0,1017,-3,-1532
734,8.377417,0,0,3,1018,0,-1530
735,8.389072,1,1,2,1019,-14,-1535
736,8.400726,0,-2,2,1023,-2,-1526
737,8.41242,0,2,0,1020,0,-1530
738,8.424126,-2,1,2,1019,-3,-1535
739,8.436049,1,2,2,1016,0,-1533
740,8.447688,2,-1,1,1019,-1,-1529
741,8.459299,0,2,1,1016,0,-1536
742,8.470877,2,-1,0,1015,-1,-1527
743,8.482446,1,1,1,1014,-2,-1529
744,8.49402,-1,-1,1,1018,4,-1523
745,8.505574,-1,-1,0,1021,-3,-1534
746,8.517146,0,2,3,1019,1,-1532
747,8.528713,1,0,2,1019,0,-1527
748,8.54029,-1,2,1,1018,-4,-1521
749,8.552004,2,0,-2,1020,0,-1532
750,8.563686,0,1,1,1022,-4,-1534
751,8.575346,1,-1,-1,1017,0,-1531
752,8.58699,1,1,1,1015,-5,-1528
753,8.598659,1,-1,1,1020,0,-1529
754,8.610323,1,2,-1,1019,-2,-1530
755,8.621961,1,-1,0,1019,-1,-1530
756,8.633648,2,4,0,1021,4,-1532
757,8.645468,0,-1,0,1016,-2,-1526
758,8.657045,0,2,-1,1019,-3,-1531
759,8.668671,-1,1,0,1021,2,-1530
760,8.680267,-2,3,1,1021,0,-1532
761,8.691831,0,0,0,1017,1,-1531
762,8.703394,3,1,-2,1017,-1,-1529
763,8.714932,-1,0,1,1015,-1,-1530
764,8.726469,0,-2,2,1015,3,-1529
765,8.738048,1,2,2,1018,0,-1532
766,8.749615,1,1,-2,1020,0,-1531
767,8.761272,0,2,2,1018,2,-1537
768,8.772943,-2,1,0,1016,1,-1530
769,8.784609,0,2,0,1018,4,-1531
770,8.796281,2,-1,0,1016,1,-1537
771,8.80796,0,2,-1,1018,-1,-1529
772,8.819647,0,1,0,1018,-2,-1528
773,8.831333,0,0,1,1020,-2,-1533
774,8.843005,4,3,2,1014,0,-1528
775,8.854687,-1,0,0,1019,-2,-1536
776,8.86627,1,0,0,1019,-2,-1535
777,8.877818,1,-2,1,1021,0,-1525
778,8.88937,-1,1,1,1016,-5,-1541
779,8.900945,-1,-2,0,1018,-1,-1531
780,8.912467,0,-1,1,1020,1,-1524
781,8.923975,-1,-2,0,1019,0,-1531
782,8.935509,1,0,1,1016,0,-1529
783,8.947064,1,-1,2,1020,1,-1532
784,8.958695,1,0,2,1020,1,-1528
785,8.970341,1,3,-1,1018,-1,-1525
786,8.981987,0,-1,1,1019,2,-1532
787,8.993647,0,0,-2,1020,-1,-1531
788,9.005304,1,-1,0,1021,-1,-1532
789,9.016957,1,-1,0,1021,-3,-1533
790,9.02861,2,0,1,1017,-3,-1531
791,9.04029,1,1,0,1018,0,-1525
792,9.051969,1,2,0,1019,-1,-1528
793,9.063642,0,1,1,1017,0,-1524
794,9.07525,0,1,1,1017,0,-1529
795,9.086808,1,1,1,1017,0,-1536
796,9.098402,1,1,4,1021,-1,-1526
797,9.109952,1,1,1,1019,3,-1533
798,9.121497,3,0,0,1019,1,-1528
799,9.133043,2,1,0,1016,0,-1531
800,9.144594,1,0,1,1019,1,-1535
801,9.156158,0,1,0,1021,1,-1533
802,9.167782,1,0,0,1018,-2,-1531
803,9.179452,0,0,2,1021,0,-1527
804,9.191109,0,1,1,1021,1,-1533
805,9.202849,1,0,1,1016,1,-1536
806,9.21461,2,-1,-1,1017,0,-1529
807,9.226261,0,1,1,1021,1,-1523
808,9.237915,-2,-1,-1,1017,4,-1530
809,9.249572,0,2,0,1018,3,-1523
810,9.261242,0,2,-1,1017,4,-1534
811,9.272949,1,1,1,1017,-4,-1532
812,9.284537,1,1,0,1019,0,-1521
813,9.296131,1,0,0,1018,-2,-1528
814,9.307682,-1,-1,0,1017,0,-1530
815,9.319241,1,0,0,1017,0,-1530
816,9.33079,0,1,1,1021,0,-1523
817,9.34234,0,2,2,1021,2,-1528
818,9.353891,-2,0,2,1016,-2,-1531
819,9.36547,0,0,0,1017,0,-1534
820,9.377096,0,0,0,1021,1,-1532
821,9.388805,0,-3,-1,1021,1,-1526
822,9.400454,0,0,1,1015,0,-1529
823,9.412103,2,0,-1,1016,2,-1532
824,9.423782,-1,1,2,1024,-1,-1532
825,9.435431,1,1,0,1018,-1,-1537
826,9.447084,-2,2,1,1018,-2,-1529
827,9.458732,1,0,1,1017,-5,-1533
828,9.470458,2,-1,1,1016,-3,-1525
829,9.48212,2,-1,2,1017,-1,-1531
830,9.493679,1,0,0,1021,0,-1537
831,9.505256,0,2,-1,1019,0,-1531
832,9.516827,0,-1,0,1018,0,-1533
833,9.528387,-1,0,1,1018,-1,-1529
834,9.53993,2,-1,1,1019,0,-1528
835,9.551495,2,-1,1,1017,0,-1529
836,9.563044,0,-1,0,1020,1,-1529
837,9.574651,0,1,0,1020,0,-1529
838,9.586297,0,0,2,1016,2,-1532
839,9.597955,3,-1,1,1020,0,-1534
840,9.609599,-1,0,1,1021,-4,-1525
841,9.621245,1,-1,2,1019,-1,-1533
842,9.632936,0,0,0,1017,0,-1536
843,9.644586,2,1,2,1019,0,-1532
844,9.656266,0,-3,1,1022,1,-1532
845,9.667936,0,1,3,1017,-4,-1532
846,9.679598,1,1,1,1021,0,-1533
847,9.691255,0,1,4,1017,-2,-1531
848,9.70282,1,-1,-1,1019,1,-1534
849,9.714384,0,1,1,1018,1,-1531
850,9.72594,0,3,1,1016,0,-1529
851,9.737512,0,1,0,1021,0,-1528
852,9.749065,-1,2,1,1017,-2,-1531
853,9.760637,-1,-3,-1,1016,0,-1530
854,9.772209,1,-1,1,1014,3,-1532
855,9.783758,-1,0,1,1018,0,-1535
856,9.795385,-1,0,0,1021,-3,-1529
857,9.807042,0,-2,2,1021,-3,-1532
858,9.818692,0,1,2,1018,0,-1531
859,9.830342,1,0,-1,1014,1,-1526
860,9.842003,2,0,2,1021,-1,-1527
861,9.853683,1,0,2,1020,1,-1538
862,9.865337,2,-1,-1,1020,-1,-1535
863,9.876983,0,1,0,1016,-2,-1522
864,9.888687,-1,3,0,1019,-4,-1532
865,9.90035,-1,1,0,1013,1,-1527
866,9.911907,1,-3,1,1016,2,-1528
867,9.923459,1,-1,0,1016,-1,-1529
868,9.93501,0,-1,0,1018,0,-1533
869,9.946576,1,-2,0,1019,-1,-1530
870,9.958125,1,0,1,1018,-2,-1530
871,9.969666,0,2,0,1021,0,-1529
872,9.981213,2,1,1,1016,1,-1537
873,9.992781,0,0,1,1018,0,-1530
874,10.004423,0,0,1,1021,-2,-1529
875,10.016086,2,-1,0,1018,3,-1534
876,10.027772,1,-1,1,1018,2,-1525
877,10.039431,2,1,1,1019,0,-1529
878,10.051081,0,1,3,1022,-1,-1529
879,10.062731,0,1,1,1014,0,-1522
880,10.074398,-1,0,-1,1018,-1,-1530
881,10.086056,1,0,2,1017,1,-1535
882,10.097718,3,2,1,1021,-1,-1529
883,10.109368,-1,0,0,1016,-4,-1529
884,10.120949,1,0,1,1014,-2,-1534
885,10.132467,0,0,2,1016,-3,-1527
886,10.143985,1,0,2,1021,-2,-1528
887,10.155503,5,-1,2,1019,2,-1523
888,10.167056,-2,0,0,1020,7,-1533
889,10.178621,2,2,1,1021,-1,-1534
890,10.190166,0,3,0,1016,-3,-1531
891,10.20175,-1,2,1,1016,4,-1528
892,10.213416,1,2,2,1015,3,-1523
893,10.225067,-1,0,1,1018,0,-1526
894,10.236722,2,2,0,1017,3,-1532
895,10.24836,0,0,-1,1019,0,-1527
896,10.260026,0,-1,1,1014,-1,-1531
897,10.271692,1,1,1,1015,-1,-1541
898,10.283335,0,-1,0,1013,-2,-1530
899,10.29498,1,0,2,1020,0,-1530
900,10.306642,1,0,3,1020,1,-1528
901,10.318211,0,-1,1,1021,1,-1528
902,10.329751,-1,2,1,1019,2,-1533
903,10.341298,-1,0,2,1019,1,-1528
904,10.352871,-2,-1,0,1015,-3,-1531
905,10.364437,-1,-2,0,1018,0,-1532
906,10.375999,0,1,4,1021,0,-1527
907,10.387542,0,1,1,1021,3,-1529
908,10.399087,2,0,2,1017,-2,-1532
909,10.410648,-1,1,0,1016,0,-1532
910,10.422266,2,-3,-1,1017,0,-1536
911,10.433929,1,-1,1,1018,0,-1532
912,10.445575,0,0,3,1019,0,-1535
913,10.457227,0,0,1,1018,0,-1525
914,10.46887,-1,0,1,1020,0,-1534
915,10.480545,2,0,0,1018,-1,-1535
916,10.492199,0,-1,0,1016,2,-1534
917,10.503846,0,1,0,1021,2,-1533
918,10.515529,-1,-1,2,1018,3,-1529
919,10.527185,1,2,1,1017,0,-1539
920,10.53883,-1,0,0,1019,0,-1529
921,10.550481,1,1,0,1018,1,-1529
922,10.562118,1,-2,-1,1018,2,-1529
923,10.573759,0,0,3,1021,1,-1533
924,10.585442,-1,-4,-1,1020,0,-1526
925,10.597079,0,1,1,1017,-3,-1531
926,10.608727,2,0,3,1017,-1,-1531
927,10.620449,1,-1,-2,1016,2,-1533
928,10.632102,2,1,1,1020,-1,-1533
929,10.643767,0,-1,-1,1016,0,-1531
930,10.65543,-2,1,0,1021,-2,-1532
931,10.667071,0,1,2,1020,-3,-1526
932,10.678718,-2,0,-1,1015,-7,-1530
933,10.690399,1,1,-1,1016,2,-1530
934,10.702049,2,1,2,1021,-2,-1521
935,10.7137,1,-2,0,1020,0,-1534
936,10.72537,0,1,-1,1021,-2,-1534
937,10.737055,-2,2,2,1012,-4,-1527
938,10.748713,0,0,-1,1018,-2,-1532
939,10.760353,0,-1,0,1017,-1,-1530
940,10.772015,0,0,0,1014,0,-1533
941,10.783683,2,0,1,1015,-2,-1528
942,10.795321,0,-1,3,1019,-4,-1531
943,10.806967,-2,-1,-1,1021,-1,-1526
944,10.818638,0,1,2,1019,0,-1529
945,10.830309,1,2,2,1015,-2,-1530
946,10.841967,3,-2,0,1017,0,-1525
947,10.853526,-1,0,1,1021,0,-1530
948,10.865091,-1,1,0,1016,4,-1528
949,10.876654,2,-1,2,1017,2,-1528
950,10.888249,-1,-3,-1,1019,2,-1533
951,10.8998,0,0,1,1015,2,-1526
952,10.911356,2,0,1,1016,-1,-1527
953,10.922903,0,-2,1,1020,-5,-1527
954,10.934456,-2,0,0,1019,-1,-1537
955,10.946075,0,0,1,1019,-2,-1529
956,10.957747,0,-1,2,1017,0,-1524
957,10.969426,2,1,-2,1022,-4,-1531
958,10.98107,2,-1,0,1021,2,-1526
959,10.992731,2,2,1,1021,-1,-1524
960,11.004415,-2,1,2,1018,2,-1531
961,11.016072,1,-2,2,1018,-2,-1525
962,11.027759,2,1,0,1017,-2,-1533
963,11.03943,0,1,1,1019,-1,-1533
964,11.051116,1,-1,3,1016,0,-1528
965,11.062671,1,1,-1,1018,-8,-1529
966,11.074217,0,0,-1,1017,-2,-1531
967,11.08577,-1,0,-1,1019,-3,-1527
968,11.097339,0,1,1,1020,0,-1526
969,11.108901,1,2,2,1016,0,-1528
970,11.120514,1,0,-1,1019,1,-1525
971,11.13212,0,1,0,1017,3,-1525
972,11.143677,1,0,0,1021,-3,-1538
973,11.155303,-1,0,1,1018,-1,-1528
974,11.166947,0,-1,1,1020,0,-1533
975,11.178593,1,1,1,1021,-2,-1532
976,11.190262,-1,1,0,1021,0,-1528
977,11.201926,0,1,2,1022,0,-1535
978,11.21357,3,0,0,1013,1,-1530
979,11.225219,0,-1,2,1016,-2,-1531
980,11.236876,1,-1,-1,1014,1,-1528
981,11.248554,1,1,2,1020,1,-1535
982,11.260211,-1,3,4,1015,0,-1533
983,11.271896,0,0,1,1017,1,-1533
984,11.283514,0,2,0,1017,-2,-1528
985,11.295164,2,0,1,1018,-4,-1533
986,11.306806,1,0,2,1021,0,-1532
987,11.318476,-1,1,2,1019,0,-1527
988,11.330119,0,0,1,1019,1,-1532
989,11.341776,-2,0,1,1018,-3,-1528
990,11.353454,0,1,0,1019,3,-1533
991,11.365099,2,0,1,1021,0,-1532
992,11.376784,0,0,1,1015,3,-1532
993,11.388442,4,0,0,1017,-1,-1530
994,11.400088,0,1,-2,1017,0,-1534
995,11.411758,0,0,-1,1014,4,-1533
996,11.423437,0,-2,-1,1021,-3,-1530
997,11.435076,-1,1,1,1022,-1,-1535
998,11.446722,2,1,1,1021,0,-1531
999,11.458412,0,0,-1,1016,0,-1527
1000,11.47006,1,1,0,1016,0,-1528
1001,11.481624,-2,1,1,1021,0,-1534
1002,11.49317,2,2,1,1021,-4,-1534
1003,11.504757,-1,1,0,1017,0,-1526
1004,11.516364,1,0,-1,1015,4,-1535
1005,11.527909,2,2,1,1015,1,-1530
1006,11.539457,0,1,1,1014,1,-1534
1007,11.551008,0,1,0,1021,0,-1530
1008,11.562563,0,-1,-1,1018,-1,-1531
1009,11.574188,2,0,1,1021,0,-1524
1010,11.585841,0,2,-1,1017,1,-1531
1011,11.597518,1,0,0,1017,-5,-1535
1012,11.609165,-1,0,2,1018,-1,-1526
1013,11.620807,2,0,2,1019,-1,-1535
1014,11.632466,1,-2,2,1019,-3,-1531
1015,11.644153,0,1,1,1018,-4,-1534
1016,11.655811,1,-2,1,1020,0,-1532
1017,11.667507,0,0,0,1017,-1,-1534
1018,11.679156,1,0,0,1019,0,-1529
1019,11.690761,0,0,1,1019,2,-1534
1020,11.702349,1,1,2,1020,-1,-1525
1021,11.713903,1,0,2,1015,-1,-1533
1022,11.725483,0,2,1,1014,-1,-1530
1023,11.737026,0,2,1,1019,0,-1537
1024,11.748585,0,2,2,1019,0,-1534
1025,11.76014,0,-1,2,1021,6,-1524
1026,11.771758,1,-1,2,1016,0,-1533
1027,11.783377,2,0,1,1021,0,-1528
1028,11.795062,1,0,2,1020,0,-1528
1029,11.806712,0,-1,1,1019,0,-1530
1030,11.818382,1,0,0,1014,1,-1536
1031,11.830034,3,2,2,1016,3,-1530
1032,11.841684,-1,0,1,1017,-5,-1531
1033,11.853329,0,1,0,1019,-1,-1531
1034,11.865004,0,-1,3,1014,0,-1531
1035,11.876681,0,2,1,1015,2,-1534
1036,11.888343,0,0,2,1017,-1,-1527
1037,11.900019,0,0,1,1019,-3,-1524
1038,11.911676,0,-1,0,1018,3,-1532
1039,11.923322,2,1,1,1017,-2,-1529
1040,11.935001,0,-1,0,1016,-1,-1538
1041,11.946655,2,2,1,1016,0,-1531
1042,11.958301,2,1,1,1018,-6,-1527
1043,11.969954,2,0,1,1014,0,-1530
1044,11.981596,2,1,2,1016,-4,-1527
1045,11.99323,2,0,1,1021,0,-1528
1046,12.004782,0,0,0,1021,-1,-1531
1047,12.016362,-1,0,1,1019,1,-1530
1048,12.027913,2,-2,2,1018,1,-1534
1049,12.039495,1,-1,3,1017,-1,-1535
1050,12.051035,-2,-1,2,1017,-3,-1529
1051,12.062618,0,1,1,1018,-1,-1527
1052,12.074158,0,-1,0,1017,0,-1531
1053,12.085719,1,0,1,1015,1,-1529
1054,12.097336,2,1,1,1017,3,-1530
1055,12.108984,0,0,1,1018,-2,-1528
1056,12.120666,0,-1,1,1019,-1,-1527
1057,12.132287,1,-2,-1,1021,-2,-1530
1058,12.143947,1,-1,1,1019,1,-1533
1059,12.155631,1,-1,1,1019,0,-1531
1060,12.16731,-1,1,2,1019,2,-1527
1061,12.178964,1,1,0,1021,2,-1531
1062,12.19064,0,1,-1,1020,-2,-1531
1063,12.202298,0,3,0,1017,-2,-1524
1064,12.21386,1,1,2,1019,-1,-1532
1065,12.225401,1,-1,1,1018,0,-1525
1066,12.236949,3,0,-1,1021,2,-1532
1067,12.248475,-1,1,0,1018,1,-1534
1068,12.259991,-2,1,1,1020,0,-1526
1069,12.271547,2,0,2,1019,-1,-1529
1070,12.283116,1,0,2,1019,2,-1536
1071,12.294667,1,0,1,1019,0,-1533
1072,12.306293,1,-1,0,1018,-2,-1530
1073,12.317931,1,0,3,1018,-4,-1536
1074,12.329581,1,1,2,1020,0,-1531
1075,12.341251,1,2,2,1014,-2,-1532
1076,12.352922,2,0,0,1020,-4,-1532
1077,12.36454,1,0,-1,1019,-4,-1532
1078,12.3762,0,1,3,1020,3,-1536
1079,12.387888,3,1,0,1014,2,-1534
1080,12.399511,0,-1,-1,1021,0,-1538
1081,12.411169,1,-1,2,1021,-2,-1530
1082,12.422814,-1,2,1,1021,-4,-1532
1083,12.434478,-1,1,1,1018,-1,-1525
1084,12.446123,0,2,0,1016,-3,-1527
1085,12.457805,-1,3,2,1023,2,-1542
1086,12.469445,-2,0,1,1018,0,-1533
1087,12.481094,2,-2,-1,1018,0,-1535
1088,12.492784,-2,1,1,1018,1,-1525
1089,12.50449,-1,2,1,1021,-1,-1533
1090,12.51617,2,1,2,1021,2,-1535
1091,12.527822,-1,0,1,1019,-2,-1535
1092,12.539517,1,-1,1,1022,0,-1532
1093,12.551167,-1,0,0,1017,0,-1529
1094,12.562807,0,0,1,1017,-3,-1532
1095,12.574449,1,1,-2,1021,-6,-1527
1096,12.586113,1,-1,1,1020,0,-1535
1097,12.597772,2,-1,1,1016,0,-1529
1098,12.609435,1,-2,1,1019,-7,-1528
1099,12.621093,0,-1,0,1016,0,-1529
1100,12.63278,3,0,0,1021,-4,-1528
1101,12.644443,2,3,0,1016,0,-1528
1102,12.656116,0,0,2,1020,0,-1529
1103,12.667767,2,-1,0,1020,-1,-1526
1104,12.679418,1,-1,1,1021,0,-1533
1105,12.691062,-1,2,0,1021,0,-1527
1106,12.702731,2,0,3,1017,-1,-1532
1107,12.714391,1,0,1,1021,1,-1533
1108,12.726045,-1,-2,2,1019,0,-1528
1109,12.737696,1,1,1,1014,-2,-1533
1110,12.749337,1,1,0,1013,3,-1532
1111,12.760983,-2,1,1,1020,-1,-1532
1112,12.772663,2,-1,0,1021,1,-1533
1113,12.784289,0,1,1,1021,-1,-1525
1114,12.79596,0,2,2,1019,1,-1527
1115,12.807635,2,0,0,1023,0,-1528
1116,12.819318,1,1,2,1015,2,-1531
1117,12.830978,1,-1,3,1018,-2,-1528
1118,12.842628,1,0,1,1020,-3,-1530
1119,12.854278,0,0,0,1020,1,-1528
1120,12.865927,2,2,-1,1020,-1,-1527
1121,12.877566,2,0,0,1016,-1,-1537
1122,12.889209,1,0,3,1018,1,-1525
1123,12.900882,0,-1,0,1021,3,-1528
1124,12.912557,-1,0,1,1020,-2,-1532
1125,12.92424,0,1,0,1019,0,-1533
1126,12.935915,-1,0,2,1019,-2,-1532
1127,12.947564,1,0,1,1021,1,-1527
1128,12.959217,1,0,1,1021,0,-1539
1129,12.970889,0,0,-2,1019,0,-1530
1130,12.982533,0,2,2,1018,-2,-1528
1131,12.994178,0,1,0,1018,0,-1533
1132,13.005823,1,2,2,1014,-3,-1534
1133,13.017491,-1,2,2,1016,-1,-1531
1134,13.029158,-1,0,1,1019,-2,-1522
1135,13.040815,0,1,1,1022,0,-1531
1136,13.052402,0,0,0,1021,1,-1527
1137,13.063982,-1,3,1,1019,-1,-1534
1138,13.075503,0,0,0,1020,-1,-1534
1139,13.087044,0,3,0,1016,-1,-1528
1140,13.098597,0,1,0,1015,1,-1530
1141,13.110141,2,0,0,1017,0,-1528
1142,13.121687,0,2,0,1021,-1,-1526
1143,13.13324,-1,0,2,1017,1,-1525
1144,13.14489,2,-1,2,1021,1,-1529
1145,13.15654,0,-2,2,1020,0,-1536
1146,13.168234,-1,2,0,1019,0,-1531
1147,13.179966,1,0,-1,1016,0,-1523
1148,13.191721,1,0,0,1022,0,-1528
1149,13.20341,0,0,-2,1021,-1,-1534
1150,13.215092,-1,-1,1,1017,0,-1526
1151,13.226774,-1,2,0,1020,-1,-1529
1152,13.238435,0,0,1,1021,-8,-1527
1153,13.250137,-1,0,-1,1017,3,-1532
1154,13.261726,1,1,1,1021,0,-1536
1155,13.273275,0,2,-2,1017,-1,-1523
1156,13.284887,0,1,1,1017,0,-1521
1157,13.29648,-1,-1,0,1015,1,-1529
1158,13.308029,2,1,2,1019,1,-1527
1159,13.31959,0,1,1,1020,-1,-1533
1160,13.331143,1,0,1,1015,-2,-1537
1161,13.342703,-1,0,0,1018,-2,-1528
1162,13.35433,1,0,0,1020,0,-1531
1163,13.365981,2,0,2,1016,-2,-1535
1164,13.37765,1,0,0,1016,1,-1532
1165,13.3893,2,1,-1,1019,1,-1533
1166,13.400959,0,1,0,1021,-1,-1526
1167,13.412638,0,0,2,1016,-2,-1531
1168,13.424292,0,0,2,1019,-3,-1523
1169,13.435951,1,1,0,1018,3,-1527
1170,13.447657,1,-2,2,1019,-1,-1535
1171,13.459319,-2,1,-1,1016,-1,-1528
1172,13.470887,0,2,1,1013,-2,-1523
1173,13.482436,1,1,1,1016,-2,-1534
1174,13.493989,0,1,0,1019,1,-1527
1175,13.505569,0,1,1,1021,-5,-1530
1176,13.517121,0,3,1,1018,1,-1533
1177,13.528784,2,1,0,1016,0,-1532
1178,13.540366,1,0,2,1020,-4,-1531
1179,13.551988,1,-1,0,1017,0,-1525
1180,13.563637,0,-1,1,1017,0,-1528
1181,13.575288,1,0,1,1019,1,-1525
1182,13.586934,2,2,1,1024,-2,-1530
1183,13.598597,0,0,1,1014,0,-1528
1184,13.61026,2,0,1,1016,0,-1530
1185,13.621919,2,2,1,1021,0,-1531
1186,13.633568,-1,-1,0,1019,0,-1531
1187,13.645231,1,-1,1,1018,2,-1531
1188,13.656918,1,1,2,1017,3,-1532
1189,13.668533,0,4,2,1017,0,-1526
1190,13.68011,-1,-1,-1,1021,-1,-1536
1191,13.69166,0,1,1,1020,0,-1525
1192,13.703214,1,1,0,1017,0,-1527
1193,13.714762,-1,-1,1,1017,1,-1532
1194,13.726337,-1,2,1,1015,-2,-1533
1195,13.737885,2,1,2,1014,2,-1531
1196,13.749462,1,0,1,1016,-2,-1532
1197,13.761074,1,0,2,1018,1,-1527
1198,13.772787,1,-1,1,1017,-2,-1524
1199,13.784455,-1,0,-2,1021,-1,-1536
1200,13.796149,1,0,1,1015,1,-1530
1201,13.807822,0,1,-1,1017,-5,-1526
1202,13.81949,1,0,1,1022,0,-1533
1203,13.831157,2,1,0,1022,0,-1528
1204,13.84281,-1,0,0,1022,-2,-1533
1205,13.85446,1,2,-1,1020,-2,-1527
1206,13.866106,-1,0,0,1017,0,-1526
1207,13.877662,1,0,-1,1018,0,-1527
1208,13.889215,0,2,-1,1020,0,-1530
1209,13.900802,-2,1,0,1017,1,-1527
1210,13.912366,1,0,-1,1017,3,-1530
1211,13.923981,0,0,2,1022,-1,-1532
1212,13.935504,0,1,2,1020,0,-1531
1213,13.947093,-1,-1,0,1018,-1,-1527
1214,13.958645,1,-2,0,1016,0,-1535
1215,13.970281,-2,0,0,1018,-3,-1530
1216,13.981944,0,0,1,1016,-2,-1531
1217,13.993613,2,1,1,1015,1,-1526
1218,14.005272,-2,1,1,1018,-2,-1532
1219,14.016956,-1,1,2,1018,0,-1529
1220,14.028627,-1,1,2,1020,2,-1536
1221,14.040296,0,1,-1,1018,-3,-1526
1222,14.05196,2,1,0,1021,-1,-1530
1223,14.063699,-1,1,2,1021,1,-1536
1224,14.075402,-1,0,0,1020,0,-1528
1225,14.086984,1,1,2,1017,0,-1530
1226,14.098553,2,0,3,1017,-3,-1522
1227,14.110101,1,0,1,1019,0,-1532
1228,14.121651,2,1,-1,1019,0,-1532
1229,14.1332,1,0,0,1018,-3,-1530
1230,14.144755,3,-1,2,1019,0,-1531
1231,14.156306,1,0,1,1021,-3,-1527
1232,14.167887,0,-1,1,1018,-4,-1531
1233,14.179516,-1,-2,2,1020,1,-1528
1234,14.191174,0,1,1,1020,2,-1533
1235,14.202836,1,-1,4,1016,1,-1531
1236,14.214486,-2,2,1,1017,1,-1527
1237,14.226142,3,2,0,1017,0,-1526
1238,14.237794,0,0,3,1014,0,-1529
1239,14.249436,1,-3,1,1016,0,-1533
1240,14.261084,1,1,0,1019,0,-1537
1241,14.2728,1,1,1,1018,0,-1530
1242,14.284465,0,0,0,1019,0,-1533
1243,14.296027,1,-1,1,1016,-1,-1527
1244,14.307582,0,1,1,1019,2,-1528
1245,14.31914,0,-1,1,1020,0,-1527
1246,14.330716,1,1,1,1015,-1,-1531
1247,14.342262,0,0,3,1020,-3,-1528
1248,14.353808,-2,0,0,1021,1,-1537
1249,14.365358,0,1,0,1020,0,-1525
1250,14.376943,0,4,1,1017,1,-1531
1251,14.388553,-1,-1,2,1018,0,-1531
1252,14.400219,0,0,0,1016,0,-1532
1253,14.411902,0,0,2,1018,1,-1533
1254,14.423556,0,0,1,1021,-2,-1534
1255,14.43521,-1,0,-1,1018,-1,-1530
1256,14.446887,0,0,-1,1018,-3,-1528
1257,14.458535,0,-1,2,1021,1,-1528
1258,14.470185,-1,-1,1,1018,0,-1536
1259,14.48185,-1,1,1,1020,-2,-1533
1260,14.493467,1,-1,0,1016,-3,-1522
1261,14.505028,1,-1,0,1018,-3,-1531
1262,14.516597,1,-2,-1,1020,5,-1530
1263,14.528153,-2,0,2,1020,1,-1526
1264,14.539736,-1,0,1,1019,0,-1533
1265,14.551281,0,0,0,1019,-1,-1535
1266,14.562841,-1,0,1,1019,-7,-1531
1267,14.574398,2,0,3,1018,0,-1535
1268,14.58597,0,0,2,1017,-1,-1535
1269,14.597592,0,1,1,1019,0,-1525
1270,14.609261,1,-1,1,1016,-4,-1533
1271,14.620934,0,4,-1,1017,0,-1532
1272,14.632617,-1,0,1,1021,-3,-1523
1273,14.644309,0,3,1,1016,-2,-1525
1274,14.655959,0,1,0,1018,0,-1532
1275,14.667641,0,0,0,1017,-2,-1529
1276,14.679289,0,0,1,1018,-1,-1528
1277,14.690952,0,-1,0,1019,-1,-1527
1278,14.702612,1,1,0,1022,1,-1533
1279,14.714168,0,1,0,1019,-3,-1526
1280,14.725721,0,0,2,1016,-2,-1532
1281,14.737274,1,2,1,1019,1,-1527
1282,14.748844,-2,1,2,1018,1,-1528
1283,14.760438,-1,-1,2,1017,-1,-1534
1284,14.771999,-1,1,1,1014,5,-1528
1285,14.783585,2,2,0,1018,2,-1528
1286,14.795139,1,-2,1,1021,0,-1527
1287,14.806768,1,1,3,1023,-2,-1532
1288,14.818417,1,0,-1,1018,0,-1525
1289,14.830074,0,0,2,1020,-2,-1531
1290,14.841728,1,1,0,1018,0,-1528
1291,14.853425,-1,0,1,1018,-2,-1525
1292,14.865095,1,0,2,1017,-2,-1537
1293,14.876778,2,-1,1,1020,5,-1531
1294,14.888449,1,1,0,1016,-3,-1533
1295,14.900159,2,2,-1,1016,-1,-1528
1296,14.911816,-1,1,-2,1020,0,-1526
1297,14.923374,1,-3,3,1019,-1,-1532
1298,14.934922,0,1,-2,1018,0,-1533
1299,14.946478,1,1,0,1021,-4,-1525
1300,14.95806,0,1,1,1018,-3,-1525
1301,14.969608,1,-1,1,1020,3,-1536
1302,14.981186,1,2,0,1016,-4,-1527
1303,14.992714,0,1,-1,1015,0,-1528
1304,15.004289,0,1,2,1015,0,-1530
1305,15.015945,-1,-1,1,1021,0,-1522
1306,15.027634,-1,1,0,1017,-2,-1528
1307,15.039286,0,2,1,1018,0,-1530
1308,15.050943,0,0,1,1020,0,-1530
1309,15.062601,0,1,-1,1021,-1,-1524
1310,15.074257,0,-1,1,1019,1,-1529
1311,15.085909,0,1,2,1020,0,-1529
1312,15.097683,2,1,2,1020,0,-1529
1313,15.109414,3,0,0,1018,-1,-1529
1314,15.121073,1,1,0,1020,0,-1535
1315,15.132782,-1,0,1,1021,-1,-1531
1316,15.14444,-2,3,3,1017,-2,-1535
1317,15.156088,-1,0,1,1020,3,-1529
1318,15.167769,1,1,1,1014,0,-1532
1319,15.179419,1,-1,2,1019,0,-1537
1320,15.191075,1,0,1,1021,0,-1534
1321,15.202795,2,1,2,1020,0,-1530
1322,15.214592,1,0,1,1020,-3,-1528
1323,15.226192,0,2,0,1018,2,-1529
1324,15.237755,2,1,0,1020,-3,-1523
1325,15.24933,1,1,1,1015,5,-1536
1326,15.260885,1,1,0,1015,-2,-1530
1327,15.272472,1,0,0,1018,0,-1526
1328,15.283984,-2,0,1,1019,-1,-1531
1329,15.295542,0,-1,1,1019,1,-1518
1330,15.307095,0,1,0,1020,0,-1529
1331,15.318652,2,0,3,1017,1,-1536
1332,15.330354,-1,2,3,1021,-5,-1533
1333,15.342026,1,1,0,1019,1,-1529
1334,15.353684,0,-1,0,1018,0,-1527
1335,15.365335,-2,0,1,1016,-1,-1530
1336,15.377004,1,1,-1,1019,2,-1533
1337,15.388731,0,1,0,1016,3,-1524
1338,15.40041,0,1,-1,1021,3,-1533
1339,15.412085,0,-1,1,1016,0,-1537
1340,15.42379,-1,2,0,1017,0,-1522
1341,15.435509,1,-1,0,1016,-2,-1524
1342,15.447085,2,-1,1,1020,0,-1534
1343,15.458627,1,-1,1,1013,1,-1529
1344,15.470172,0,-1,-1,1016,-2,-1530
1345,15.481721,-1,-1,3,1021,2,-1534
1346,15.493274,1,0,0,1023,3,-1526
1347,15.504875,0,0,2,1017,1,-1535
1348,15.516483,0,1,3,1019,0,-1531
1349,15.528087,-2,1,2,1011,0,-1529
1350,15.539716,1,-1,0,1019,0,-1530
1351,15.551385,1,2,0,1017,-2,-1526
1352,15.563034,1,-1,-1,1017,2,-1528
1353,15.574685,1,-1,2,1018,0,-1529
1354,15.586351,0,0,2,1017,-1,-1527
1355,15.598019,1,1,1,1016,-1,-1530
1356,15.609657,1,3,1,1017,2,-1529
1357,15.62131,1,0,0,1020,1,-1533
1358,15.633019,-1,-1,0,1017,1,-1534
1359,15.644687,1,0,0,1016,-1,-1528
1360,15.656247,0,0,2,1016,-2,-1532
1361,15.667809,1,0,3,1018,3,-1532
1362,15.679369,0,3,1,1016,-4,-1528
1363,15.690966,-1,1,2,1019,0,-1530
1364,15.70252,0,-1,0,1018,-4,-1532
1365,15.71408,-2,0,1,1017,0,-1531
1366,15.725624,1,-1,0,1019,1,-1539
1367,15.737187,0,1,3,1015,1,-1523
1368,15.748783,0,2,0,1017,0,-1529
1369,15.760471,3,-1,1,1020,0,-1529
1370,15.77215,0,1,1,1019,0,-1532
1371,15.783815,2,-1,-1,1019,-1,-1534
1372,15.795497,-1,1,0,1021,-2,-1529
1373,15.807153,1,-1,2,1020,1,-1532
1374,15.818805,0,-1,1,1017,0,-1533
1375,15.830453,-1,2,0,1020,-2,-1528
1376,15.842117,-1,0,0,1016,4,-1524
1377,15.853776,1,3,2,1018,1,-1528
1378,15.865334,0,-1,1,1021,-1,-1526
1379,15.87696,0,-1,-1,1021,-4,-1526
1380,15.888518,1,0,1,1022,6,-1525
1381,15.900079,1,1,0,1016,1,-1530
1382,15.911639,1,1,0,1017,-2,-1530
1383,15.923184,1,-2,3,1019,-2,-1530
1384,15.934731,0,1,1,1016,1,-1536
1385,15.946287,0,-1,0,1020,0,-1527
1386,15.957908,2,0,2,1015,3,-1533
1387,15.969562,-1,0,3,1017,0,-1523
1388,15.981259,-1,-1,0,1016,-2,-1523
1389,15.992921,2,0,1,1019,1,-1526
1390,16.004542,-1,3,1,1017,-3,-1530
1391,16.016206,1,1,0,1021,3,-1527
1392,16.02791,0,1,1,1021,1,-1535
1393,16.03958,1,-1,-1,1016,0,-1532
1394,16.051253,1,-3,1,1017,2,-1524
1395,16.062918,0,0,1,1020,0,-1541
1396,16.074484,1,0,0,1020,2,-1530
1397,16.086066,0,0,3,1018,4,-1533
1398,16.097619,2,1,0,1016,0,-1526
1399,16.10921,0,0,2,1019,-1,-1528
1400,16.120766,2,0,-1,1016,-3,-1536
1401,16.132356,1,0,0,1019,0,-1528
1402,16.143904,0,0,-1,1015,1,-1532
1403,16.155465,1,2,0,1018,-3,-1537
1404,16.167111,2,0,1,1016,0,-1528
1405,16.178776,0,0,2,1016,5,-1527
1406,16.190435,-1,3,-2,1018,-1,-1526
1407,16.202101,1,0,2,1019,1,-1526
1408,16.213761,2,2,-1,1018,1,-1531
1409,16.225434,1,2,2,1026,-1,-1527
1410,16.237107,1,0,1,1019,1,-1527
1411,16.248816,0,2,0,1019,-3,-1533
1412,16.260488,0,2,2,1017,-1,-1527
1413,16.272041,1,0,-1,1020,1,-1538
1414,16.283613,-1,-1,-1,1020,0,-1537
1415,16.295208,0,0,2,1019,-1,-1534
1416,16.306758,0,1,-1,1021,0,-1530
1417,16.318321,-1,0,0,1018,-2,-1534
1418,16.329862,-1,1,1,1021,0,-1530
1419,16.341412,3,-1,3,1015,-4,-1535
1420,16.352965,-2,2,2,1018,-1,-1527
1421,16.36455,0,-1,1,1017,0,-1531
1422,16.376178,1,0,1,1017,-1,-1535
1423,16.387883,-1,2,0,1016,0,-1525
1424,16.399517,1,1,-1,1019,-4,-1535
1425,16.411192,0,1,2,1016,0,-1533
1426,16.422908,-1,-1,1,1014,0,-1521
1427,16.434591,1,0,-1,1017,1,-1529
1428,16.446262,2,0,0,1020,1,-1530
1429,16.457919,0,1,2,1021,-4,-1527
1430,16.469587,0,-1,0,1021,-2,-1535
1431,16.481279,2,0,0,1020,0,-1526
1432,16.49288,0,0,0,1020,0,-1531
1433,16.504469,0,1,5,1016,-2,-1529
1434,16.515993,0,-1,0,1021,0,-1528
1435,16.527561,2,0,1,1017,0,-1534
1436,16.539114,-1,0,0,1017,0,-1534
1437,16.550705,0,0,3,1019,0,-1524
1438,16.562262,2,-1,2,1021,-1,-1527
1439,16.57389,1,0,0,1019,-2,-1530
1440,16.58552,2,-3,-1,1020,0,-1533
1441,16.597209,-1,0,-1,1018,-3,-1526
1442,16.608871,1,2,-1,1020,0,-1528
1443,16.620565,1,0,3,1018,-2,-1526
1444,16.632229,1,-1,1,1016,0,-1531
1445,16.643903,0,1,0,1020,0,-1524
1446,16.655552,-2,0,3,1021,0,-1526
1447,16.667199,1,-1,2,1018,0,-1531
1448,16.678886,0,1,0,1020,0,-1532
1449,16.690532,2,-1,-1,1019,0,-1534
1450,16.702179,1,0,2,1017,-2,-1533
1451,16.713849,-1,-2,1,1026,-3,-1529
1452,16.725497,0,0,-1,1018,-2,-1532
1453,16.737147,1,0,-1,1017,0,-1526
1454,16.748801,2,1,3,1020,2,-1523
1455,16.760472,0,1,1,1019,-4,-1529
1456,16.772153,-1,2,1,1020,0,-1531
1457,16.783773,2,1,1,1018,5,-1528
1458,16.795423,2,-1,2,1018,0,-1530
1459,16.807064,-1,-1,-1,1019,-2,-1528
1460,16.818718,1,1,0,1017,0,-1526
1461,16.830384,0,1,1,1020,-2,-1537
1462,16.842023,-2,1,2,1017,2,-1534
1463,16.853665,1,1,-1,1017,0,-1538
1464,16.865345,0,1,1,1017,3,-1529
1465,16.877,1,-1,0,1019,0,-1532
1466,16.88867,1,-1,1,1017,-3,-1532
1467,16.900231,0,0,1,1021,0,-1533
1468,16.911812,0,2,-1,1020,3,-1533
1469,16.923357,1,0,1,1019,-2,-1527
1470,16.934936,0,1,2,1017,0,-1532
1471,16.946476,-2,1,1,1018,2,-1528
1472,16.958014,-1,-3,3,1020,-1,-1531
1473,16.969559,-1,-2,1,1021,5,-1525
1474,16.981122,1,0,1,1020,-2,-1532
1475,16.992764,0,1,1,1019,-1,-1527
1476,17.004431,2,0,-1,1019,0,-1531
1477,17.016106,0,0,-1,1017,-3,-1527
1478,17.027768,-1,0,2,1021,0,-1534
1479,17.039413,2,0,1,1020,0,-1526
1480,17.051095,2,3,0,1020,2,-1532
1481,17.062747,0,1,0,1017,3,-1530
1482,17.074395,2,0,1,1021,-2,-1524
1483,17.086054,2,0,1,1017,0,-1528
1484,17.097736,1,-1,-1,1018,-1,-1531
1485,17.109323,1,0,-1,1019,-2,-1530
1486,17.120878,1,-1,2,1021,5,-1525
1487,17.132468,-1,1,0,1018,-2,-1532
1488,17.14406,2,1,0,1020,-1,-1527
1489,17.155628,1,-1,-1,1017,0,-1532
1490,17.167178,-2,1,1,1018,-1,-1533
1491,17.17873,2,1,1,1018,2,-1532
1492,17.190294,-1,1,2,1015,-2,-1531
1493,17.201924,-2,1,-1,1016,0,-1530
1494,17.213625,1,1,1,1013,0,-1533
1495,17.225287,2,-1,0,1019,0,-1525
1496,17.237017,0,1,1,1020,0,-1538
1497,17.248691,2,0,1,1016,0,-1533
1498,17.260355,0,0,0,1019,0,-1527
1499,17.272031,0,-1,1,1019,0,-1534
1500,17.283701,2,2,1,1020,2,-1533
1501,17.295379,1,1,2,1019,-2,-1526
1502,17.307069,1,1,0,1020,-3,-1533
1503,17.318626,-1,0,-1,1021,0,-1530
1504,17.33019,0,-1,1,1019,-3,-1541
1505,17.341735,1,0,0,1021,2,-1530
1506,17.353314,0,-1,0,1014,2,-1529
1507,17.364869,1,-2,4,1018,-3,-1530
1508,17.376419,0,0,2,1016,0,-1525
1509,17.387978,-2,0,2,1022,-2,-1521
1510,17.399518,0,1,2,1015,0,-1526
1511,17.411139,1,1,1,1018,0,-1526
1512,17.422788,0,-1,1,1016,0,-1535
1513,17.434435,-1,0,1,1017,0,-1527
1514,17.446085,0,0,1,1016,2,-1528
1515,17.457762,0,0,1,1018,2,-1528
1516,17.469406,0,-1,1,1022,1,-1529
1517,17.481055,1,0,0,1016,0,-1532
1518,17.492721,0,-1,0,1018,-1,-1535
1519,17.504424,-1,0,2,1014,0,-1533
1520,17.516103,1,0,-1,1018,0,-1528
1521,17.527675,-1,0,1,1018,-2,-1531
1522,17.539231,-1,2,-1,1021,-3,-1529
1523,17.550802,0,1,-3,1023,0,-1525
1524,17.562361,0,2,1,1018,-1,-1528
1525,17.573935,2,1,0,1019,0,-1537
1526,17.585487,1,-2,1,1014,0,-1532
1527,17.597063,-1,1,1,1022,0,-1535
1528,17.608655,2,-2,-1,1020,-4,-1531
1529,17.620287,0,0,0,1015,1,-1530
1530,17.631971,0,2,0,1020,1,-1529
1531,17.643646,1,0,0,1017,-1,-1525
1532,17.655293,1,-1,0,1017,0,-1536
1533,17.666941,2,1,1,1019,1,-1528
1534,17.678609,0,1,-1,1018,-2,-1526
1535,17.690255,1,1,3,1018,1,-1524
1536,17.701902,-2,0,1,1017,0,-1532
1537,17.713582,-1,1,0,1014,-2,-1529
1538,17.725263,2,1,0,1020,-3,-1530
1539,17.736932,1,3,2,1017,-2,-1531
1540,17.748605,-1,-2,2,1020,0,-1527
1541,17.760268,3,1,2,1021,-4,-1528
1542,17.771927,-1,-1,2,1013,1,-1526
1543,17.783628,0,1,2,1018,-2,-1526
1544,17.795269,3,1,1,1020,-16,-1524
1545,17.806915,0,-1,2,1018,2,-1528
1546,17.818649,0,-1,0,1017,-4,-1528
1547,17.830308,0,-2,0,1018,1,-1532
1548,17.84186,-1,2,1,1017,0,-1537
1549,17.85343,1,-1,1,1017,0,-1533
1550,17.864971,1,2,1,1023,-4,-1528
1551,17.876517,-1,-4,-1,1016,0,-1527
1552,17.888067,-1,1,1,1019,-3,-1534
1553,17.899625,0,0,1,1019,-1,-1533
1554,17.911185,0,1,2,1015,0,-1536
1555,17.922736,-1,1,0,1015,-6,-1533
1556,17.934369,-1,-1,-2,1018,0,-1532
1557,17.946015,-1,0,2,1019,0,-1533
1558,17.957659,2,0,0,1021,-5,-1532
1559,17.969338,1,1,-1,1018,-2,-1530
1560,17.980988,-1,0,0,1015,1,-1532
1561,17.99266,-1,1,0,1021,-1,-1530
1562,18.00429,0,-2,1,1021,-1,-1529
1563,18.015961,0,-1,2,1015,2,-1532
1564,18.027654,0,-3,2,1016,0,-1529
1565,18.039327,-1,0,1,1017,-3,-1531
1566,18.05098,2,3,1,1019,-1,-1530
1567,18.062641,2,0,2,1015,-3,-1525
1568,18.074363,1,1,1,1019,0,-1531
1569,18.086014,0,-1,0,1013,-3,-1530
1570,18.097694,-1,0,1,1019,-2,-1530
1571,18.109352,-1,0,1,1021,1,-1530
1572,18.121034,0,1,2,1021,-1,-1523
1573,18.132714,-1,0,3,1017,4,-1529
1574,18.14442,0,-1,3,1019,-1,-1528
1575,18.155992,1,1,2,1019,-1,-1530
1576,18.167553,1,0,3,1017,-4,-1527
1577,18.181232,-1,-1,0,1019,0,-1530
1578,18.192833,1,2,0,1014,-3,-1525
1579,18.204385,1,1,1,1017,-1,-1529
1580,18.215931,-1,2,2,1022,0,-1523
1581,18.227494,0,-1,2,1020,-3,-1526
1582,18.239072,-2,-2,-1,1019,0,-1534
1583,18.250672,0,-1,1,1020,-3,-1533
1584,18.262224,1,-2,1,1018,1,-1531
1585,18.273806,2,3,-1,1021,0,-1529
1586,18.285345,0,1,2,1020,0,-1535
1587,18.296896,0,-2,2,1015,0,-1530
1588,18.308462,0,0,0,1020,-1,-1529
1589,18.319987,0,-1,0,1020,-2,-1524
1590,18.331544,3,-1,3,1019,-2,-1534
1591,18.343215,-1,1,3,1017,1,-1534
1592,18.354864,1,1,2,1021,2,-1524
1593,18.366527,1,1,0,1018,1,-1531
1594,18.378177,0,-3,0,1020,0,-1533
1595,18.389838,2,-1,1,1017,4,-1524
1596,18.4015,1,2,0,1021,0,-1533
1597,18.41316,2,-1,1,1019,-1,-1538
1598,18.42481,1,1,0,1016,2,-1532
1599,18.436466,2,0,1,1018,0,-1525
1600,18.448173,1,1,1,1018,1,-1529
1601,18.459856,1,0,0,1021,-2,-1531
1602,18.471448,0,-1,1,1021,2,-1535
1603,18.482993,0,1,1,1017,-2,-1525
1604,18.494553,1,2,0,1017,-2,-1539
1605,18.506099,1,0,-1,1020,-2,-1529
1606,18.517649,-1,-1,0,1019,-3,-1530
1607,18.529191,0,1,-1,1020,-2,-1532
1608,18.540714,0,-1,1,1018,0,-1536
1609,18.552304,0,0,0,1015,1,-1529
1610,18.563944,1,2,0,1018,-4,-1531
1611,18.575637,-1,0,2,1017,0,-1532
1612,18.587283,0,0,-1,1020,0,-1530
1613,18.59893,1,0,0,1020,-3,-1525
1614,18.6106,2,-2,0,1021,0,-1531
1615,18.622244,1,0,-1,1020,0,-1533
1616,18.633887,-1,0,-1,1018,0,-1529
1617,18.645532,0,1,1,1022,0,-1529
1618,18.657221,1,-2,1,1018,2,-1532
1619,18.668875,0,0,0,1018,2,-1524
1620,18.680537,1,0,0,1016,0,-1529
1621,18.692195,2,0,1,1020,0,-1532
1622,18.703889,-1,1,1,1017,-2,-1528
1623,18.715536,0,-1,0,1018,-4,-1536
1624,18.727184,2,1,1,1021,-1,-1532
1625,18.73885,0,1,1,1017,0,-1529
1626,18.750494,-1,0,1,1018,2,-1528
1627,18.762169,-1,1,2,1019,-4,-1534
1628,18.773837,1,-2,0,1015,0,-1532
1629,18.785486,1,1,0,1017,-1,-1530
1630,18.797136,0,0,3,1017,0,-1528
1631,18.808821,1,2,-1,1021,2,-1533
1632,18.820481,0,0,1,1018,-1,-1531
1633,18.832145,-1,1,2,1021,-1,-1525
1634,18.8438,0,-1,2,1021,4,-1533
1635,18.85549,0,0,3,1021,-1,-1536
1636,18.867147,0,3,1,1020,-1,-1531
1637,18.87882,1,2,-2,1019,-2,-1532
1638,18.890373,1,1,1,1018,-2,-1525
1639,18.901926,-1,1,1,1023,-3,-1530
1640,18.913481,1,-1,2,1021,-1,-1530
1641,18.925057,0,2,2,1016,0,-1529
1642,18.936617,0,-1,1,1021,0,-1531
1643,18.948175,0,0,0,1020,2,-1532
1644,18.959741,1,-1,0,1017,0,-1529
1645,18.971309,1,0,0,1018,-2,-1529
1646,18.983003,-1,2,1,1017,0,-1530
1647,18.994676,0,1,1,1016,0,-1533
1648,19.006332,1,1,0,1021,2,-1535
1649,19.017979,1,0,0,1017,-3,-1527
1650,19.029629,-1,-1,2,1020,0,-1529
1651,19.041271,0,0,0,1020,-1,-1533
1652,19.052928,-1,2,0,1017,-1,-1526
1653,19.064598,-2,2,1,1022,2,-1525
1654,19.07628,-2,2,1,1018,0,-1530
1655,19.087967,0,2,0,1015,0,-1530
1656,19.099632,-1,-3,-1,1017,0,-1531
1657,19.111293,2,0,2,1021,-5,-1529
1658,19.122937,0,0,-1,1021,-2,-1528
1659,19.134595,0,1,1,1016,-1,-1528
1660,19.146244,0,0,-2,1019,1,-1529
1661,19.157881,-1,-1,1,1020,-2,-1527
1662,19.169533,0,0,0,1016,-3,-1525
1663,19.181256,1,-2,2,1021,0,-1529
1664,19.19297,0,0,0,1020,1,-1536
1665,19.20455,1,0,0,1018,0,-1531
1666,19.216138,0,0,0,1016,0,-1533
1667,19.227687,0,0,2,1021,0,-1531
1668,19.239267,2,1,0,1018,-2,-1523
1669,19.250819,-1,0,1,1019,-3,-1531
1670,19.262364,0,1,1,1015,-1,-1527
1671,19.273914,0,1,1,1020,-2,-1535
1672,19.285478,1,-3,0,1017,2,-1529
1673,19.297109,1,-1,1,1019,1,-1530
1674,19.308836,-1,2,0,1019,0,-1530
1675,19.320525,1,1,1,1013,0,-1531
1676,19.332189,-1,0,0,1022,1,-1532
1677,19.343885,-1,1,0,1017,0,-1531
1678,19.355563,0,-2,3,1019,2,-1529
1679,19.367217,0,0,3,1021,2,-1529
1680,19.37887,-1,0,1,1022,-1,-1526
1681,19.39054,1,0,1,1015,2,-1531
1682,19.402204,1,-1,0,1021,3,-1530
1683,19.413798,-1,2,-1,1019,-1,-1532
1684,19.425354,0,1,0,1021,0,-1532
1685,19.43691,1,-1,-1,1019,0,-1528
1686,19.448475,0,0,1,1014,2,-1532
1687,19.460056,0,1,-1,1019,0,-1531
1688,19.471626,1,1,0,1014,0,-1528
1689,19.483176,0,-2,1,1018,-1,-1532
1690,19.494733,1,0,2,1019,-1,-1533
1691,19.506364,-1,0,2,1020,0,-1531
1692,19.518012,2,-2,-1,1016,-1,-1531
1693,19.529664,-1,0,2,1015,-1,-1532
1694,19.541334,0,0,1,1018,0,-1526
1695,19.552985,0,0,1,1016,-3,-1530
1696,19.564663,1,2,2,1018,0,-1527
1697,19.576348,0,1,2,1016,-2,-1528
1698,19.588038,-1,1,-1,1018,-2,-1536
1699,19.599714,0,0,-2,1019,1,-1530
1700,19.611367,1,0,1,1017,1,-1526
1701,19.622931,-1,1,1,1020,0,-1531
1702,19.634489,1,0,2,1019,1,-1532
1703,19.646048,0,1,1,1018,3,-1532
1704,19.657597,0,1,2,1018,1,-1527
1705,19.669151,-1,-1,1,1020,-4,-1528
1706,19.680719,-1,1,1,1014,-1,-1531
1707,19.692292,0,-1,2,1018,-2,-1528
1708,19.703874,1,3,0,1019,4,-1529
1709,19.715572,0,0,2,1020,0,-1529
1710,19.727235,1,2,-1,1021,0,-1528
1711,19.738894,1,0,0,1017,4,-1533
1712,19.750579,0,1,1,1017,0,-1527
1713,19.762241,0,1,1,1018,0,-1529
1714,19.773895,1,1,1,1015,-2,-1533
1715,19.785564,0,0,0,1017,-2,-1527
1716,19.797218,-1,0,1,1017,0,-1532
1717,19.808892,2,2,1,1019,0,-1526
1718,19.820541,0,1,1,1017,3,-1532
1719,19.832127,-1,-1,2,1019,1,-1529
1720,19.843682,-1,1,3,1020,-4,-1534
1721,19.855264,0,0,2,1020,0,-1533
1722,19.866818,2,-3,1,1016,-1,-1529
1723,19.878388,1,-1,0,1015,0,-1536
1724,19.88993,0,0,1,1014,3,-1530
1725,19.901472,0,2,0,1018,0,-1532
1726,19.91304,2,-2,-1,1018,-3,-1527
1727,19.924669,0,0,0,1021,6,-1533
1728,19.936285,0,0,2,1017,-1,-1528
1729,19.94796,0,0,1,1014,-3,-1524
1730,19.959663,1,1,-1,1019,0,-1534
1731,19.971332,1,0,-1,1018,0,-1531
1732,19.982981,2,0,2,1021,-4,-1528
1733,19.99463,0,0,1,1018,0,-1532
1734,20.006293,0,1,1,1018,0,-1537
1735,20.017971,0,-2,-1,1016,0,-1533
1736,20.029629,0,-2,1,1018,0,-1533
1737,20.041194,3,1,1,1018,-1,-1533
1738,20.05272,-1,1,-1,1022,-1,-1530
1739,20.064291,2,0,0,1018,2,-1532
1740,20.075869,0,0,0,1017,0,-1529
1741,20.087426,1,1,2,1020,1,-1527
1742,20.098979,1,-1,1,1017,1,-1526
1743,20.110552,2,1,1,1020,2,-1530
1744,20.122177,2,0,0,1016,3,-1528
1745,20.13382,0,1,0,1021,0,-1529
1746,20.145486,1,1,0,1018,-4,-1527
1747,20.157138,0,0,2,1019,-2,-1524
1748,20.168828,0,-1,3,1022,0,-1532
1749,20.180491,2,2,2,1019,0,-1536
1750,20.192163,0,0,-1,1016,0,-1533
1751,20.203844,1,-1,1,1018,0,-1527
1752,20.215512,-1,2,0,1019,-1,-1530
1753,20.227181,3,0,3,1020,-5,-1533
1754,20.238729,0,-2,2,1019,0,-1529
1755,20.250293,-1,-2,0,1019,2,-1534
1756,20.261851,0,0,0,1016,1,-1530
1757,20.27342,0,-1,0,1019,-1,-1534
1758,20.284977,1,2,0,1019,-1,-1529
1759,20.296549,-2,2,1,1021,1,-1534
1760,20.308116,0,-3,1,1019,0,-1531
1761,20.319676,-1,0,0,1014,0,-1532
1762,20.331259,0,-1,3,1019,0,-1524
1763,20.342889,0,0,0,1013,0,-1526
1764,20.35456,0,2,0,1021,0,-1533
1765,20.366217,1,0,1,1020,-2,-1535
1766,20.377857,-1,0,0,1019,2,-1532
1767,20.389506,1,0,1,1017,5,-1530
1768,20.401181,0,-1,1,1020,1,-1531
1769,20.412837,1,3,0,1022,0,-1531
1770,20.424523,2,1,2,1019,0,-1529
1771,20.436219,0,0,1,1015,-1,-1529
1772,20.447869,0,0,-1,1022,1,-1531
1773,20.459424,0,0,2,1017,1,-1534
1774,20.470971,-1,-1,2,1019,2,-1536
1775,20.482535,1,0,3,1020,0,-1526
1776,20.494081,1,-2,1,1017,0,-1532
1777,20.505636,0,0,-3,1018,-1,-1526
1778,20.517185,1,-1,-1,1018,0,-1533
1779,20.528717,1,-1,0,1020,-2,-1531
1780,20.540302,-2,-3,-1,1020,0,-1526
1781,20.551992,2,-2,0,1015,0,-1529
1782,20.563667,2,0,1,1019,0,-1529
1783,20.575352,1,0,2,1016,0,-1529
1784,20.586999,1,-1,1,1018,-3,-1538
1785,20.598662,0,1,1,1019,0,-1522
1786,20.610312,-1,1,2,1017,-2,-1525
1787,20.621963,0,1,1,1019,0,-1533
1788,20.633617,0,1,-1,1017,-2,-1527
1789,20.645282,0,-1,-1,1015,2,-1532
1790,20.656959,0,1,0,1017,2,-1527
1791,20.668542,2,3,4,1015,-2,-1528
1792,20.680103,1,1,0,1021,1,-1533
1793,20.691657,0,-1,2,1020,-1,-1526
1794,20.703227,0,-2,-2,1021,0,-1526
1795,20.714789,2,1,0,1021,0,-1530
1796,20.726331,0,-2,1,1017,0,-1536
1797,20.737866,0,0,1,1021,-2,-1537
1798,20.749426,-1,-2,-1,1019,3,-1537
1799,20.761071,0,1,1,1017,2,-1530
1800,20.772731,2,-2,-1,1017,0,-1534
1801,20.784448,1,0,2,1020,1,-1534
1802,20.796102,1,2,2,1021,-5,-1532
1803,20.807772,-1,0,2,1024,6,-1538
1804,20.819464,2,-2,1,1021,4,-1531
1805,20.831107,1,-2,0,1019,-1,-1533
1806,20.842756,1,0,1,1018,-1,-1538
1807,20.854459,1,-2,0,1022,1,-1526
1808,20.86611,0,2,1,1024,1,-1531
1809,20.877672,0,-1,1,1019,3,-1532
1810,20.889247,1,0,0,1015,4,-1531
1811,20.900832,0,-1,1,1019,-4,-1533
1812,20.912431,0,0,0,1026,2,-1529
1813,20.923992,-1,-1,1,1017,2,-1527
1814,20.935564,-1,-2,1,1021,-1,-1529
1815,20.947115,1,1,1,1020,3,-1524
1816,20.958676,1,1,2,1005,-2,-1535
1817,20.970331,1,-1,-1,1018,1,-1529
1818,20.981992,3,2,0,1017,-2,-1532
1819,20.993639,-1,-2,1,1021,-2,-1529
1820,21.005314,0,0,1,1016,-5,-1532
1821,21.01698,1,2,-1,1016,4,-1528
1822,21.028663,1,1,0,1018,2,-1532
1823,21.040308,-2,2,1,1019,1,-1530
1824,21.052009,-2,-1,0,1016,1,-1535
1825,21.063685,1,-1,1,1019,0,-1536
1826,21.075369,1,0,1,1015,-1,-1529
1827,21.086932,0,2,3,1018,1,-1529
1828,21.09851,-1,2,-3,1016,0,-1531
1829,21.110051,0,2,-2,1018,-5,-1533
1830,21.121599,-1,2,1,1018,-1,-1534
1831,21.133153,-1,2,0,1023,-1,-1528
1832,21.144847,1,0,0,1019,-3,-1533
1833,21.156434,1,2,0,1018,-1,-1529
1834,21.168004,3,-1,2,1018,-1,-1535
1835,21.179656,1,-1,3,1016,0,-1527
1836,21.191351,-1,-1,-1,1018,0,-1530
1837,21.20308,0,2,1,1021,0,-1532
1838,21.21496,1,0,0,1017,-1,-1526
1839,21.226729,2,-1,1,1021,11,-1528
1840,21.238399,-1,-1,2,1022,-2,-1524
1841,21.250051,2,1,0,1020,1,-1529
1842,21.261707,1,-1,-1,1018,-2,-1529
1843,21.273425,-2,-1,-1,1025,0,-1542
1844,21.285092,1,2,-1,1014,-4,-1524
1845,21.296785,-2,-1,1,1017,0,-1514
1846,21.308487,1,-4,2,1021,3,-1528
1847,21.320175,4,3,1,1015,-4,-1522
1848,21.331844,-2,-1,1,1018,5,-1534
1849,21.343513,6,-1,-1,1023,5,-1538
1850,21.355199,1,0,1,1021,-4,-1537
1851,21.366838,3,0,-2,1021,-1,-1542
1852,21.378482,6,2,0,1020,-3,-1525
1853,21.390033,-4,3,1,1015,-8,-1526
1854,21.401576,0,3,-1,1014,3,-1541
1855,21.413128,-4,2,0,1020,-1,-1519
1856,21.424705,0,2,1,1019,5,-1529
1857,21.436248,3,1,0,1021,5,-1522
1858,21.447809,-2,2,0,1021,3,-1527
1859,21.459407,7,-3,1,1016,0,-1533
1860,21.47096,-3,1,0,1011,-3,-1518
1861,21.482544,0,-2,-1,1016,5,-1542
1862,21.494208,3,-2,1,1020,-1,-1523
1863,21.505863,-4,3,0,1023,-3,-1531
1864,21.517522,0,0,-1,1023,1,-1526
1865,21.529171,4,1,3,1020,-1,-1532
1866,21.540827,-1,0,0,1016,0,-1511
1867,21.552481,2,-2,0,1017,-6,-1527
1868,21.564156,-5,2,1,1020,2,-1531
1869,21.575839,4,-2,1,1021,2,-1527
1870,21.58753,3,0,0,1021,-2,-1524
1871,21.599197,6,0,2,1014,0,-1551
1872,21.610785,1,6,1,1008,0,-1539
1873,21.622344,0,3,0,1005,0,-1528
1874,21.6339,-2,-1,0,1014,4,-1553
1875,21.645446,1,6,2,1016,-5,-1529
1876,21.657,-1,2,0,1014,-7,-1514
1877,21.668554,-2,-1,0,1020,1,-1543
1878,21.680138,6,3,0,1018,-2,-1513
1879,21.691705,-2,2,0,1022,2,-1534
1880,21.703335,6,2,-1,1023,2,-1532
1881,21.714987,1,-2,1,1021,-2,-1520
1882,21.726652,-2,1,0,1021,3,-1542
1883,21.738332,6,0,0,1018,-6,-1525
1884,21.749977,-7,-3,2,1025,-9,-1520
1885,21.761631,4,-2,2,1022,9,-1564
1886,21.773305,15,0,2,1018,-15,-1504
1887,21.784967,1,-4,0,1020,11,-1561
1888,21.796634,14,-4,-1,1018,-2,-1540
1889,21.808332,-7,1,1,1016,-14,-1511
1890,21.819908,11,-3,1,1017,0,-1537
1891,21.831459,1,0,-1,1017,-9,-1527
1892,21.843029,-7,4,2,1015,0,-1521
1893,21.854573,5,-1,1,1020,5,-1539
1894,21.866121,-7,2,2,1015,0,-1528
1895,21.877673,0,0,1,1020,4,-1538
1896,21.889239,4,-1,1,1020,0,-1519
1897,21.900808,-1,3,1,1018,0,-1533
1898,21.912522,0,-1,-1,1021,1,-1509
1899,21.924206,-2,1,-1,1016,0,-1517
1900,21.935916,5,1,1,1015,0,-1536
1901,21.947589,-2,1,0,1015,-5,-1517
1902,21.959245,2,2,1,1021,0,-1532
1903,21.970927,2,-1,1,1023,-3,-1522
1904,21.982585,2,0,2,1019,-2,-1527
1905,21.994241,2,-3,0,1012,0,-1523
1906,22.005898,0,-2,1,1012,0,-1530
1907,22.017614,2,-2,2,1019,-1,-1531
1908,22.02917,0,-1,1,1027,-5,-1527
1909,22.040781,-3,1,1,1032,0,-1544
1910,22.052351,-3,1,1,1021,-3,-1519
1911,22.063903,1,-2,2,1013,5,-1546
1912,22.075493,3,-2,1,1010,0,-1525
1913,22.087041,-2,0,2,1014,4,-1539
1914,22.0986,2,0,1,1017,-5,-1519
1915,22.110163,-2,5,1,1020,0,-1553
1916,22.121787,6,-1,1,1021,-1,-1536
1917,22.133449,-3,0,3,1017,0,-1545
1918,22.145097,3,0,1,1009,0,-1527
1919,22.156792,-2,0,3,1013,0,-1523
1920,22.168536,1,0,3,1016,4,-1534
1921,22.180233,4,1,1,1025,-4,-1523
1922,22.191916,1,1,0,1018,0,-1528
1923,22.203584,1,-1,0,1019,6,-1528
1924,22.215247,2,1,2,1018,-3,-1531
1925,22.226929,2,1,1,1018,-1,-1533
1926,22.238589,-1,1,0,1020,-3,-1529
1927,22.250234,-2,-1,-1,1022,-1,-1530
1928,22.261884,3,-2,-2,1025,-2,-1533
1929,22.273555,-2,2,3,1023,-4,-1530
1930,22.285205,1,0,3,1019,4,-1543
1931,22.29686,1,1,0,1015,-3,-1525
1932,22.308556,-3,-1,-1,1015,-5,-1531
1933,22.32024,3,1,-1,1021,0,-1530
1934,22.331903,-1,0,0,1015,2,-1527
1935,22.343576,0,1,2,1021,6,-1536
1936,22.355222,1,1,0,1020,1,-1533
1937,22.36687,-2,-2,1,1020,3,-1531
1938,22.378539,2,1,0,1018,-1,-1530
1939,22.390213,-1,1,0,1022,1,-1524
1940,22.401863,0,-2,-2,1020,-2,-1531
1941,22.41353,2,1,2,1014,2,-1536
1942,22.425256,-2,0,1,1016,5,-1528
1943,22.436937,2,0,1,1019,4,-1523
1944,22.448474,2,0,3,1020,-3,-1545
1945,22.45999,-2,0,-1,1020,-4,-1529
1946,22.471494,1,2,0,1020,0,-1533
1947,22.483043,3,-1,0,1021,-5,-1539
1948,22.494634,-2,1,2,1019,1,-1530
1949,22.506191,3,1,2,1016,3,-1530
1950,22.517739,-2,2,0,1013,-1,-1522
1951,22.529301,0,-1,-1,1014,0,-1538
1952,22.540963,3,1,0,1019,0,-1525
1953,22.552645,-1,0,1,1018,-2,-1533
1954,22.564315,-1,-2,0,1019,-1,-1534
1955,22.575972,2,0,0,1022,3,-1531
1956,22.58764,-2,-2,-1,1023,1,-1537
1957,22.599317,-2,0,0,1017,0,-1533
1958,22.610977,2,1,0,1015,-2,-1529
1959,22.622625,1,0,2,1017,-6,-1524
1960,22.634318,0,1,0,1017,-1,-1534
1961,22.64598,3,0,0,1022,-1,-1532
1962,22.657538,-1,0,0,1021,-1,-1537
1963,22.669084,-2,-1,1,1021,2,-1528
1964,22.680642,0,1,0,1017,0,-1531
1965,22.692215,-1,0,2,1017,2,-1533
1966,22.703756,-1,-1,0,1014,1,-1528
1967,22.715303,2,-2,1,1016,-2,-1531
1968,22.726884,1,1,3,1017,1,-1534
1969,22.738437,2,1,-1,1017,0,-1521
1970,22.750057,5,0,3,1019,-1,-1542
1971,22.761735,-2,0,1,1018,-5,-1525
1972,22.773438,0,0,1,1021,3,-1529
1973,22.785095,-3,1,1,1013,4,-1525
1974,22.796784,2,1,1,1017,4,-1536
1975,22.808448,2,1,0,1021,-4,-1525
1976,22.820104,1,1,1,1018,3,-1534
1977,22.831779,3,0,1,1021,-2,-1529
1978,22.843447,-2,0,-1,1024,0,-1531
1979,22.855112,1,0,1,1021,2,-1529
1980,22.86667,-1,2,0,1015,2,-1530
1981,22.878244,1,1,0,1018,0,-1527
1982,22.889788,1,2,-1,1018,-2,-1535
1983,22.901333,0,2,2,1018,1,-1540
1984,22.912889,1,-1,0,1019,-1,-1530
1985,22.924488,-1,-1,2,1022,-5,-1531
1986,22.936049,-2,1,0,1019,-3,-1531
1987,22.947658,2,1,-2,1016,2,-1532
1988,22.959314,-2,-2,-1,1016,2,-1529
1989,22.970979,3,-1,0,1014,-2,-1526
1990,22.982631,1,4,0,1023,-2,-1532
1991,22.994297,1,0,2,1019,2,-1535
1992,23.005967,1,-1,-1,1021,-2,-1534
1993,23.017637,-2,-1,1,1016,-3,-1526
1994,23.029309,0,0,2,1012,0,-1531
1995,23.040965,-2,1,1,1014,-2,-1531
1996,23.052641,0,1,1,1013,1,-1531
1997,23.064308,1,1,1,1018,1,-1534
1998,23.075876,0,-1,1,1020,-2,-1525
1999,23.087432,6,2,1,1021,-1,-1546
