sample,t_s,gyro_x,gyro_y,gyro_z,accel_x,accel_y,accel_z
0,1.1e-05,2,-8,13,-4,54,-1019
1,0.011409,0,0,11,0,47,-1020
2,0.02263,3,6,7,-1,49,-1027
3,0.033823,4,7,8,-5,47,-1020
4,0.045009,2,7,8,-6,49,-1028
5,0.056199,2,4,10,-1,54,-1020
6,0.06739,2,6,8,-5,52,-1013
7,0.078597,2,7,8,-1,51,-1027
8,0.089755,3,8,7,-3,52,-1026
9,0.100938,3,5,8,0,49,-1020
10,0.112123,1,5,9,0,52,-1015
11,0.123306,1,6,7,-1,50,-1020
12,0.134489,3,4,9,-3,50,-1025
13,0.145683,2,7,7,-5,51,-1021
14,0.156871,2,4,10,-1,48,-1022
15,0.168057,3,8,11,-4,52,-1023
16,0.179241,3,5,9,-1,48,-1018
17,0.19043,1,4,8,-4,48,-1022
18,0.201618,4,4,7,-3,50,-1024
19,0.212803,0,5,6,-3,51,-1022
20,0.223989,3,10,11,-5,49,-1023
21,0.235176,3,8,9,-2,50,-1022
22,0.246388,3,6,8,-4,50,-1023
23,0.257558,3,5,9,-3,47,-1025
24,0.268744,1,5,10,0,49,-1022
25,0.279932,2,7,9,-3,51,-1025
26,0.291117,3,4,7,-3,47,-1022
27,0.302299,3,7,7,-3,47,-1027
28,0.31349,2,7,8,-3,49,-1026
29,0.324674,1,6,8,-7,51,-1022
30,0.335863,3,5,9,-3,53,-1029
31,0.347048,3,6,8,-4,45,-1018
32,0.358235,2,6,7,-4,52,-1023
33,0.369427,3,6,8,-4,52,-1018
34,0.380617,3,5,8,-1,50,-1022
35,0.391807,2,8,8,-3,54,-1015
36,0.40301,1,6,10,-4,56,-1028
37,0.414197,2,7,10,-1,53,-1022
38,0.425381,0,6,8,0,51,-1025
39,0.436564,3,11,12,-1,51,-1028
40,0.447749,4,6,7,-4,54,-1019
41,0.45894,2,5,8,-2,50,-1024
42,0.470117,4,7,9,-2,50,-1018
43,0.481308,1,7,9,-4,52,-1020
44,0.492491,5,7,9,2,51,-1021
45,0.503678,2,7,8,-4,52,-1022
46,0.514867,0,5,10,0,50,-1021
47,0.526056,0,5,8,-1,51,-1024
48,0.53724,5,5,7,-3,53,-1023
49,0.548425,2,7,9,-6,50,-1016
50,0.559612,1,4,7,-1,55,-1027
51,0.570798,0,6,8,-5,52,-1028
52,0.581986,3,4,10,-3,53,-1019
53,0.593176,4,8,10,-2,55,-1022
54,0.604361,1,6,8,-6,50,-1023
55,0.615552,4,5,8,-6,51,-1024
56,0.626734,3,9,8,-4,48,-1026
57,0.637928,4,5,8,-2,50,-1020
58,0.649112,4,8,9,0,51,-1023
59,0.660294,4,9,8,-2,51,-1027
60,0.671491,3,8,10,-7,53,-1019
61,0.682678,2,7,10,-7,50,-1018
62,0.693861,2,7,7,-2,56,-1022
63,0.705048,2,6,12,-5,48,-1022
64,0.716234,4,7,8,0,49,-1016
65,0.727422,3,7,8,-1,48,-1030
66,0.738611,5,10,8,-1,51,-1027
67,0.749794,1,7,8,-4,46,-1019
68,0.760994,4,8,9,-5,51,-1029
69,0.772177,2,8,8,-8,50,-1024
70,0.783363,3,7,9,-8,48,-1024
71,0.794554,2,10,7,-5,47,-1024
72,0.805743,3,8,8,-4,51,-1021
73,0.816934,5,7,11,-2,51,-1024
74,0.828119,2,12,7,0,50,-1026
75,0.839305,4,10,9,-6,58,-1018
76,0.850484,6,9,8,-3,51,-1018
77,0.861685,3,11,6,-4,46,-1023
78,0.872869,6,11,6,1,47,-1022
79,0.884054,2,13,9,0,49,-1018
80,0.895238,4,13,7,-8,52,-1029
81,0.906435,5,9,9,-9,52,-1019
82,0.917622,3,17,10,-6,59,-1026
83,0.928806,1,10,11,-3,52,-1008
84,0.939989,0,10,9,2,55,-1015
85,0.951175,7,7,7,9,55,-1035
86,0.962359,2,10,7,7,46,-1010
87,0.973556,5,7,11,3,53,-1025
88,0.984741,4,7,9,-3,45,-1022
89,0.995922,2,7,9,-3,48,-1013
90,1.007106,4,3,8,-3,50,-1021
91,1.018297,5,6,9,-4,48,-1021
92,1.029481,3,7,9,5,46,-1025
93,1.040667,6,6,7,6,44,-1024
94,1.051852,3,7,6,5,45,-1026
95,1.063052,0,5,6,-1,49,-1022
96,1.074235,2,5,10,-8,48,-1038
97,1.085426,0,9,10,-6,52,-1018
98,1.09661,3,6,10,-3,56,-1022
99,1.107799,8,7,9,3,54,-1025
100,1.118995,2,7,8,0,49,-1024
101,1.130181,0,5,7,-5,54,-1037
102,1.141363,2,10,9,-4,51,-1026
103,1.152546,0,10,8,-8,52,-1016
104,1.16373,8,8,8,-2,57,-1035
105,1.174925,7,8,10,3,50,-1021
106,1.186112,-2,7,9,7,45,-1021
107,1.197292,6,6,9,5,46,-1024
108,1.208474,2,7,7,-1,49,-1022
109,1.219661,5,9,9,-3,47,-1027
110,1.230848,4,7,9,-8,49,-1016
111,1.242038,4,6,11,-2,48,-1021
112,1.253227,4,5,10,0,49,-1027
113,1.26441,3,5,9,2,48,-1027
114,1.275597,4,9,9,5,46,-1012
115,1.286785,2,5,9,8,42,-1018
116,1.297978,3,5,8,-1,45,-1027
117,1.309166,1,5,9,-1,49,-1015
118,1.320352,2,4,9,-7,46,-1019
119,1.331542,5,2,10,-6,48,-1025
120,1.342739,3,6,5,0,53,-1016
121,1.35393,2,3,8,-1,46,-1024
122,1.365116,2,4,9,-1,44,-1024
123,1.376301,0,4,8,2,48,-1019
124,1.387493,2,3,8,4,51,-1018
125,1.398679,0,1,8,-2,47,-1026
126,1.409865,-1,0,8,-2,49,-1014
127,1.421056,-6,6,10,-6,49,-997
128,1.432264,15,-2,6,5,53,-1071
129,1.443452,1,6,9,7,40,-1029
130,1.454635,6,7,9,4,55,-1020
131,1.465824,8,4,6,-19,49,-1029
132,1.477026,-11,9,8,-42,58,-1012
133,1.488213,-2,8,8,-36,67,-1014
134,1.499399,13,3,10,-18,61,-1040
135,1.5106,-9,7,8,29,54,-1025
136,1.521801,15,1,6,30,56,-1034
137,1.532988,2,6,6,15,38,-1013
138,1.544173,-8,7,8,-5,49,-1027
139,1.555364,7,10,7,-30,54,-1021
140,1.566555,-5,7,10,-21,48,-1015
141,1.577745,-4,7,9,-2,57,-1026
142,1.588928,14,4,8,6,54,-1034
143,1.600114,2,7,8,8,41,-1016
144,1.611301,-10,5,9,8,60,-1025
145,1.622482,10,3,8,1,50,-1027
146,1.633673,-8,6,10,0,43,-1015
147,1.644863,5,5,10,-6,57,-1019
148,1.656048,8,2,9,-6,46,-1016
149,1.66724,1,5,11,-3,52,-1019
150,1.678426,10,4,7,-1,48,-1024
151,1.68961,3,5,8,3,46,-1033
152,1.700794,1,9,7,-1,46,-1024
153,1.711977,4,4,10,-1,48,-1025
154,1.72316,2,7,8,-1,51,-1019
155,1.734349,4,5,9,0,52,-1018
156,1.745531,1,5,10,12,53,-1020
157,1.756716,2,7,8,10,54,-1020
158,1.767901,5,9,11,11,47,-1018
159,1.779087,-1,4,7,1,50,-1025
160,1.790278,5,4,5,-7,53,-1024
161,1.801474,4,4,9,-7,52,-1018
162,1.812667,2,5,7,-10,47,-1023
163,1.823857,3,3,7,-6,49,-1019
164,1.835054,2,3,8,0,58,-1022
165,1.846243,3,6,11,5,52,-1028
166,1.857427,3,6,8,5,52,-1024
167,1.868612,2,6,9,-1,54,-1025
168,1.879797,4,8,9,-4,55,-1029
169,1.890982,1,6,8,-10,54,-1011
170,1.902169,5,5,10,-12,60,-1035
171,1.913356,6,8,9,-5,51,-1020
172,1.924541,5,11,10,-3,48,-1019
173,1.935727,7,10,8,2,47,-1040
174,1.946912,5,11,7,5,43,-1022
175,1.958108,4,9,9,5,45,-1021
176,1.96929,7,5,8,3,42,-1018
177,1.980474,6,11,8,-1,43,-1023
178,1.991659,6,8,8,-6,47,-1028
179,2.002845,6,9,8,-2,49,-1029
180,2.014036,1,9,6,0,50,-1021
181,2.025224,2,7,10,-1,46,-1021
182,2.036409,5,14,9,-1,49,-1011
183,2.047595,1,5,10,-1,53,-1024
184,2.058781,5,6,6,-2,48,-1021
185,2.06993,2,6,9,-3,43,-1021
186,2.081114,2,5,10,0,47,-1022
187,2.092296,5,5,10,2,47,-1023
188,2.103482,0,6,9,0,49,-1020
189,2.11467,3,4,7,-1,51,-1023
190,2.125859,5,4,10,0,54,-1018
191,2.137044,0,4,8,-5,57,-1019
192,2.148227,4,6,7,0,53,-1020
193,2.159421,6,5,8,2,52,-1016
194,2.170609,4,7,8,3,53,-1026
195,2.181796,3,5,9,3,53,-1021
196,2.192991,4,6,11,8,45,-1017
197,2.204174,4,6,9,-3,47,-1022
198,2.215357,5,6,9,-5,43,-1023
199,2.226543,0,5,8,1,45,-1020
200,2.237737,3,2,9,-3,46,-1020
201,2.248922,3,5,12,2,46,-1028
202,2.260106,1,4,9,3,47,-1022
203,2.271293,1,5,7,0,51,-1018
204,2.282482,2,5,10,-3,49,-1027
205,2.293671,2,6,11,-3,57,-1029
206,2.304862,3,8,10,-10,53,-1020
207,2.316046,2,6,9,-1,51,-1023
208,2.327231,5,5,9,1,53,-1020
209,2.338416,2,5,7,4,52,-1022
210,2.34956,2,4,8,-3,52,-1032
211,2.360743,3,6,9,-6,55,-1026
212,2.371927,5,7,9,-5,52,-1029
213,2.383107,0,6,9,0,42,-1017
214,2.394295,1,7,8,6,51,-1020
215,2.405477,7,4,8,4,48,-1024
216,2.416663,0,4,7,5,53,-1022
217,2.427844,6,5,9,1,54,-1021
218,2.439033,3,3,9,-3,51,-1012
219,2.450224,0,6,10,-5,48,-1024
220,2.461408,5,3,5,-6,53,-1025
221,2.472594,-1,6,10,2,51,-1021
222,2.483785,4,6,10,3,52,-1027
223,2.494974,3,1,9,1,46,-1029
224,2.506162,-1,4,9,-9,55,-1025
225,2.517347,4,10,6,-15,55,-1022
226,2.52853,0,8,9,-10,51,-1023
227,2.539716,1,9,10,3,51,-1022
228,2.550916,6,10,10,5,48,-1031
229,2.562109,2,10,9,6,45,-1024
230,2.573292,0,9,8,-1,44,-1018
231,2.584474,3,8,9,-7,46,-1022
232,2.595663,1,8,9,-10,52,-1017
233,2.606849,3,6,9,-5,49,-1023
234,2.618038,1,4,10,-4,48,-1020
235,2.629226,3,7,10,14,52,-1023
236,2.640407,2,6,9,8,45,-1024
237,2.651596,-1,9,7,3,47,-1024
238,2.66278,2,6,7,-5,54,-1022
239,2.673929,3,7,10,-7,55,-1018
240,2.68511,0,7,10,-6,50,-1021
241,2.696292,3,4,10,2,53,-1022
242,2.707489,2,5,10,3,50,-1022
243,2.718673,1,3,9,6,48,-1027
244,2.729857,7,7,9,0,48,-1023
245,2.741041,0,6,8,-4,51,-1022
246,2.752223,3,7,7,-9,50,-1025
247,2.763406,3,7,6,-7,51,-1026
248,2.774596,1,5,8,0,47,-1019
249,2.785745,3,9,9,0,47,-1030
250,2.796929,3,6,8,1,47,-1023
251,2.808123,1,4,8,-3,42,-1020
252,2.819304,-2,3,8,-16,47,-1014
253,2.830483,-4,1,8,-11,53,-998
254,2.841673,12,2,8,13,40,-1044
255,2.852856,-1,10,10,31,35,-1033
256,2.864039,4,10,7,35,44,-1049
257,2.875226,4,10,7,9,41,-1016
258,2.88641,-9,8,5,-27,54,-1006
259,2.897558,12,7,13,-45,63,-1024
260,2.908751,-3,6,12,-17,48,-1002
261,2.919933,-5,3,11,12,50,-1013
262,2.931112,12,4,7,31,54,-1030
263,2.942297,5,2,7,30,42,-1029
264,2.953483,5,7,7,-7,61,-1034
265,2.964681,8,7,9,-30,51,-1015
266,2.975867,-1,10,10,-33,53,-1000
267,2.987054,1,6,8,-22,60,-1012
268,2.998245,11,3,8,15,37,-1025
269,3.00943,-2,8,6,26,40,-1020
270,3.020612,6,7,7,22,43,-1026
271,3.031793,8,6,6,3,43,-1030
272,3.042976,-1,10,8,-11,50,-1023
273,3.054161,0,7,8,-16,54,-1017
274,3.065345,0,8,11,-13,50,-1013
275,3.076527,0,7,11,7,53,-1027
276,3.087713,3,7,8,15,46,-1017
277,3.098897,1,5,10,19,48,-1016
278,3.110085,4,6,7,-3,49,-1026
279,3.121274,0,5,8,-16,46,-1017
280,3.132462,0,4,9,-20,52,-1021
281,3.14365,2,2,10,-18,55,-1017
282,3.154845,3,4,14,-9,48,-1018
283,3.166043,0,3,8,12,45,-1022
284,3.177227,4,3,8,16,43,-1025
285,3.188408,1,2,8,18,44,-1025
286,3.199594,1,7,5,10,40,-1029
287,3.210786,1,0,7,-16,47,-1018
288,3.221936,0,6,9,-30,47,-1019
289,3.233136,2,6,9,-28,54,-1027
290,3.244325,2,4,10,-16,50,-1019
291,3.255519,-1,0,11,1,47,-1014
292,3.266703,-1,3,9,24,46,-1024
293,3.277891,0,5,7,19,45,-1016
294,3.289075,0,3,7,4,60,-1019
295,3.300259,4,4,8,-10,55,-1025
296,3.31144,2,3,8,-23,57,-1012
297,3.322627,1,5,10,-15,55,-1010
298,3.333812,2,2,10,0,52,-1022
299,3.344995,0,4,10,4,48,-1025
300,3.356175,1,4,9,8,48,-1024
301,3.367358,4,6,7,12,47,-1021
302,3.378542,1,8,6,-9,47,-1018
303,3.389739,1,6,7,-14,48,-1020
304,3.400925,3,7,9,-15,49,-1023
305,3.412106,1,7,9,-11,52,-1020
306,3.423333,1,6,9,8,55,-1021
307,3.434714,4,6,9,8,43,-1025
308,3.445942,1,6,11,5,47,-1018
309,3.457161,3,6,7,-1,52,-1025
310,3.468348,4,5,11,-7,49,-1022
311,3.479533,2,6,8,-9,53,-1020
312,3.490724,1,3,8,1,52,-1017
313,3.501932,2,6,9,5,50,-1016
314,3.513118,0,5,8,1,54,-1020
315,3.524302,3,7,7,1,51,-1018
316,3.535489,3,8,10,-6,55,-1021
317,3.546674,2,6,10,-10,50,-1021
318,3.557865,2,5,8,-4,57,-1022
319,3.56905,2,7,9,-1,47,-1022
320,3.580233,4,6,10,-2,48,-1010
321,3.591415,2,7,9,-4,47,-1022
322,3.6026,4,5,6,-3,48,-1022
323,3.613758,2,6,8,-1,46,-1027
324,3.624942,4,7,10,0,49,-1022
325,3.636126,2,2,7,-1,47,-1024
326,3.647307,4,8,5,-3,48,-1026
327,3.658491,0,6,6,-4,52,-1017
328,3.669677,1,6,6,-4,51,-1018
329,3.680857,0,4,9,-4,58,-1023
330,3.692038,1,15,10,-2,50,-1023
331,3.703219,1,9,6,0,53,-1025
332,3.714408,4,7,11,2,52,-1030
333,3.725559,1,6,8,-1,53,-1023
334,3.736743,4,6,8,-4,51,-1023
335,3.747925,3,6,7,-8,51,-1029
336,3.75911,2,6,8,-4,51,-1027
337,3.770298,4,9,9,-4,48,-1023
338,3.781482,3,6,8,-4,52,-1025
339,3.792666,2,5,9,-1,50,-1027
340,3.803848,3,7,8,0,52,-1021
341,3.81503,1,4,8,0,49,-1021
342,3.826223,3,6,10,-6,51,-1021
343,3.837404,2,9,9,-4,51,-1019
344,3.848586,0,3,11,-5,50,-1025
345,3.859766,1,6,8,0,50,-1029
346,3.870955,1,8,9,-1,51,-1025
347,3.882111,4,5,9,0,54,-1018
348,3.893292,3,7,7,-4,52,-1018
349,3.904472,2,5,9,-3,58,-1022
350,3.915654,4,9,9,-3,55,-1016
351,3.926838,2,9,8,-8,52,-1021
352,3.938035,3,7,9,-5,53,-1018
353,3.949218,3,5,8,-9,55,-1022
354,3.9604,5,8,11,-3,51,-1017
355,3.971597,2,6,8,0,47,-1026
356,3.982785,4,6,9,1,48,-1028
357,3.993928,2,6,8,1,43,-1025
358,4.005112,2,4,8,-7,47,-1025
359,4.016295,1,6,7,-4,51,-1019
360,4.02749,1,6,9,-5,47,-1023
361,4.038675,3,6,7,-2,45,-1025
362,4.049862,2,6,8,0,49,-1020
363,4.061045,3,6,11,-1,52,-1019
364,4.072228,3,4,9,-4,52,-1019
365,4.083411,3,8,7,-4,54,-1020
366,4.094596,3,6,8,-8,52,-1016
367,4.105744,1,5,10,-4,55,-1023
368,4.116939,3,9,9,2,53,-1027
369,4.128122,3,5,9,-1,54,-1027
370,4.139302,2,8,8,-2,50,-1021
371,4.150485,2,8,10,-8,50,-1019
372,4.16167,2,7,8,-5,49,-1012
373,4.172851,1,3,9,-2,49,-1026
374,4.184032,3,7,8,-3,45,-1015
375,4.195214,2,6,11,-2,48,-1022
376,4.206405,2,9,10,4,49,-1022
377,4.217558,3,7,8,0,48,-1020
378,4.228739,2,6,9,-6,48,-1026
379,4.239921,5,5,9,-1,52,-1019
380,4.251106,1,7,7,-1,48,-1017
381,4.262296,3,6,7,-3,53,-1026
382,4.273477,3,6,10,-5,51,-1028
383,4.284658,1,5,7,-5,57,-1021
384,4.295836,5,7,9,-3,56,-1023
385,4.307019,1,7,9,-4,50,-1024
386,4.318202,2,8,9,-1,54,-1026
387,4.329397,3,6,6,2,54,-1029
388,4.340581,4,7,9,-1,50,-1026
389,4.351761,2,7,9,2,49,-1028
390,4.362948,1,7,9,-2,50,-1022
391,4.374117,4,5,7,-2,49,-1025
392,4.3853,3,7,9,-1,48,-1028
393,4.396481,3,9,8,-5,47,-1020
394,4.407669,3,5,10,0,46,-1023
395,4.41885,2,5,10,1,52,-1021
396,4.43004,3,7,10,-2,51,-1022
397,4.441223,2,5,9,-4,53,-1023
398,4.452403,1,7,11,-7,53,-1025
399,4.463585,4,7,7,-5,51,-1022
400,4.474773,0,6,9,1,52,-1027
401,4.485929,3,6,11,-2,50,-1021
402,4.49711,3,7,10,-1,54,-1028
403,4.508288,3,6,8,-3,48,-1019
404,4.519493,2,6,8,-2,50,-1025
405,4.530984,3,8,10,-3,53,-1022
406,4.542559,3,5,9,-2,49,-1028
407,4.55408,3,6,10,-4,49,-1023
408,4.565595,3,6,7,-3,47,-1022
409,4.577195,3,4,8,-3,50,-1029
410,4.588747,3,7,9,-2,50,-1020
411,4.600314,3,5,9,-4,49,-1023
412,4.611862,3,7,8,-4,50,-1028
413,4.623415,2,5,8,0,50,-1016
414,4.635076,0,6,7,-1,50,-1019
415,4.646773,1,5,10,-3,46,-1025
416,4.658428,1,7,9,1,53,-1027
417,4.670124,4,6,8,-5,52,-1019
418,4.681791,1,5,11,0,52,-1023
419,4.69346,3,7,8,-2,50,-1023
420,4.705153,2,5,8,0,52,-1016
421,4.716794,3,5,9,1,50,-1024
422,4.72845,2,8,9,-7,54,-1024
423,4.740125,3,6,8,1,50,-1023
424,4.75172,3,6,6,0,48,-1022
425,4.763271,3,8,8,-4,53,-1020
426,4.774818,3,4,7,-7,52,-1025
427,4.786367,0,7,7,-3,48,-1025
428,4.797916,3,6,9,-3,47,-1025
429,4.80947,2,7,9,-3,52,-1021
430,4.821012,1,6,10,0,48,-1020
431,4.832553,3,5,8,0,49,-1025
432,4.844221,3,6,8,1,56,-1032
433,4.855913,1,7,9,0,53,-1014
434,4.867556,1,5,9,-3,53,-1024
435,4.879205,2,6,9,-5,50,-1024
436,4.890902,2,6,9,-6,48,-1023
437,4.902553,2,6,7,-3,38,-1031
438,4.914228,3,7,9,-5,44,-1025
439,4.925927,1,7,8,-4,48,-1022
440,4.93759,1,6,10,-6,50,-1027
441,4.949143,2,5,10,0,47,-1029
442,4.960718,2,6,10,-5,47,-1024
443,4.972251,2,6,6,0,50,-1025
444,4.983798,1,6,9,-3,48,-1024
445,4.995342,1,6,8,-7,48,-1024
446,5.00692,4,6,8,-2,51,-1023
447,5.018482,2,9,10,-2,50,-1022
448,5.030049,2,6,8,-2,49,-1024
449,5.04161,1,7,8,-2,49,-1024
450,5.053296,0,7,10,-5,50,-1023
451,5.064961,4,6,10,0,53,-1024
452,5.076631,3,6,9,-5,51,-1015
453,5.08828,2,6,10,-1,52,-1027
454,5.099921,1,7,10,-2,48,-1026
455,5.111568,2,4,10,-5,47,-1017
456,5.123229,4,7,9,-6,51,-1023
457,5.134911,2,8,10,-4,51,-1029
458,5.146566,2,7,10,-5,50,-1023
459,5.15825,3,7,7,-4,54,-1023
460,5.169907,3,6,8,-3,52,-1020
461,5.181585,2,7,9,-4,53,-1016
462,5.193242,3,4,7,-1,51,-1025
463,5.204892,3,6,8,1,53,-1025
464,5.216543,2,6,7,-6,51,-1022
465,5.228185,4,6,8,-1,56,-1021
466,5.239863,2,8,10,-4,47,-1027
467,5.251534,1,7,9,-2,48,-1024
468,5.263177,0,7,9,-2,54,-1018
469,5.274836,1,7,9,0,52,-1022
470,5.286502,4,4,7,-6,48,-1021
471,5.29816,3,6,7,-4,50,-1026
472,5.309842,2,6,8,-1,53,-1025
473,5.321497,3,6,9,-5,49,-1019
474,5.333147,2,7,8,-4,49,-1026
475,5.344808,2,5,8,0,45,-1017
476,5.356451,1,7,8,0,47,-1025
477,5.368094,2,7,9,-5,53,-1022
478,5.379759,1,5,10,-2,51,-1020
479,5.391401,4,6,8,-2,52,-1020
480,5.40305,3,5,8,-4,51,-1028
481,5.414723,4,6,8,-2,49,-1023
482,5.426395,2,4,11,0,50,-1022
483,5.438087,3,7,10,-6,51,-1019
484,5.449867,4,6,8,-3,50,-1016
485,5.461509,3,7,7,-1,49,-1018
486,5.473108,1,5,9,-5,52,-1022
487,5.484652,5,4,10,-4,51,-1027
488,5.496219,2,5,10,-2,55,-1018
489,5.507762,3,6,9,-2,52,-1025
490,5.519355,2,6,8,-3,53,-1034
491,5.530975,3,8,8,-5,48,-1016
492,5.542547,3,5,8,-1,50,-1020
493,5.554089,1,7,8,-2,51,-1027
494,5.565731,4,6,6,0,51,-1020
495,5.577385,1,6,7,-5,51,-1025
496,5.589035,1,7,8,0,47,-1022
497,5.600685,2,6,9,2,52,-1012
498,5.612322,3,8,10,-1,50,-1019
499,5.623968,3,6,9,-3,52,-1025
500,5.635657,2,5,9,0,50,-1020
501,5.647291,1,7,8,-2,50,-1023
502,5.658957,3,8,8,-1,54,-1023
503,5.670647,3,5,8,0,52,-1022
504,5.682215,3,5,10,-2,45,-1028
505,5.693765,4,6,10,-1,50,-1015
506,5.705307,2,4,10,-2,49,-1023
507,5.716855,3,5,8,-1,50,-1023
508,5.728415,1,4,8,-4,52,-1020
509,5.73997,3,6,8,0,51,-1024
510,5.751518,3,7,8,-4,47,-1020
511,5.763104,1,9,8,-1,52,-1021
512,5.774811,2,6,8,0,54,-1018
513,5.786506,2,6,9,0,53,-1023
514,5.798157,3,7,10,3,50,-1022
515,5.809836,0,6,9,-3,53,-1024
516,5.821506,3,6,9,-6,52,-1020
517,5.83315,2,7,12,-3,49,-1020
518,5.844792,3,5,9,0,50,-1023
519,5.856437,2,6,8,2,47,-1024
520,5.868101,3,6,11,1,51,-1027
521,5.879768,1,6,9,-4,50,-1024
522,5.891411,3,8,10,-4,50,-1018
523,5.903064,3,6,7,-5,50,-1027
524,5.914702,1,7,9,-1,53,-1016
525,5.926376,4,6,7,-1,49,-1026
526,5.938032,1,6,8,0,50,-1022
527,5.949677,2,6,9,-1,50,-1020
528,5.961319,3,8,8,-5,49,-1021
529,5.973014,1,6,8,-1,47,-1024
530,5.984658,1,5,9,-4,51,-1021
531,5.996304,4,7,12,0,52,-1020
532,6.007956,2,6,10,-1,50,-1020
533,6.019653,1,6,8,-3,46,-1018
534,6.031307,3,8,9,-3,48,-1018
535,6.042954,2,6,8,-2,55,-1023
536,6.054618,2,5,10,-1,51,-1020
537,6.066277,2,6,8,-2,48,-1020
538,6.077952,2,6,9,0,55,-1020
539,6.089608,2,7,9,-1,52,-1028
540,6.101271,3,5,7,1,53,-1022
541,6.112911,2,9,8,-5,54,-1023
542,6.124555,2,6,8,0,53,-1027
543,6.136211,4,7,10,-7,50,-1022
544,6.147873,3,6,8,-2,49,-1010
545,6.159525,0,7,10,-4,50,-1027
546,6.171185,2,4,8,-1,52,-1022
547,6.182889,2,8,7,-5,56,-1030
548,6.194539,4,5,10,-4,48,-1029
549,6.206196,3,8,7,-5,46,-1021
550,6.217867,3,6,9,-1,48,-1023
551,6.229522,1,7,8,-3,51,-1022
552,6.241164,2,6,10,-4,49,-1023
553,6.252811,3,5,8,0,54,-1023
554,6.264445,2,7,9,-3,50,-1026
555,6.276086,2,8,8,0,47,-1018
556,6.287748,4,6,8,-4,53,-1027
557,6.299395,2,7,8,-5,53,-1015
558,6.311049,1,7,9,-4,52,-1026
559,6.322695,2,8,9,-3,48,-1028
560,6.334374,1,6,8,-4,54,-1022
561,6.346036,2,6,13,-3,52,-1021
562,6.357675,2,4,9,0,49,-1023
563,6.369316,1,7,7,-9,48,-1028
564,6.380982,4,4,9,-4,52,-1021
565,6.392649,1,8,10,-3,54,-1031
566,6.40432,2,6,9,-3,50,-1023
567,6.415868,1,6,9,-3,52,-1016
568,6.427419,2,7,8,-3,51,-1021
569,6.438977,1,7,8,-7,51,-1021
570,6.450577,2,7,8,-3,52,-1015
571,6.462141,2,6,6,0,54,-1018
572,6.473721,2,7,10,-2,49,-1026
573,6.485254,2,4,9,0,49,-1024
574,6.496799,2,6,9,-3,47,-1023
575,6.508438,2,8,8,-3,50,-1024
576,6.520085,2,7,9,-2,52,-1028
577,6.531756,0,8,9,-2,45,-1019
578,6.543427,2,8,8,0,56,-1027
579,6.555104,2,3,7,0,51,-1027
580,6.566763,3,7,7,-3,47,-1026
581,6.578411,2,7,6,-3,48,-1022
582,6.590064,2,6,8,-7,52,-1016
583,6.601753,4,7,10,-2,51,-1020
584,6.613404,1,5,10,-2,53,-1026
585,6.624969,3,6,8,-3,54,-1022
586,6.636519,1,5,7,-3,48,-1020
587,6.648084,3,4,7,-2,48,-1028
588,6.659626,3,6,9,-1,54,-1020
589,6.671167,3,8,8,-1,51,-1019
590,6.682753,3,6,9,-4,54,-1018
591,6.694342,3,6,10,-5,50,-1021
592,6.705911,3,7,8,-1,50,-1021
593,6.717626,0,6,10,-1,51,-1019
594,6.729278,2,6,9,-1,48,-1025
595,6.740937,4,7,9,-2,48,-1023
596,6.752611,0,6,10,2,52,-1020
597,6.764274,2,9,8,-1,52,-1028
598,6.775924,3,7,7,-3,49,-1023
599,6.787596,3,8,9,0,48,-1022
600,6.799266,0,5,9,-3,49,-1022
601,6.810923,3,8,8,-3,49,-1029
602,6.822602,0,9,7,-6,49,-1020
603,6.834198,3,6,7,-4,50,-1022
604,6.845762,3,5,8,1,52,-1024
605,6.857347,2,6,8,-3,48,-1024
606,6.868897,1,7,10,-2,52,-1016
607,6.880457,1,8,6,-5,50,-1024
608,6.891992,1,6,9,0,53,-1020
609,6.903531,2,6,8,-1,52,-1024
610,6.915133,3,5,9,-4,51,-1025
611,6.926768,2,6,8,0,46,-1022
612,6.938431,1,6,8,-7,53,-1016
613,6.950125,3,5,8,-3,53,-1022
614,6.961769,1,5,9,-1,50,-1026
615,6.973417,1,6,8,0,50,-1027
616,6.985073,2,7,9,-1,51,-1028
617,6.996754,3,6,7,0,52,-1022
618,7.0084,1,7,9,-6,49,-1022
619,7.020047,3,6,8,-4,47,-1020
620,7.031655,1,6,7,-4,54,-1021
621,7.043221,2,7,9,-5,50,-1019
622,7.054846,1,5,8,-4,49,-1025
623,7.066403,1,6,10,-2,52,-1027
624,7.077967,2,7,10,-4,52,-1022
625,7.089511,2,6,8,-4,48,-1029
626,7.101065,2,5,8,-4,56,-1023
627,7.112625,2,7,10,0,52,-1019
628,7.124186,5,7,7,-3,53,-1027
629,7.135816,3,5,9,-3,49,-1018
630,7.147499,5,4,8,-6,49,-1016
631,7.159152,3,4,8,-6,51,-1025
632,7.170804,3,6,7,-3,47,-1025
633,7.182451,3,6,6,-6,52,-1022
634,7.194113,1,7,9,-2,50,-1027
635,7.20578,2,7,10,-4,51,-1024
636,7.217427,2,5,9,-2,51,-1023
637,7.229114,1,9,9,0,51,-1024
638,7.240773,2,6,8,-1,50,-1016
639,7.252329,2,7,8,-1,49,-1020
640,7.263884,3,5,10,0,54,-1013
641,7.275452,0,3,8,0,52,-1021
642,7.287072,3,4,7,-2,50,-1017
643,7.298619,1,5,9,-2,51,-1025
644,7.310209,1,5,9,-1,53,-1024
645,7.321759,1,7,10,-2,52,-1022
646,7.333338,1,7,9,-5,49,-1023
647,7.344951,2,5,9,-4,47,-1022
648,7.356615,6,8,9,0,51,-1022
649,7.368275,3,6,10,-2,50,-1024
650,7.37992,2,8,8,-2,48,-1024
651,7.391582,1,8,9,0,52,-1019
652,7.403241,2,6,8,-2,53,-1022
653,7.41489,2,6,9,-4,52,-1026
654,7.426547,3,6,9,-2,51,-1024
655,7.4382,1,6,8,-4,54,-1018
656,7.449868,2,9,11,-3,51,-1018
657,7.461598,4,6,8,-3,51,-1019
658,7.473265,0,5,8,3,52,-1019
659,7.48493,4,4,8,-5,55,-1019
660,7.496572,3,6,9,0,51,-1022
661,7.508225,4,6,10,-4,51,-1022
662,7.519897,3,5,8,-3,48,-1016
663,7.53153,2,7,9,-3,53,-1020
664,7.543254,3,6,8,0,51,-1031
665,7.554908,2,8,8,-4,50,-1018
666,7.566466,3,5,8,-2,46,-1017
667,7.578018,0,7,10,0,53,-1019
668,7.589591,3,6,10,-1,51,-1023
669,7.60114,2,5,9,-2,51,-1027
670,7.612701,4,7,8,-2,50,-1019
671,7.624254,0,6,10,-4,52,-1018
672,7.635832,3,6,10,-1,51,-1026
673,7.647399,2,7,9,-2,53,-1019
674,7.659103,1,4,9,-1,52,-1019
675,7.670783,3,7,11,-5,53,-1020
676,7.682466,2,5,8,-2,49,-1017
677,7.694129,2,4,11,-1,51,-1023
678,7.705794,2,4,8,-2,49,-1023
679,7.717468,3,6,9,-4,51,-1017
680,7.729126,3,3,10,-2,51,-1028
681,7.74078,2,6,9,-2,53,-1024
682,7.752452,3,6,8,-5,49,-1024
683,7.764104,2,6,10,-6,51,-1021
684,7.775675,3,6,8,0,48,-1024
685,7.787227,2,5,9,-7,48,-1020
686,7.798844,3,5,7,-1,54,-1027
687,7.810402,4,9,9,-2,53,-1026
688,7.82196,2,4,8,-2,54,-1024
689,7.833522,3,8,10,-3,48,-1027
690,7.845093,3,7,10,-1,46,-1018
691,7.856655,2,5,7,-3,53,-1023
692,7.868266,0,5,8,-2,52,-1018
693,7.879926,4,9,8,-1,50,-1017
694,7.891577,1,6,9,-1,49,-1028
695,7.903251,2,7,8,-5,51,-1023
696,7.914903,2,8,8,-2,52,-1025
697,7.926548,1,5,8,-3,52,-1022
698,7.938196,1,7,9,-3,52,-1021
699,7.949889,2,6,9,-2,47,-1023
700,7.961546,3,4,8,-3,50,-1020
701,7.973222,4,9,9,-2,53,-1013
702,7.984839,2,8,10,-2,53,-1026
703,7.996396,3,7,12,-3,52,-1026
704,8.007956,2,5,8,-6,54,-1022
705,8.0195,1,6,6,-4,51,-1024
706,8.031077,2,7,8,-5,54,-1022
707,8.042643,1,7,8,-3,53,-1019
708,8.054211,1,8,9,-3,53,-1026
709,8.065848,4,5,8,-2,55,-1019
710,8.077488,1,6,9,0,53,-1018
711,8.089149,1,5,11,-1,48,-1019
712,8.100802,2,8,8,-1,53,-1023
713,8.112473,4,7,9,-2,51,-1025
714,8.124134,3,5,7,-6,54,-1026
715,8.135791,2,6,8,-4,50,-1023
716,8.147458,2,6,8,-1,49,-1020
717,8.159132,3,6,8,-2,45,-1025
718,8.170809,2,7,9,0,50,-1015
719,8.182475,2,6,8,-3,54,-1025
720,8.194056,3,7,10,0,52,-1020
721,8.205593,3,8,8,1,47,-1020
722,8.217142,3,5,6,0,52,-1025
723,8.2287,3,6,8,-6,54,-1021
724,8.240255,3,6,9,-1,49,-1016
725,8.251829,4,8,9,-4,53,-1014
726,8.263381,2,8,7,-3,53,-1019
727,8.274965,2,4,8,-1,56,-1024
728,8.286611,3,7,7,-1,48,-1031
729,8.298277,3,5,9,-2,50,-1016
730,8.309932,2,6,10,-5,52,-1019
731,8.321613,0,6,9,-3,53,-1018
732,8.333265,2,6,7,-8,50,-1018
733,8.344916,3,5,9,-4,50,-1023
734,8.356555,0,7,10,0,48,-1020
735,8.368204,5,7,10,-3,49,-1023
736,8.379903,0,5,9,-2,55,-1021
737,8.391549,5,4,8,-5,49,-1023
738,8.403133,2,7,9,1,50,-1016
739,8.414711,2,4,8,0,53,-1020
740,8.42633,4,4,10,-5,50,-1029
741,8.437959,2,8,10,-3,50,-1020
742,8.449505,3,7,8,-3,49,-1018
743,8.461059,2,5,8,-4,48,-1015
744,8.472617,3,6,8,0,49,-1022
745,8.484175,2,6,9,-3,53,-1016
746,8.495805,4,6,8,-4,55,-1026
747,8.507507,3,7,9,-3,54,-1023
748,8.519164,2,5,6,-2,52,-1021
749,8.530824,1,7,10,-4,53,-1017
750,8.542499,2,7,7,0,49,-1024
751,8.554165,4,6,8,-1,49,-1020
752,8.565843,4,7,9,0,56,-1026
753,8.577505,4,6,10,-4,50,-1025
754,8.589174,1,6,9,0,54,-1027
755,8.600852,3,5,8,-3,51,-1020
756,8.61244,2,7,8,-1,49,-1026
757,8.623981,5,4,9,-2,51,-1021
758,8.635524,2,6,10,-2,50,-1022
759,8.64707,3,6,7,-1,49,-1020
760,8.65863,2,6,9,-6,48,-1015
761,8.670346,3,8,7,-1,51,-1023
762,8.681955,3,5,8,-2,50,-1019
763,8.693508,3,6,8,-1,48,-1023
764,8.705131,2,7,8,-1,46,-1021
765,8.716771,1,7,9,-3,50,-1017
766,8.728416,3,7,9,-2,52,-1023
767,8.740089,1,6,10,-2,54,-1022
768,8.751744,2,8,9,-6,50,-1029
769,8.763389,2,6,10,0,51,-1019
770,8.775071,3,9,8,-1,51,-1026
771,8.786752,2,7,8,0,51,-1017
772,8.798367,1,4,6,-3,50,-1018
773,8.809955,2,5,8,-1,53,-1024
774,8.821493,2,6,8,-3,50,-1020
775,8.83304,2,7,9,-3,51,-1026
776,8.844586,2,8,8,-3,47,-1015
777,8.856133,1,5,10,-3,55,-1018
778,8.867697,2,7,9,1,52,-1028
779,8.879231,1,7,6,-4,51,-1020
780,8.890788,4,6,8,-4,52,-1021
781,8.902325,4,4,7,-2,51,-1014
782,8.913951,4,6,12,-6,47,-1020
783,8.925609,2,3,10,-2,48,-1026
784,8.937263,2,6,11,-2,51,-1020
785,8.948915,3,5,9,-2,52,-1019
786,8.960553,1,5,9,-2,51,-1025
787,8.972196,5,7,7,-2,51,-1016
788,8.983883,1,6,8,-4,50,-1024
789,8.995527,1,6,7,0,50,-1024
790,9.007189,3,9,9,-3,52,-1027
791,9.018857,3,6,6,-4,49,-1025
792,9.030451,3,6,8,-1,53,-1013
793,9.04201,4,6,8,-3,52,-1024
794,9.053587,3,4,8,-3,48,-1024
795,9.065138,3,7,8,-2,55,-1020
796,9.076701,2,6,9,-5,47,-1021
797,9.088295,2,5,8,-2,49,-1024
798,9.099846,2,6,9,-3,49,-1022
799,9.111423,2,4,8,-1,51,-1028
800,9.123055,0,8,8,-5,49,-1021
801,9.134764,0,8,8,-4,52,-1020
802,9.14642,2,8,10,-6,50,-1024
803,9.158121,1,7,9,-4,54,-1029
804,9.169767,3,3,9,-1,54,-1023
805,9.181417,2,4,8,0,51,-1023
806,9.19311,2,6,8,-2,51,-1019
807,9.204748,2,3,9,-3,50,-1025
808,9.21641,3,6,7,-4,47,-1020
809,9.228062,2,7,8,-3,49,-1021
810,9.239624,0,6,8,-4,48,-1018
811,9.251195,4,6,8,-1,49,-1021
812,9.262833,2,7,6,-1,53,-1015
813,9.274397,2,5,7,-2,52,-1023
814,9.285961,3,7,8,-3,52,-1027
815,9.297499,3,7,8,-2,51,-1027
816,9.309053,3,6,8,-3,51,-1018
817,9.320624,2,7,6,-4,48,-1028
818,9.332244,3,5,10,-4,56,-1021
819,9.343895,2,8,8,-3,50,-1022
820,9.355543,6,4,9,0,49,-1026
821,9.367221,1,6,9,-1,47,-1018
822,9.378896,4,7,11,-7,51,-1019
823,9.390547,3,6,10,-6,47,-1023
824,9.402251,2,6,7,-5,52,-1023
825,9.413927,2,6,9,-3,49,-1025
826,9.42564,0,10,11,2,51,-1024
827,9.437344,3,6,7,1,50,-1021
828,9.448943,2,8,8,-2,50,-1027
829,9.460486,2,6,8,0,53,-1023
830,9.472059,3,6,8,-5,50,-1027
831,9.483609,4,7,7,-3,53,-1019
832,9.495153,3,4,9,0,51,-1025
833,9.506746,3,5,7,-3,53,-1030
834,9.518314,3,6,9,0,48,-1018
835,9.529881,4,6,10,-1,52,-1027
836,9.541444,1,8,7,-4,51,-1020
837,9.552984,0,7,7,-7,52,-1024
838,9.564526,3,4,7,-4,49,-1021
839,9.576079,2,5,10,-3,53,-1020
840,9.587647,3,8,9,1,48,-1022
841,9.599203,5,7,8,-2,47,-1026
842,9.610751,1,9,9,2,51,-1015
843,9.622315,2,6,10,-4,48,-1025
844,9.633862,2,8,10,-5,52,-1028
845,9.645506,3,6,8,-9,50,-1025
846,9.657161,2,7,10,-1,47,-1029
847,9.668847,4,6,8,-4,52,-1023
848,9.68049,3,8,10,-3,53,-1024
849,9.692137,1,7,9,-2,51,-1022
850,9.703788,3,6,9,-2,49,-1026
851,9.715453,2,6,9,-2,51,-1023
852,9.727146,2,5,9,-4,50,-1022
853,9.73883,0,7,9,-5,52,-1024
854,9.750447,2,8,8,0,47,-1023
855,9.762013,2,7,9,-2,50,-1021
856,9.773586,4,5,9,-2,51,-1018
857,9.785127,3,6,8,-3,53,-1019
858,9.796672,3,6,9,-8,50,-1022
859,9.808218,3,10,9,-4,49,-1026
860,9.819761,1,5,9,-1,50,-1028
861,9.83133,2,6,9,-7,48,-1023
862,9.842981,2,6,8,1,53,-1025
863,9.854638,4,7,7,-4,49,-1019
864,9.866295,3,6,10,-4,51,-1023
865,9.878011,1,6,7,-2,51,-1020
866,9.889658,0,7,6,-2,55,-1017
867,9.901302,3,6,10,-5,48,-1017
868,9.912973,1,6,9,-4,49,-1021
869,9.92462,4,9,10,-2,52,-1019
870,9.936281,2,4,8,-3,50,-1022
871,9.947951,2,6,8,-1,49,-1021
872,9.9595,3,5,8,-4,52,-1022
873,9.971055,2,6,7,-2,49,-1028
874,9.982611,3,5,10,-1,49,-1020
875,9.994186,4,6,9,-7,47,-1020
876,10.005756,1,7,8,-1,50,-1016
877,10.017319,3,7,10,-5,52,-1018
878,10.028867,2,6,7,-2,51,-1019
879,10.04044,1,6,8,-2,53,-1023
880,10.052058,3,7,10,-4,46,-1021
881,10.063737,3,8,9,-4,53,-1024
882,10.075381,4,5,9,0,47,-1022
883,10.087046,2,6,8,-7,49,-1023
884,10.098715,1,8,8,-1,54,-1015
885,10.110379,2,4,8,0,53,-1021
886,10.122023,2,6,11,-2,51,-1024
887,10.13368,2,4,7,-5,48,-1018
888,10.145372,1,5,8,0,51,-1024
889,10.157022,1,6,10,0,47,-1025
890,10.16857,1,5,7,-2,49,-1015
891,10.180124,2,7,7,1,52,-1026
892,10.191675,4,6,9,-3,48,-1019
893,10.203221,1,8,8,-3,52,-1020
894,10.214792,2,6,9,-4,47,-1026
895,10.226318,1,6,7,-2,47,-1025
896,10.23789,2,5,10,-1,56,-1020
897,10.249475,1,7,9,-6,53,-1022
898,10.261107,3,7,8,-9,51,-1022
899,10.27277,3,7,10,-1,50,-1023
900,10.284414,1,8,8,-3,53,-1015
901,10.296062,3,4,11,-2,52,-1026
902,10.307731,3,6,9,0,50,-1026
903,10.319373,3,6,10,-5,51,-1018
904,10.33103,2,5,9,-2,51,-1017
905,10.342705,2,5,8,0,48,-1016
906,10.354365,2,5,9,-3,51,-1024
907,10.36594,1,5,8,0,55,-1017
908,10.377481,2,8,9,0,48,-1033
909,10.389023,2,6,8,1,47,-1026
910,10.400565,4,7,9,-4,49,-1023
911,10.412122,4,5,9,-2,51,-1018
912,10.423684,2,6,7,-4,51,-1022
913,10.43523,0,5,9,-3,49,-1018
914,10.446808,3,7,7,-1,54,-1016
915,10.458324,3,7,9,-6,53,-1022
916,10.470005,1,8,10,-7,54,-1025
917,10.481673,3,6,7,-2,48,-1020
918,10.49332,1,6,9,-4,52,-1023
919,10.504976,3,7,9,-2,50,-1024
920,10.516626,2,7,9,-3,47,-1020
921,10.528263,1,7,8,-6,49,-1023
922,10.539913,0,9,7,0,53,-1024
923,10.551712,3,7,11,-3,46,-1023
924,10.563378,4,7,9,0,52,-1021
925,10.575036,2,7,9,-2,55,-1024
926,10.586717,3,6,7,0,47,-1023
927,10.598373,2,5,8,-1,46,-1019
928,10.610027,3,3,8,-5,53,-1027
929,10.621753,1,7,9,-1,57,-1024
930,10.633402,4,7,11,-3,46,-1024
931,10.64507,2,6,11,-3,49,-1023
932,10.656712,2,8,8,-3,51,-1024
933,10.668394,3,7,10,-6,52,-1017
934,10.68005,1,8,8,-1,51,-1021
935,10.691711,1,7,10,-2,50,-1018
936,10.70336,6,6,8,-8,53,-1022
937,10.715021,3,7,8,-4,52,-1028
938,10.726665,3,6,8,-2,54,-1023
939,10.738318,1,6,7,1,51,-1017
940,10.749994,4,3,8,-2,47,-1017
941,10.761646,2,4,8,-3,51,-1026
942,10.77332,3,5,10,-4,49,-1022
943,10.784985,2,7,9,-3,51,-1022
944,10.796627,4,6,8,-3,51,-1024
945,10.808276,1,7,8,-7,49,-1023
946,10.819944,3,3,9,-4,50,-1025
947,10.831615,2,6,10,0,48,-1024
948,10.843259,2,6,9,-4,51,-1020
949,10.854891,5,5,9,0,51,-1023
950,10.866557,2,4,8,-1,51,-1019
951,10.878245,4,6,6,-5,50,-1021
952,10.889861,3,7,8,-3,51,-1021
953,10.901515,2,7,8,-1,50,-1025
954,10.913179,4,7,7,-5,54,-1021
955,10.924844,2,4,7,-4,52,-1019
956,10.936495,4,8,7,-1,50,-1021
957,10.94814,0,7,10,0,49,-1027
958,10.959786,3,6,11,-3,48,-1028
959,10.971425,3,6,9,-3,54,-1023
960,10.983112,2,5,9,-3,52,-1023
961,10.994839,4,6,10,-1,53,-1027
962,11.006502,3,6,7,-1,52,-1020
963,11.018122,2,6,8,-1,50,-1019
964,11.029782,1,8,9,-2,49,-1019
965,11.041423,2,7,8,-5,55,-1022
966,11.053074,2,7,9,-4,53,-1019
967,11.064735,3,6,9,0,52,-1021
968,11.076373,1,9,11,-2,48,-1021
969,11.088014,2,5,9,0,46,-1027
970,11.099561,0,8,6,-2,54,-1019
971,11.1111,2,4,10,-1,49,-1024
972,11.122672,4,6,8,-2,51,-1024
973,11.134222,1,6,9,-1,50,-1019
974,11.145807,2,7,8,-3,52,-1026
975,11.157349,1,6,8,-2,52,-1018
976,11.168892,4,6,9,0,51,-1018
977,11.180438,3,5,9,-1,51,-1023
978,11.192032,2,7,9,0,50,-1026
979,11.203662,6,5,9,-4,48,-1022
980,11.215345,2,7,7,-3,47,-1021
981,11.227025,3,5,8,-2,53,-1022
982,11.23871,2,5,11,-3,55,-1024
983,11.250375,2,9,9,-7,46,-1020
984,11.26203,3,6,8,0,47,-1019
985,11.273729,3,5,9,-2,52,-1028
986,11.285375,4,7,9,-3,50,-1019
987,11.297035,1,5,8,-3,52,-1020
988,11.308739,2,5,9,-6,52,-1028
989,11.320385,2,9,6,-4,50,-1020
990,11.332036,1,7,8,-2,55,-1017
991,11.343709,2,8,9,0,52,-1024
992,11.355356,4,7,9,-2,51,-1021
993,11.367032,2,7,9,0,52,-1020
994,11.378711,3,6,10,-1,51,-1023
995,11.390372,2,8,7,-7,55,-1026
996,11.402062,3,4,7,-3,50,-1019
997,11.413738,2,5,9,-2,50,-1022
998,11.425386,2,8,7,2,49,-1025
999,11.43706,2,8,9,-1,49,-1020
1000,11.448702,2,5,6,-4,52,-1030
1001,11.460351,3,7,9,-1,51,-1024
1002,11.472001,3,8,8,-2,53,-1016
1003,11.48364,3,5,10,-2,48,-1021
1004,11.495278,3,7,9,-1,53,-1019
1005,11.506986,3,6,8,0,46,-1021
1006,11.518626,3,5,8,-4,56,-1022
1007,11.530287,3,9,8,-1,49,-1026
1008,11.541985,3,6,10,-7,50,-1016
1009,11.553605,3,3,9,-2,50,-1022
1010,11.565253,2,6,9,-7,47,-1017
1011,11.576906,2,8,11,-4,50,-1018
1012,11.588572,2,6,8,0,51,-1026
1013,11.600227,3,8,10,-3,50,-1018
1014,11.611887,1,5,10,-3,50,-1027
1015,11.623577,4,6,9,-3,48,-1024
1016,11.635174,4,7,7,-2,52,-1021
1017,11.64673,3,5,7,-2,46,-1016
1018,11.658315,3,6,10,-4,53,-1021
1019,11.669907,1,6,7,-3,49,-1015
1020,11.681462,2,6,9,-1,49,-1014
1021,11.693054,3,6,8,-2,51,-1024
1022,11.704603,2,4,7,-4,52,-1025
1023,11.71618,3,7,8,-4,50,-1020
1024,11.727809,5,7,11,-3,49,-1022
1025,11.739505,3,3,9,-3,47,-1022
1026,11.751168,1,5,9,-5,48,-1021
1027,11.762867,0,5,9,-4,51,-1030
1028,11.77452,1,6,9,-4,49,-1023
1029,11.786179,2,7,9,0,48,-1019
1030,11.797874,4,6,8,-1,50,-1017
1031,11.809519,4,8,9,-1,51,-1023
1032,11.821217,3,6,9,0,50,-1021
1033,11.832882,2,6,10,-2,51,-1022
1034,11.844444,2,4,11,0,51,-1017
1035,11.856031,1,6,8,-1,53,-1019
1036,11.867569,1,6,9,-3,51,-1021
1037,11.879106,1,4,9,-5,53,-1022
1038,11.890685,2,8,6,0,51,-1018
1039,11.902233,3,7,10,0,49,-1018
1040,11.913806,3,6,10,-6,50,-1023
1041,11.92536,2,6,9,0,53,-1015
1042,11.936976,2,5,6,-4,50,-1023
1043,11.948618,4,6,9,-2,51,-1025
1044,11.960262,2,6,11,-10,53,-1020
1045,11.971928,1,5,10,-3,51,-1022
1046,11.983586,3,7,7,-4,52,-1019
1047,11.995233,3,7,8,-4,50,-1018
1048,12.006889,3,6,8,-2,49,-1022
1049,12.018559,1,8,8,-4,50,-1026
1050,12.030254,4,6,10,-3,54,-1020
1051,12.041919,3,5,9,-4,46,-1023
1052,12.053601,0,8,9,-4,48,-1018
1053,12.065249,2,6,12,-3,48,-1024
1054,12.076895,1,5,9,-6,50,-1020
1055,12.088558,2,4,9,-7,45,-1018
1056,12.100242,2,5,9,0,50,-1031
1057,12.111885,1,7,9,-5,51,-1022
1058,12.123539,1,6,9,-1,48,-1019
1059,12.135222,3,7,9,0,50,-1025
1060,12.146886,1,6,10,-6,48,-1026
1061,12.158551,1,7,9,-3,52,-1032
1062,12.170246,5,7,9,-2,51,-1022
1063,12.181865,3,7,8,-1,52,-1023
1064,12.193511,4,6,10,-3,51,-1022
1065,12.205183,0,6,10,-2,51,-1022
1066,12.216839,6,8,10,-3,49,-1020
1067,12.228486,2,7,5,-3,55,-1025
1068,12.240156,3,7,9,-6,54,-1017
1069,12.251826,2,7,9,-4,50,-1019
1070,12.263525,2,7,9,-2,50,-1018
1071,12.275198,1,9,8,0,50,-1023
1072,12.286862,1,5,9,-3,50,-1025
1073,12.298519,1,6,10,2,48,-1017
1074,12.31019,2,7,9,0,50,-1016
1075,12.321856,3,5,8,-3,54,-1024
1076,12.333501,1,5,7,0,51,-1025
1077,12.345168,4,7,11,-7,53,-1017
1078,12.356834,2,6,7,-1,51,-1026
1079,12.368389,1,6,8,-4,51,-1023
1080,12.37995,4,5,8,-3,50,-1022
1081,12.391547,3,6,8,-4,49,-1026
1082,12.4031,5,4,7,-4,54,-1023
1083,12.414673,2,7,8,-2,50,-1020
1084,12.426275,1,6,8,0,52,-1019
1085,12.437841,3,7,7,-4,49,-1023
1086,12.449428,2,7,10,-1,50,-1023
1087,12.461054,2,6,9,0,51,-1018
1088,12.472733,1,7,8,-4,49,-1019
1089,12.484385,3,5,11,0,49,-1024
1090,12.496057,3,5,8,-2,47,-1012
1091,12.507718,2,6,9,-7,48,-1026
1092,12.519371,2,5,8,-1,53,-1024
1093,12.531036,3,6,8,-4,50,-1023
1094,12.542712,1,4,9,0,52,-1027
1095,12.554397,2,5,9,-2,54,-1027
1096,12.566071,2,8,9,-2,56,-1023
1097,12.57766,2,6,10,-5,46,-1021
1098,12.589213,0,5,9,-1,53,-1025
1099,12.600764,3,7,7,-1,55,-1016
1100,12.612309,3,5,9,0,51,-1030
1101,12.623896,3,6,9,0,51,-1026
1102,12.635437,2,5,8,-1,52,-1018
1103,12.647009,2,5,7,0,51,-1025
1104,12.658568,1,5,9,-3,53,-1013
1105,12.670273,1,5,8,-1,50,-1017
1106,12.681974,0,4,9,-4,49,-1015
1107,12.693606,1,7,8,-3,51,-1026
1108,12.705256,2,5,8,-2,48,-1020
1109,12.716927,1,6,9,-2,53,-1020
1110,12.728581,3,5,9,-6,49,-1023
1111,12.740226,1,5,11,-4,50,-1015
1112,12.751908,3,6,8,-1,50,-1023
1113,12.763587,4,5,8,0,53,-1026
1114,12.775239,2,7,10,-2,49,-1026
1115,12.786817,3,5,9,-3,51,-1022
1116,12.798414,1,7,11,-4,48,-1024
1117,12.809976,2,6,9,-3,54,-1025
1118,12.821533,3,7,10,-4,49,-1030
1119,12.833086,3,5,10,-3,47,-1026
1120,12.844674,3,8,9,-2,51,-1021
1121,12.856272,2,5,11,-2,49,-1024
1122,12.867839,4,5,11,-6,50,-1025
1123,12.879465,2,6,7,-1,50,-1024
1124,12.891168,2,9,9,-3,48,-1026
1125,12.902821,2,6,7,-4,53,-1026
1126,12.9145,3,4,9,-3,52,-1023
1127,12.926173,2,6,8,-2,48,-1019
1128,12.93787,2,8,9,-5,51,-1025
1129,12.949518,3,7,8,-2,52,-1024
1130,12.961192,1,6,12,-2,50,-1017
1131,12.972867,0,7,8,-4,47,-1023
1132,12.984519,1,5,9,0,49,-1022
1133,12.996067,3,8,10,0,50,-1024
1134,13.007619,1,7,8,-5,49,-1028
1135,13.019168,2,6,8,-4,51,-1030
1136,13.030715,2,5,9,-6,48,-1022
1137,13.042258,2,8,9,-4,50,-1019
1138,13.053828,1,6,9,-5,45,-1021
1139,13.065397,2,8,10,0,51,-1024
1140,13.076955,3,7,9,-3,51,-1026
1141,13.088582,3,7,8,-3,51,-1027
1142,13.100235,2,4,9,-1,47,-1022
1143,13.11188,3,6,10,0,48,-1018
1144,13.123531,3,7,9,-2,51,-1022
1145,13.135201,2,6,10,-5,48,-1017
1146,13.14687,3,5,10,2,49,-1019
1147,13.158525,3,8,9,-5,50,-1025
1148,13.170193,3,7,8,1,52,-1022
1149,13.181872,2,8,9,0,50,-1013
1150,13.193526,1,4,10,-2,47,-1021
1151,13.205083,1,4,10,-2,51,-1027
1152,13.216672,0,6,9,-2,47,-1024
1153,13.228326,2,7,8,-3,47,-1026
1154,13.239895,3,7,8,0,48,-1020
1155,13.251445,3,8,10,-1,55,-1020
1156,13.263,4,5,9,-3,50,-1020
1157,13.274564,2,7,9,-3,54,-1018
1158,13.286162,2,6,7,1,50,-1024
1159,13.29785,3,7,8,-2,49,-1018
1160,13.30951,5,8,8,-4,49,-1021
1161,13.321167,2,7,10,-3,49,-1021
1162,13.332823,2,8,9,-2,53,-1018
1163,13.344476,3,6,7,0,49,-1021
1164,13.35612,2,6,9,-1,53,-1029
1165,13.367772,4,5,8,0,49,-1021
1166,13.379449,3,6,10,0,49,-1023
1167,13.39114,1,7,10,-2,50,-1029
1168,13.402807,3,6,12,-6,50,-1020
1169,13.414369,4,5,9,0,53,-1020
1170,13.425925,2,6,9,-2,54,-1023
1171,13.43753,3,8,10,-5,52,-1019
1172,13.44908,4,7,8,-4,50,-1023
1173,13.460629,4,6,8,-5,50,-1021
1174,13.472177,1,7,11,-4,53,-1021
1175,13.483778,6,6,7,-2,53,-1027
1176,13.495347,4,5,8,-4,50,-1017
1177,13.506982,2,7,9,-2,48,-1025
1178,13.518637,2,6,10,-4,53,-1021
1179,13.530284,2,5,11,-6,51,-1021
1180,13.54198,2,6,6,-4,51,-1021
1181,13.553606,1,7,11,-2,48,-1026
1182,13.565248,5,7,9,-4,52,-1028
1183,13.576913,2,8,9,-2,52,-1023
1184,13.588602,3,7,9,0,54,-1017
1185,13.600252,3,7,8,-2,52,-1019
1186,13.611926,6,6,10,-5,48,-1025
1187,13.623599,2,7,7,-6,49,-1021
1188,13.635162,4,6,8,-2,52,-1015
1189,13.646755,0,6,10,-6,45,-1027
1190,13.658326,3,7,9,-3,49,-1026
1191,13.66991,1,5,9,-3,49,-1025
1192,13.681457,4,4,8,-3,51,-1021
1193,13.693012,2,5,9,-2,51,-1026
1194,13.704582,3,7,9,-2,47,-1019
1195,13.716246,1,6,8,0,51,-1023
1196,13.727899,1,7,9,-3,49,-1020
1197,13.739565,1,4,7,-3,50,-1022
1198,13.751218,3,4,11,-5,50,-1024
1199,13.762882,1,8,8,-3,47,-1012
1200,13.774542,4,6,9,0,50,-1022
1201,13.786241,2,5,8,-2,50,-1025
1202,13.797864,2,6,10,-4,52,-1021
1203,13.809524,6,5,9,-4,53,-1021
1204,13.821186,3,6,7,-2,53,-1026
1205,13.832735,2,5,10,-1,52,-1025
1206,13.844282,1,6,8,0,50,-1024
1207,13.855825,2,6,8,0,47,-1019
1208,13.86739,2,6,8,0,50,-1024
1209,13.878951,2,5,6,-3,53,-1027
1210,13.890523,3,7,8,-5,49,-1020
1211,13.902082,3,6,8,-2,49,-1019
1212,13.913666,1,6,10,-5,50,-1019
1213,13.925291,3,8,9,0,52,-1022
1214,13.93695,1,6,8,-2,48,-1025
1215,13.9486,2,9,7,-3,49,-1018
1216,13.960269,1,7,10,0,47,-1021
1217,13.971954,1,8,8,0,51,-1023
1218,13.983614,4,4,8,-6,49,-1021
1219,13.995258,2,4,9,0,53,-1026
1220,14.006915,3,7,9,-2,52,-1026
1221,14.018626,1,5,9,0,46,-1022
1222,14.030293,3,5,8,-5,51,-1023
1223,14.041838,3,7,11,-5,47,-1018
1224,14.053393,2,5,9,-1,52,-1023
1225,14.06494,1,6,10,-4,48,-1018
1226,14.076484,5,6,7,-1,49,-1027
1227,14.088025,2,6,9,-1,48,-1023
1228,14.099581,3,6,9,-4,53,-1018
1229,14.111147,0,7,7,-6,50,-1022
1230,14.122718,3,4,9,-3,50,-1021
1231,14.134406,3,7,9,-2,50,-1026
1232,14.146097,3,5,7,-3,50,-1029
1233,14.157754,2,6,8,-1,48,-1028
1234,14.169425,0,8,8,-5,52,-1024
1235,14.181074,3,6,10,-6,52,-1016
1236,14.192747,2,6,8,-8,52,-1022
1237,14.204416,2,7,9,-1,48,-1020
1238,14.216075,2,7,7,-3,52,-1027
1239,14.227742,2,6,8,-1,51,-1027
1240,14.239395,4,6,10,-3,48,-1025
1241,14.250973,1,8,8,0,52,-1022
1242,14.26255,3,6,7,-6,53,-1022
1243,14.274143,2,5,8,-3,53,-1026
1244,14.285704,4,5,8,-6,52,-1023
1245,14.297259,4,8,9,-1,50,-1025
1246,14.308802,1,7,9,-2,47,-1023
1247,14.320341,1,6,7,-3,53,-1017
1248,14.331918,2,7,10,-6,51,-1019
1249,14.343602,2,6,9,-5,55,-1022
1250,14.355267,0,6,10,-2,53,-1022
1251,14.366895,3,7,8,1,53,-1019
1252,14.37856,3,6,8,-2,52,-1020
1253,14.390245,2,7,10,-1,52,-1029
1254,14.401866,3,9,7,-2,53,-1015
1255,14.413514,2,5,10,-7,52,-1022
1256,14.425181,4,8,10,-1,49,-1018
1257,14.436839,3,8,10,-8,51,-1013
1258,14.448492,2,6,9,-4,52,-1029
1259,14.460151,2,7,8,-2,50,-1020
1260,14.471794,2,7,9,-4,49,-1025
1261,14.483452,5,6,10,-4,46,-1026
1262,14.495123,2,7,8,-1,53,-1028
1263,14.506785,2,5,9,-2,50,-1023
1264,14.518451,4,4,7,2,48,-1025
1265,14.530114,4,6,8,-2,47,-1024
1266,14.541804,4,7,10,-5,49,-1021
1267,14.553451,3,5,9,-1,56,-1019
1268,14.565093,2,7,8,-3,48,-1022
1269,14.57674,3,4,11,-3,52,-1024
1270,14.588411,3,6,7,-2,48,-1031
1271,14.600066,0,5,8,-9,52,-1024
1272,14.611716,2,6,9,-4,51,-1025
1273,14.62336,1,8,8,0,52,-1021
1274,14.635037,2,5,9,1,48,-1023
1275,14.64687,1,8,9,0,52,-1026
1276,14.658565,2,6,10,-2,53,-1027
1277,14.670162,2,6,9,-4,50,-1028
1278,14.681762,2,5,12,-5,53,-1031
1279,14.69331,3,6,9,-1,52,-1017
1280,14.704892,2,6,9,-4,52,-1027
1281,14.716439,3,4,10,-6,53,-1026
1282,14.728009,2,6,9,-3,52,-1025
1283,14.739551,4,5,10,0,49,-1024
1284,14.751107,2,7,9,-4,49,-1020
1285,14.762795,4,8,9,-5,51,-1021
1286,14.774458,3,6,8,-1,52,-1023
1287,14.786124,3,9,8,-3,52,-1023
1288,14.797782,3,7,8,-4,53,-1021
1289,14.809451,2,7,10,-3,49,-1023
1290,14.82111,4,6,9,-4,52,-1019
1291,14.832761,1,5,10,-3,48,-1022
1292,14.844407,2,7,10,-2,53,-1025
1293,14.856108,2,6,8,-4,49,-1023
1294,14.867753,3,6,8,-3,52,-1024
1295,14.879429,2,6,9,-4,51,-1018
1296,14.891086,3,6,11,-6,51,-1017
1297,14.902758,1,9,8,0,49,-1029
1298,14.914374,2,5,8,-1,52,-1018
1299,14.926056,3,7,9,0,50,-1022
1300,14.937729,0,8,7,0,51,-1026
1301,14.949382,2,4,11,-1,52,-1022
1302,14.961119,3,5,8,-2,51,-1023
1303,14.972765,2,7,9,-3,53,-1022
1304,14.984317,1,8,8,-5,52,-1020
1305,14.995868,3,5,10,0,49,-1024
1306,15.007418,3,5,8,-1,50,-1023
1307,15.018968,3,6,10,-3,57,-1017
1308,15.030542,3,4,10,-5,52,-1024
1309,15.042086,1,7,9,2,49,-1023
1310,15.053728,3,8,9,-3,49,-1023
1311,15.065403,3,6,8,-1,46,-1025
1312,15.07708,1,6,10,-4,53,-1020
1313,15.088771,2,6,10,-1,52,-1023
1314,15.100431,2,6,8,-3,51,-1028
1315,15.112087,1,5,9,-9,48,-1020
1316,15.123741,2,6,8,-3,49,-1027
1317,15.135387,2,7,8,-3,50,-1023
1318,15.147073,0,6,9,-1,51,-1019
1319,15.158773,4,6,8,1,51,-1020
1320,15.17045,3,6,8,-2,51,-1025
1321,15.182136,3,8,9,-5,54,-1022
1322,15.193814,2,5,8,-5,52,-1026
1323,15.205465,3,5,8,-4,54,-1023
1324,15.217111,3,8,10,-4,52,-1027
1325,15.228786,2,7,10,0,47,-1020
1326,15.240445,0,6,9,-2,52,-1018
1327,15.252093,1,6,7,3,49,-1029
1328,15.263767,2,6,9,0,49,-1026
1329,15.275452,3,5,8,-3,52,-1018
1330,15.287156,4,4,9,-3,52,-1026
1331,15.298741,2,6,9,-4,52,-1023
1332,15.310308,2,5,8,-3,47,-1020
1333,15.32188,3,8,10,-8,52,-1024
1334,15.333427,4,7,8,-6,55,-1020
1335,15.34497,2,7,10,-1,54,-1027
1336,15.356516,3,9,7,0,47,-1026
1337,15.368078,0,7,8,-3,50,-1022
1338,15.379654,2,6,9,-3,54,-1023
1339,15.391351,5,7,10,-4,48,-1017
1340,15.403043,3,7,7,-2,51,-1019
1341,15.414704,2,5,8,-3,48,-1022
1342,15.426509,3,5,9,-1,50,-1025
1343,15.438472,3,4,9,-3,54,-1016
1344,15.450133,2,6,10,-3,49,-1024
1345,15.461867,4,8,10,-2,53,-1023
1346,15.473546,2,7,9,-7,54,-1020
1347,15.485315,4,7,10,-3,50,-1020
1348,15.496994,4,6,9,-3,52,-1023
1349,15.508543,2,7,10,-6,47,-1018
1350,15.520105,3,6,13,0,53,-1021
1351,15.531658,0,5,7,-6,50,-1024
1352,15.543211,2,6,8,-4,55,-1024
1353,15.554798,1,8,11,-1,49,-1029
1354,15.566386,2,6,9,-5,51,-1023
1355,15.577962,3,8,9,1,54,-1024
1356,15.589528,0,7,9,-3,50,-1034
1357,15.601166,3,7,9,-3,47,-1019
1358,15.612821,2,7,8,-3,50,-1021
1359,15.624496,1,7,9,-3,52,-1024
1360,15.63617,4,6,8,0,49,-1025
1361,15.647823,4,5,10,-1,50,-1024
1362,15.659506,3,6,7,-1,49,-1024
1363,15.671295,2,4,8,0,51,-1027
1364,15.682961,2,8,11,-2,47,-1023
1365,15.69466,3,7,10,-2,48,-1022
1366,15.70637,4,6,8,-3,51,-1018
1367,15.717967,3,5,8,-3,50,-1021
1368,15.729528,3,7,8,-3,49,-1019
1369,15.741105,2,7,8,-3,53,-1018
1370,15.752657,3,9,10,-2,52,-1023
1371,15.76425,2,6,9,0,51,-1018
1372,15.775802,1,7,9,1,52,-1022
1373,15.787382,3,7,10,-3,50,-1024
1374,15.798952,3,6,7,-2,50,-1024
1375,15.810635,3,7,8,-3,49,-1022
1376,15.822299,2,7,8,-3,49,-1020
1377,15.833982,1,7,9,-4,51,-1027
1378,15.845651,1,7,7,-4,51,-1017
1379,15.857299,2,5,10,0,48,-1022
1380,15.868948,2,7,9,-4,48,-1027
1381,15.880602,3,7,9,-4,52,-1022
1382,15.892239,2,5,7,-3,46,-1022
1383,15.903904,4,6,9,2,50,-1023
1384,15.915566,2,7,10,0,47,-1023
1385,15.927139,1,5,9,-6,54,-1019
1386,15.938721,3,6,9,-2,48,-1021
1387,15.950268,1,5,10,-2,52,-1017
1388,15.961832,0,6,9,0,52,-1022
1389,15.973386,1,7,6,-2,49,-1023
1390,15.984934,2,5,9,-2,49,-1019
1391,15.996481,4,5,7,-4,48,-1030
1392,16.008031,3,6,7,-3,48,-1016
1393,16.019648,3,5,9,1,53,-1021
1394,16.031309,4,5,7,-6,51,-1023
1395,16.042965,1,6,10,-5,50,-1021
1396,16.054667,2,6,8,-1,54,-1021
1397,16.066318,3,6,7,-2,53,-1018
1398,16.077996,3,5,6,-2,50,-1020
1399,16.089674,0,6,11,-3,49,-1016
1400,16.101321,3,6,9,-3,51,-1026
1401,16.113011,3,7,10,-3,53,-1024
1402,16.124669,4,3,8,-6,49,-1026
1403,16.136221,5,6,8,-1,53,-1027
1404,16.147769,1,5,11,-2,50,-1021
1405,16.159324,1,4,9,0,50,-1024
1406,16.170892,1,8,7,-2,49,-1016
1407,16.182494,3,5,9,-1,49,-1028
1408,16.194074,2,7,9,0,48,-1018
1409,16.205636,2,7,9,-1,48,-1015
1410,16.217186,0,7,8,-3,50,-1022
1411,16.228809,1,8,11,-4,49,-1021
1412,16.240455,3,5,10,0,52,-1025
1413,16.25211,2,5,10,-3,49,-1024
1414,16.263757,3,7,10,-6,51,-1022
1415,16.275432,5,7,8,-3,51,-1019
1416,16.287085,1,6,10,-1,52,-1027
1417,16.298753,1,6,11,-3,54,-1018
1418,16.310376,2,6,8,-3,49,-1023
1419,16.322079,2,8,9,0,53,-1024
1420,16.333738,1,7,7,-1,48,-1016
1421,16.345295,2,6,9,-5,53,-1022
1422,16.356841,2,6,9,-7,53,-1020
1423,16.368393,1,4,9,-1,48,-1022
1424,16.379943,1,9,9,0,53,-1019
1425,16.391495,5,5,9,-1,50,-1020
1426,16.403045,4,5,10,0,48,-1020
1427,16.414627,0,9,8,-8,51,-1025
1428,16.426199,2,6,9,-3,49,-1022
1429,16.437882,0,7,9,-2,48,-1022
1430,16.449547,2,6,8,-3,50,-1024
1431,16.461197,3,5,10,-4,53,-1020
1432,16.472841,1,7,8,-1,52,-1027
1433,16.4845,3,6,5,-3,51,-1032
1434,16.496141,2,7,9,-1,53,-1026
1435,16.507798,2,6,9,-2,49,-1027
1436,16.519452,4,5,8,-1,48,-1018
1437,16.531155,2,8,9,-1,53,-1023
1438,16.542713,0,5,8,0,51,-1021
1439,16.55429,1,6,10,-4,52,-1022
1440,16.565838,1,6,9,-3,53,-1020
1441,16.577388,1,7,8,-4,53,-1020
1442,16.588974,4,6,9,-5,44,-1019
1443,16.600513,1,5,8,-3,49,-1017
1444,16.612052,4,5,6,-4,51,-1023
1445,16.623616,3,6,9,-1,50,-1014
1446,16.635235,4,5,10,-1,49,-1021
1447,16.646901,2,6,9,-2,52,-1020
1448,16.658562,1,7,10,-2,50,-1021
1449,16.670254,2,4,9,0,52,-1021
1450,16.681925,1,6,6,0,51,-1028
1451,16.693617,2,7,9,1,50,-1018
1452,16.70528,2,8,8,-1,48,-1023
1453,16.716936,2,7,9,-5,49,-1018
1454,16.7286,2,6,9,-5,53,-1016
1455,16.740254,2,6,9,-5,51,-1017
1456,16.75184,2,5,9,-1,51,-1025
1457,16.763396,3,7,11,-3,52,-1025
1458,16.774952,2,7,10,-5,52,-1016
1459,16.786499,4,6,9,-4,48,-1021
1460,16.798073,3,6,10,-2,50,-1025
1461,16.809593,0,5,9,-1,49,-1022
1462,16.821145,2,7,8,-3,54,-1019
1463,16.83269,3,3,10,2,50,-1026
1464,16.844351,1,6,9,-3,49,-1019
1465,16.856001,4,6,11,-5,51,-1025
1466,16.867677,1,6,10,-1,53,-1023
1467,16.87933,1,5,9,-4,54,-1019
1468,16.891006,2,6,7,-4,49,-1021
1469,16.90265,1,6,8,-2,48,-1026
1470,16.914354,4,5,8,-1,53,-1021
1471,16.926201,1,8,6,-5,53,-1021
1472,16.937891,3,9,11,-4,47,-1020
1473,16.949606,2,8,9,-2,52,-1023
1474,16.961154,3,5,9,-1,50,-1030
1475,16.972701,3,6,10,-1,49,-1022
1476,16.984253,2,6,9,-4,50,-1016
1477,16.995804,1,7,10,-5,49,-1021
1478,17.007369,4,6,9,-4,52,-1021
1479,17.018945,3,6,9,-1,54,-1025
1480,17.030498,3,6,7,-1,48,-1026
1481,17.042088,3,6,8,-4,47,-1017
1482,17.053749,1,7,9,-1,53,-1028
1483,17.065431,2,6,8,-1,50,-1020
1484,17.077123,3,7,6,-1,51,-1019
1485,17.088774,4,5,8,-3,57,-1024
1486,17.100426,2,10,8,0,52,-1025
1487,17.11208,1,5,10,-5,55,-1033
1488,17.123719,4,6,8,-7,53,-1026
1489,17.13537,2,6,8,-4,48,-1015
1490,17.147063,3,6,10,-3,48,-1021
1491,17.158731,2,5,11,0,51,-1027
1492,17.170324,2,9,9,-1,50,-1019
1493,17.181889,2,9,8,-2,55,-1023
1494,17.193469,0,6,7,-1,52,-1029
1495,17.205026,3,8,8,-1,51,-1021
1496,17.216582,2,6,9,-1,51,-1023
1497,17.228138,3,7,8,-2,51,-1023
1498,17.239685,1,6,8,-2,48,-1017
1499,17.251242,2,4,10,-1,51,-1031
1500,17.262895,1,6,8,-9,53,-1023
1501,17.274568,3,6,7,1,50,-1021
1502,17.286275,2,5,9,-4,53,-1025
1503,17.297966,1,7,10,-4,50,-1016
1504,17.309611,1,6,8,-1,51,-1022
1505,17.321302,1,4,10,-2,50,-1026
1506,17.332947,1,7,9,1,48,-1022
1507,17.344597,2,6,11,0,51,-1027
1508,17.356287,1,6,8,-5,47,-1024
1509,17.367954,3,6,9,-3,50,-1019
1510,17.379521,1,6,10,-4,49,-1021
1511,17.391075,2,7,10,-2,52,-1020
1512,17.402639,1,4,8,-3,48,-1020
1513,17.414203,2,7,9,-4,52,-1024
1514,17.425828,2,6,8,-4,50,-1027
1515,17.437395,4,7,8,-3,50,-1026
1516,17.44894,4,5,8,1,49,-1018
1517,17.460593,3,7,8,-4,51,-1018
1518,17.472203,4,6,7,-2,53,-1023
1519,17.483859,2,7,10,-2,51,-1024
1520,17.495554,2,5,8,-7,51,-1023
1521,17.507194,2,7,10,-2,49,-1026
1522,17.5189,2,6,9,-3,50,-1029
1523,17.53056,2,5,6,-5,50,-1026
1524,17.542244,2,7,9,-2,49,-1023
1525,17.553917,2,7,8,-2,50,-1021
1526,17.565621,2,7,10,-2,55,-1024
1527,17.577303,2,7,8,0,51,-1025
1528,17.588878,2,7,7,-6,49,-1025
1529,17.600426,0,6,10,-4,53,-1027
1530,17.611976,3,5,8,-1,48,-1013
1531,17.62353,3,6,7,-3,47,-1023
1532,17.635109,3,3,8,-9,53,-1023
1533,17.64668,2,6,8,-2,50,-1024
1534,17.658244,2,7,8,-2,50,-1020
1535,17.669852,2,6,9,-3,56,-1021
1536,17.681474,2,5,10,-4,53,-1021
1537,17.693146,2,7,6,-3,52,-1020
1538,17.7048,1,7,9,-2,46,-1026
1539,17.716461,2,6,9,-4,52,-1019
1540,17.728126,2,7,10,-2,52,-1025
1541,17.739811,2,9,12,-4,50,-1027
1542,17.751458,3,5,9,-2,50,-1023
1543,17.763165,3,6,9,0,55,-1025
1544,17.774822,4,6,10,-5,49,-1015
1545,17.786378,1,6,8,-3,51,-1024
1546,17.797997,2,7,8,-1,50,-1025
1547,17.809578,0,8,10,-2,49,-1017
1548,17.821132,3,6,10,-2,52,-1019
1549,17.832715,2,6,9,1,51,-1020
1550,17.844271,3,5,9,0,51,-1021
1551,17.855862,1,5,6,-2,53,-1018
1552,17.867407,3,8,9,-5,52,-1023
1553,17.878975,1,9,7,-3,52,-1015
1554,17.890674,3,5,9,0,52,-1028
1555,17.902379,3,7,10,-4,49,-1022
1556,17.914046,0,6,10,-3,45,-1023
1557,17.92572,2,8,8,-7,50,-1021
1558,17.937393,1,8,8,-2,50,-1024
1559,17.949043,2,9,8,-2,50,-1022
1560,17.960694,1,6,9,-2,52,-1018
1561,17.972341,1,9,11,-2,51,-1026
1562,17.983997,2,7,8,-4,53,-1022
1563,17.995658,0,7,9,-2,45,-1021
1564,18.007299,3,6,10,-2,49,-1018
1565,18.018959,1,8,6,-4,50,-1020
1566,18.030651,3,5,5,-7,52,-1022
1567,18.042321,1,6,10,-4,48,-1017
1568,18.054,3,7,10,0,53,-1023
1569,18.065671,1,7,10,-4,50,-1019
1570,18.077315,2,7,8,-4,52,-1015
1571,18.088956,5,6,7,0,51,-1023
1572,18.100498,1,7,7,-6,48,-1019
1573,18.11204,3,7,7,-5,48,-1032
1574,18.123592,2,8,8,0,49,-1025
1575,18.135137,4,6,7,-1,47,-1022
1576,18.146681,1,5,9,-1,51,-1021
1577,18.158226,1,9,9,1,53,-1022
1578,18.169776,2,6,9,-1,51,-1029
1579,18.181362,1,6,10,-5,50,-1025
1580,18.193051,2,6,8,-4,51,-1022
1581,18.204706,4,9,8,-2,52,-1027
1582,18.216349,3,9,10,-1,51,-1018
1583,18.228,3,5,10,-1,46,-1021
1584,18.239667,2,5,11,0,46,-1026
1585,18.251319,3,4,8,0,52,-1021
1586,18.262964,2,5,6,-7,53,-1021
1587,18.274651,0,5,10,-7,52,-1022
1588,18.28629,1,4,10,-1,47,-1022
1589,18.297831,4,5,9,-1,55,-1024
1590,18.309378,1,8,10,0,51,-1029
1591,18.320919,1,7,9,-1,49,-1028
1592,18.332462,2,8,10,-1,50,-1019
1593,18.344002,3,7,11,-4,52,-1025
1594,18.355571,2,5,8,-4,51,-1021
1595,18.367122,1,6,10,-5,48,-1023
1596,18.378691,2,6,8,0,51,-1019
1597,18.390251,2,4,9,-2,46,-1026
1598,18.401891,2,7,10,0,51,-1018
1599,18.413549,5,6,6,-3,52,-1025
1600,18.4252,2,7,11,1,51,-1024
1601,18.436861,2,6,8,-4,51,-1025
1602,18.448522,4,6,8,-5,51,-1022
1603,18.46018,1,4,6,-6,51,-1025
1604,18.471825,2,6,10,0,54,-1024
1605,18.483509,1,5,8,-2,52,-1024
1606,18.495179,3,5,7,-7,50,-1019
1607,18.506871,3,5,8,2,54,-1020
1608,18.518456,3,6,9,-4,53,-1023
1609,18.530016,2,9,9,-6,50,-1026
1610,18.541597,3,6,10,-3,51,-1025
1611,18.553156,1,6,9,1,49,-1019
1612,18.564751,2,6,11,-2,52,-1022
1613,18.578818,2,7,7,-2,52,-1028
1614,18.59046,1,7,7,-5,52,-1030
1615,18.602041,3,6,9,-3,51,-1023
1616,18.613595,4,7,10,-1,51,-1022
1617,18.625134,2,4,9,0,49,-1022
1618,18.636673,3,7,8,0,50,-1021
1619,18.648216,2,7,9,-5,50,-1023
1620,18.659761,2,6,8,0,50,-1025
1621,18.67133,1,7,7,-3,51,-1023
1622,18.68288,3,5,7,-5,48,-1017
1623,18.69447,4,7,7,-1,49,-1023
1624,18.706094,3,5,7,-3,52,-1022
1625,18.717737,3,5,10,-5,44,-1019
1626,18.729402,3,5,7,-2,53,-1029
1627,18.74106,1,7,9,-1,51,-1016
1628,18.752702,5,8,9,-5,52,-1029
1629,18.764345,3,4,8,-5,49,-1018
1630,18.776012,2,10,10,-1,52,-1024
1631,18.787663,3,7,10,-1,52,-1028
1632,18.799353,0,8,9,-4,48,-1021
1633,18.811051,4,4,9,-5,50,-1027
1634,18.822754,1,6,9,-2,50,-1024
1635,18.834317,2,5,10,-3,51,-1019
1636,18.845838,4,6,7,-3,53,-1021
1637,18.857389,4,6,9,0,49,-1019
1638,18.868936,3,6,7,-1,51,-1018
1639,18.88048,1,4,9,-1,53,-1024
1640,18.892033,3,6,9,-2,51,-1021
1641,18.903602,1,6,10,-4,51,-1018
1642,18.915162,1,5,9,0,51,-1020
1643,18.926792,2,6,9,-4,48,-1023
1644,18.938458,2,7,9,-5,47,-1021
1645,18.950118,3,5,8,-3,46,-1023
1646,18.961785,1,4,8,-3,49,-1020
1647,18.973439,1,9,8,-2,55,-1026
1648,18.985084,2,6,9,-2,53,-1026
1649,18.996741,4,7,8,-3,51,-1022
1650,19.00843,1,7,9,-4,51,-1018
1651,19.020087,4,7,9,-5,51,-1023
1652,19.031734,3,6,10,-3,48,-1017
1653,19.043288,0,5,11,-1,50,-1019
1654,19.054803,1,8,8,-2,50,-1019
1655,19.066316,2,7,9,-1,52,-1021
1656,19.077861,3,6,8,0,51,-1021
1657,19.089403,2,6,10,-6,47,-1021
1658,19.100951,2,6,8,-2,50,-1018
1659,19.112497,2,5,7,-5,49,-1025
1660,19.124074,3,6,7,-2,50,-1023
1661,19.135695,2,7,9,-1,53,-1028
1662,19.147346,1,8,6,-5,50,-1032
1663,19.159031,4,9,9,-5,49,-1016
1664,19.170698,2,4,10,-2,52,-1020
1665,19.182365,3,7,7,-6,49,-1030
1666,19.194056,1,6,7,2,52,-1022
1667,19.205725,4,7,10,-4,50,-1024
1668,19.217392,2,8,9,-3,49,-1024
1669,19.229058,2,5,8,-7,49,-1024
1670,19.240709,3,7,10,-4,52,-1020
1671,19.252266,3,5,9,0,52,-1017
1672,19.263844,2,7,7,-3,46,-1018
1673,19.2754,2,6,9,-3,50,-1023
1674,19.287012,4,7,10,-7,47,-1017
1675,19.29856,4,6,9,-1,51,-1019
1676,19.310122,2,5,8,0,50,-1026
1677,19.321671,2,5,9,-1,51,-1026
1678,19.333234,2,7,8,-5,48,-1026
1679,19.344864,1,5,10,-2,51,-1018
1680,19.356525,3,5,9,-8,49,-1025
1681,19.368182,2,6,9,-3,54,-1022
1682,19.379833,1,7,10,-4,51,-1018
1683,19.391508,3,7,9,-1,52,-1017
1684,19.403161,4,4,7,-3,54,-1023
1685,19.414821,3,5,10,-4,52,-1021
1686,19.426508,2,7,9,0,53,-1028
1687,19.438186,3,7,7,-5,52,-1020
1688,19.449868,0,6,9,-2,53,-1027
1689,19.461521,3,5,6,-4,52,-1024
1690,19.473177,1,7,7,-3,54,-1023
1691,19.484868,4,7,7,0,49,-1022
1692,19.496523,3,6,9,-2,49,-1025
1693,19.508171,1,4,10,1,51,-1023
1694,19.519822,2,4,8,-2,48,-1020
1695,19.531516,2,6,9,-2,54,-1026
1696,19.543215,3,5,10,-3,52,-1021
1697,19.554902,3,6,9,-1,54,-1025
1698,19.566554,3,5,7,-3,50,-1017
1699,19.578233,2,6,9,2,51,-1022
1700,19.589908,3,7,8,0,51,-1019
1701,19.601553,3,7,7,-2,50,-1016
1702,19.613204,3,6,8,-1,53,-1024
1703,19.624859,2,7,8,-3,52,-1021
1704,19.63651,3,9,8,-2,51,-1018
1705,19.648166,1,7,9,0,52,-1023
1706,19.659814,2,5,10,-5,48,-1026
1707,19.671462,2,6,8,-1,52,-1021
1708,19.683159,1,8,10,-3,49,-1022
1709,19.694814,4,7,9,-1,50,-1023
1710,19.70649,2,8,9,2,50,-1014
1711,19.718164,1,5,10,-3,46,-1025
1712,19.729837,3,5,8,-5,54,-1010
1713,19.741484,2,6,9,0,47,-1018
1714,19.753179,3,6,10,-2,50,-1018
1715,19.764833,2,6,8,-4,45,-1020
1716,19.776486,2,5,9,-1,51,-1022
1717,19.788161,2,6,9,0,49,-1021
1718,19.799819,3,7,8,-1,53,-1020
1719,19.811469,1,4,8,-1,53,-1025
1720,19.823161,3,10,10,-2,51,-1022
1721,19.834828,3,4,9,-1,50,-1026
1722,19.846518,3,7,10,0,49,-1017
1723,19.85819,3,7,9,-7,52,-1020
1724,19.869902,2,7,9,-3,52,-1019
1725,19.88147,2,7,8,-3,50,-1020
1726,19.893011,3,4,9,-2,50,-1017
1727,19.90455,2,8,10,-2,50,-1024
1728,19.916122,2,7,8,1,51,-1019
1729,19.927667,2,5,8,-2,50,-1019
1730,19.939213,2,9,8,-5,52,-1028
1731,19.950805,5,6,10,-5,54,-1027
1732,19.962372,1,4,9,0,53,-1020
1733,19.974029,2,6,7,-1,49,-1029
1734,19.985682,2,5,10,2,51,-1025
1735,19.997325,2,6,10,-2,52,-1022
1736,20.008974,1,6,9,-2,51,-1030
1737,20.02065,2,7,11,-3,48,-1024
1738,20.03229,1,7,7,-1,49,-1023
1739,20.043936,1,8,9,0,50,-1021
1740,20.055593,2,7,9,-2,50,-1017
1741,20.067266,3,5,9,-6,50,-1018
1742,20.07892,1,5,8,-2,51,-1019
1743,20.090477,2,6,9,-6,47,-1024
1744,20.102026,5,4,8,-3,46,-1020
1745,20.1136,4,7,8,-6,54,-1018
1746,20.12515,2,7,8,0,47,-1023
1747,20.136718,2,7,7,-4,52,-1026
1748,20.148256,2,7,9,-7,51,-1027
1749,20.159809,3,7,10,-1,48,-1022
1750,20.171369,3,7,9,0,54,-1022
1751,20.183019,2,5,8,-3,50,-1022
1752,20.194676,3,7,9,-5,49,-1023
1753,20.206371,1,6,10,-4,50,-1017
1754,20.218031,3,7,9,-3,51,-1023
1755,20.229678,5,4,9,-2,54,-1027
1756,20.241333,2,7,10,-3,47,-1017
1757,20.253004,2,7,8,0,49,-1024
1758,20.264655,1,6,9,-1,52,-1032
1759,20.276319,0,7,9,0,50,-1024
1760,20.288009,3,7,10,-1,52,-1018
1761,20.299581,2,7,8,-3,50,-1019
1762,20.311133,3,8,7,-3,53,-1022
1763,20.322685,3,3,9,-2,47,-1020
1764,20.334237,3,5,9,-2,52,-1022
1765,20.345835,4,7,8,0,51,-1020
1766,20.357386,2,8,7,-7,52,-1020
1767,20.368933,2,7,7,-3,48,-1016
1768,20.380491,3,7,10,1,53,-1023
1769,20.392137,3,7,11,-2,50,-1021
1770,20.40379,2,4,10,-4,51,-1024
1771,20.41544,2,5,10,-5,49,-1026
1772,20.427091,2,9,9,0,49,-1020
1773,20.438763,3,4,12,-1,51,-1023
1774,20.450448,3,8,7,-5,54,-1018
1775,20.462112,1,5,9,-7,52,-1022
1776,20.473777,2,7,8,-6,51,-1017
1777,20.485442,1,5,7,-3,49,-1018
1778,20.497096,3,6,8,-2,51,-1021
1779,20.508645,3,5,9,-5,50,-1020
1780,20.520194,3,5,9,-2,48,-1021
1781,20.53174,4,5,11,-5,52,-1021
1782,20.543324,2,6,8,-1,48,-1020
1783,20.55488,3,7,8,-1,48,-1022
1784,20.566466,2,6,7,-8,50,-1021
1785,20.578013,2,5,9,-3,52,-1023
1786,20.589597,3,7,9,0,54,-1022
1787,20.601221,3,8,9,-2,55,-1023
1788,20.612881,3,6,9,0,50,-1023
1789,20.624549,2,8,8,-1,53,-1022
1790,20.6362,2,7,8,0,51,-1024
1791,20.647868,3,5,10,-3,49,-1026
1792,20.659537,2,4,8,-2,51,-1027
1793,20.671187,1,7,9,0,49,-1017
1794,20.682885,2,6,10,0,47,-1019
1795,20.694553,0,6,9,-3,47,-1018
1796,20.70623,3,6,9,-4,49,-1024
1797,20.717844,3,6,8,-9,49,-1029
1798,20.729398,0,7,8,-7,46,-1029
1799,20.740968,4,9,9,-6,53,-1028
1800,20.752511,3,8,9,-11,50,-1026
1801,20.764056,2,10,9,-6,56,-1027
1802,20.775606,2,10,7,-2,50,-1026
1803,20.787153,2,12,11,-3,51,-1015
1804,20.798735,4,10,11,-2,52,-1024
1805,20.810371,1,11,8,1,51,-1020
1806,20.822039,4,9,9,2,50,-1019
1807,20.833735,2,8,7,-2,50,-1026
1808,20.845393,3,9,10,-4,53,-1025
1809,20.857051,4,10,10,0,54,-1028
1810,20.868746,7,10,8,6,52,-1031
1811,20.880399,3,12,10,5,49,-1017
1812,20.892053,4,9,9,1,49,-1024
1813,20.903731,6,10,9,-6,49,-1031
1814,20.915394,6,12,8,-8,56,-1022
1815,20.926982,7,11,10,-12,53,-1015
1816,20.938581,5,9,10,-5,52,-1015
1817,20.950126,4,10,11,1,56,-1016
1818,20.961669,5,9,8,0,52,-1024
1819,20.973215,3,11,11,2,51,-1022
1820,20.984758,6,12,7,3,51,-1017
1821,20.996297,6,8,8,-4,48,-1018
1822,21.007851,5,7,9,-4,49,-1024
1823,21.019587,5,8,9,2,44,-1016
1824,21.031268,1,7,8,-2,38,-1018
1825,21.042886,0,7,11,10,39,-1022
1826,21.054549,3,5,9,10,35,-1032
1827,21.066225,0,5,8,14,43,-1020
1828,21.077868,0,6,7,6,51,-1019
1829,21.089521,3,4,6,-12,52,-1019
1830,21.101176,0,6,9,-8,61,-1023
1831,21.112846,2,5,11,-4,56,-1023
1832,21.124499,4,3,10,2,54,-1019
1833,21.136085,2,4,9,7,50,-1031
1834,21.147628,2,5,9,0,50,-1023
1835,21.159176,3,7,9,-4,56,-1019
1836,21.170733,5,4,7,-9,52,-1038
1837,21.182304,3,8,8,-8,45,-1019
1838,21.193837,5,5,7,-5,51,-1027
1839,21.205398,4,10,7,-4,46,-1023
1840,21.216987,1,9,9,5,44,-1020
1841,21.228677,5,8,9,1,49,-1020
1842,21.240347,0,8,9,2,48,-1023
1843,21.252011,2,7,8,-5,52,-1020
1844,21.263669,6,4,8,-8,51,-1021
1845,21.27534,0,7,13,4,49,-1011
1846,21.287021,2,6,9,4,50,-1020
1847,21.298679,2,5,9,10,47,-1026
1848,21.310355,0,6,9,5,53,-1019
1849,21.322035,4,6,8,-1,50,-1026
1850,21.333693,2,3,9,-2,55,-1020
1851,21.345247,2,5,9,-2,51,-1012
1852,21.356788,2,3,7,1,56,-1025
1853,21.36836,2,5,8,0,51,-1016
1854,21.379904,4,4,8,3,50,-1021
1855,21.391495,4,4,8,2,47,-1022
1856,21.403038,3,1,9,-5,46,-1018
1857,21.41457,1,1,7,-15,45,-1023
1858,21.426194,3,5,8,-8,44,-1027
1859,21.437858,1,3,10,-8,45,-1034
1860,21.449423,0,6,10,3,52,-1024
1861,21.460981,6,6,9,1,51,-1026
1862,21.47253,0,2,8,-4,50,-1004
1863,21.48408,0,0,9,-10,57,-1003
1864,21.495628,7,0,11,-8,59,-1026
1865,21.507175,8,1,9,1,58,-1075
1866,21.518731,-10,0,9,14,36,-995
1867,21.530334,-2,7,10,23,59,-1081
1868,21.541894,22,6,7,-4,26,-1035
1869,21.553458,-10,13,6,-6,46,-1043
1870,21.565004,10,11,9,-14,47,-1032
1871,21.576555,5,12,7,-21,32,-985
1872,21.5881,-1,11,7,-11,54,-1017
1873,21.599642,1,5,8,5,52,-1008
1874,21.611187,-6,4,7,13,59,-1008
1875,21.622742,8,3,5,6,65,-1032
1876,21.634426,7,1,6,-8,60,-1029
1877,21.64613,7,4,8,-15,60,-1033
1878,21.657797,5,5,10,-13,46,-1022
1879,21.669453,-1,8,7,-10,43,-1029
1880,21.681137,5,5,8,6,38,-1032
1881,21.692801,0,11,9,5,42,-1026
1882,21.704454,2,11,10,-1,46,-1032
1883,21.716123,4,13,9,-5,45,-1024
1884,21.7278,3,12,8,-10,58,-1010
1885,21.739509,10,9,9,-4,56,-1015
1886,21.751088,1,6,8,4,54,-1010
1887,21.762676,1,7,9,10,65,-1015
1888,21.774244,4,5,8,5,49,-1016
1889,21.785841,1,7,7,0,49,-1030
1890,21.79741,6,8,7,-5,46,-1034
1891,21.808964,5,10,10,-10,39,-1033
1892,21.820525,3,8,8,-4,42,-1033
1893,21.832093,6,9,9,0,36,-1028
1894,21.843717,-2,13,10,-4,39,-1020
1895,21.855377,-1,11,9,6,51,-1019
1896,21.867042,1,8,6,0,57,-1015
1897,21.878743,1,4,8,-6,64,-1014
1898,21.890385,5,8,9,-5,63,-1017
1899,21.902049,4,6,6,-5,60,-1011
1900,21.913726,5,3,12,0,53,-1024
1901,21.925388,3,6,11,1,44,-1018
1902,21.937059,1,7,8,1,48,-1019
1903,21.948712,4,4,9,5,39,-1021
1904,21.960314,0,6,9,-1,39,-1025
1905,21.971871,1,7,8,0,47,-1024
1906,21.983449,4,4,9,-2,47,-1024
1907,21.995017,0,5,8,0,53,-1026
1908,22.006563,4,7,10,-2,55,-1026
1909,22.018079,3,7,9,-9,54,-1025
1910,22.029601,0,7,10,-11,49,-1022
1911,22.041165,3,9,8,-7,48,-1024
1912,22.052786,3,8,9,-1,41,-1019
1913,22.064437,1,8,8,1,45,-1029
1914,22.076107,1,9,9,3,47,-1019
1915,22.087753,2,8,8,5,53,-1023
1916,22.099404,2,7,8,-3,52,-1018
1917,22.111077,3,7,8,-1,63,-1012
1918,22.122764,2,5,10,0,63,-1017
1919,22.134452,4,6,9,0,57,-1023
1920,22.14614,5,7,11,4,52,-1020
1921,22.15784,4,2,7,7,43,-1019
1922,22.169423,4,5,8,2,41,-1027
1923,22.18097,10,4,10,-9,29,-1011
1924,22.192516,-3,4,9,-3,36,-1034
1925,22.204063,7,2,8,2,38,-1024
1926,22.215606,2,3,9,-1,37,-1028
1927,22.22715,2,4,9,1,62,-1019
1928,22.238707,6,5,8,-1,63,-1016
1929,22.250331,0,4,9,-5,67,-1023
1930,22.261998,0,6,11,-5,66,-1015
1931,22.273681,5,1,11,-6,63,-1017
1932,22.285319,3,3,9,0,56,-1037
1933,22.296982,4,3,9,5,50,-1020
1934,22.308643,1,5,10,5,46,-1019
1935,22.32028,1,5,10,-1,35,-1022
1936,22.331928,0,5,9,-4,43,-1025
1937,22.343601,5,5,7,-4,45,-1025
1938,22.355269,3,5,9,-11,44,-1017
1939,22.366876,3,5,9,2,52,-1029
1940,22.378451,3,4,10,5,49,-1015
1941,22.389996,-2,3,10,0,51,-1026
1942,22.401575,5,2,9,-3,60,-1028
1943,22.413125,0,5,10,-9,51,-1021
1944,22.424695,2,3,9,-4,57,-1026
1945,22.436233,4,1,9,-5,47,-1017
1946,22.447785,0,4,8,-2,42,-1024
1947,22.459348,3,3,8,2,45,-1018
1948,22.471005,1,6,10,0,51,-1021
1949,22.482631,3,5,7,0,51,-1021
1950,22.494288,2,3,8,1,49,-1020
1951,22.505969,5,6,8,-8,52,-1025
1952,22.517602,2,7,9,-11,53,-1019
1953,22.529254,0,6,8,-11,59,-1026
1954,22.540906,4,7,9,5,48,-1022
1955,22.552543,-1,8,9,3,51,-1021
1956,22.564199,5,8,7,3,50,-1023
1957,22.575868,6,5,10,0,46,-1027
1958,22.587433,0,5,7,-12,50,-1018
1959,22.598987,4,3,6,-6,53,-1021
1960,22.610552,0,8,10,-6,48,-1020
1961,22.622077,-1,9,8,-2,49,-1019
1962,22.633648,4,5,9,3,53,-1021
1963,22.645208,2,7,10,2,49,-1018
1964,22.656759,3,6,10,2,56,-1024
1965,22.668318,6,4,10,-1,54,-1014
1966,22.679962,0,4,7,-3,56,-1025
1967,22.691639,4,5,8,-1,50,-1029
1968,22.703299,0,6,7,-3,48,-1020
1969,22.714956,1,7,10,-7,53,-1031
1970,22.726647,0,6,8,-7,45,-1022
1971,22.738311,0,7,9,-6,53,-1023
1972,22.749986,4,8,9,-5,51,-1026
1973,22.761613,5,6,10,-2,46,-1019
1974,22.77326,3,5,10,-2,53,-1018
1975,22.784828,2,7,8,-1,48,-1017
1976,22.796396,0,7,7,-5,48,-1027
1977,22.807952,5,8,7,-3,46,-1024
1978,22.819503,0,4,10,-3,46,-1023
1979,22.831074,5,5,10,1,52,-1025
1980,22.842633,2,7,9,2,42,-1012
1981,22.854202,0,7,8,0,51,-1025
1982,22.865776,2,7,8,-4,52,-1017
1983,22.877364,2,5,8,-5,56,-1015
1984,22.889002,3,5,9,-2,56,-1020
1985,22.900658,1,5,8,-2,56,-1023
1986,22.912306,4,7,8,3,54,-1027
1987,22.923971,3,5,8,-2,49,-1026
1988,22.935629,2,8,8,-2,49,-1024
1989,22.947277,2,8,7,-5,49,-1020
1990,22.958948,0,8,7,-6,41,-1024
1991,22.970634,2,5,8,-3,44,-1022
1992,22.982309,0,8,8,-9,44,-1023
1993,22.994012,2,7,9,-8,47,-1016
1994,23.005668,3,6,6,-4,50,-1029
1995,23.017338,2,8,9,-4,51,-1021
1996,23.028995,0,6,8,-2,52,-1023
1997,23.040641,4,6,7,-2,58,-1027
1998,23.052289,1,9,10,0,58,-1023
1999,23.063954,4,8,8,3,58,-1024
