sample,t_s,gyro_x,gyro_y,gyro_z,accel_x,accel_y,accel_z
0,1e-05,-2,12,8,-3,61,-1035
1,0.011383,3,6,9,1,60,-1039
2,0.022687,2,6,10,-3,58,-1029
3,0.033901,1,7,8,0,60,-1027
4,0.045089,1,5,9,-2,65,-1030
5,0.056282,1,5,9,-2,58,-1031
6,0.067466,3,7,9,-1,63,-1034
7,0.078651,3,3,8,1,62,-1031
8,0.089842,4,5,10,-3,64,-1033
9,0.101029,4,6,9,0,63,-1028
10,0.112212,1,7,8,0,60,-1032
11,0.123399,3,5,10,0,65,-1031
12,0.134581,4,6,8,-3,63,-1035
13,0.145775,2,7,11,-3,60,-1036
14,0.156959,4,7,6,0,61,-1031
15,0.168141,2,7,8,2,62,-1032
16,0.17934,1,5,10,0,61,-1036
17,0.190523,1,10,7,-2,64,-1033
18,0.201708,4,7,11,-1,58,-1030
19,0.212893,2,5,9,0,61,-1038
20,0.224075,3,7,10,0,65,-1032
21,0.235257,3,6,11,0,64,-1033
22,0.246448,2,6,10,-3,60,-1034
23,0.257657,2,6,8,2,66,-1032
24,0.268841,3,7,9,0,63,-1037
25,0.280025,3,6,10,-2,61,-1033
26,0.291209,2,6,10,0,59,-1033
27,0.302395,1,6,10,3,60,-1033
28,0.313586,3,5,10,0,63,-1032
29,0.32477,3,6,8,-2,62,-1036
30,0.335951,2,6,9,-3,61,-1033
31,0.347131,2,5,10,0,66,-1033
32,0.358329,2,8,9,0,65,-1032
33,0.369517,3,7,12,0,64,-1032
34,0.380701,1,6,9,1,63,-1034
35,0.391883,3,6,9,1,65,-1031
36,0.403078,2,5,8,-1,60,-1030
37,0.414265,3,6,9,-2,62,-1037
38,0.425449,4,4,8,-1,65,-1027
39,0.43663,3,6,11,-3,63,-1033
40,0.447811,3,2,8,-1,61,-1031
41,0.458997,3,5,7,0,58,-1033
42,0.470141,1,5,9,-1,64,-1028
43,0.481321,4,7,9,-2,65,-1037
44,0.492504,3,6,10,0,68,-1034
45,0.503684,1,6,9,0,63,-1032
46,0.514867,2,7,10,2,64,-1032
47,0.526064,1,7,8,-1,62,-1028
48,0.537247,2,6,10,-1,63,-1035
49,0.548436,4,6,9,-2,63,-1029
50,0.559621,4,6,9,0,61,-1029
51,0.570808,1,7,9,1,60,-1032
52,0.581958,3,6,7,1,64,-1027
53,0.593141,1,7,10,1,65,-1034
54,0.604324,3,7,10,0,64,-1034
55,0.615514,1,6,9,-2,62,-1034
56,0.626751,2,7,8,-2,63,-1035
57,0.637956,3,10,10,-2,59,-1040
58,0.64914,3,9,8,-1,60,-1036
59,0.660325,1,5,11,-2,59,-1034
60,0.671506,3,6,9,0,64,-1029
61,0.682689,2,6,9,-2,63,-1032
62,0.693882,1,4,10,-4,64,-1035
63,0.705063,2,6,9,0,63,-1036
64,0.716244,2,4,7,-4,64,-1033
65,0.72743,4,7,8,0,63,-1034
66,0.738615,4,8,9,1,64,-1030
67,0.749771,1,7,11,-4,60,-1032
68,0.76099,2,7,11,2,62,-1033
69,0.772217,2,8,7,0,62,-1029
70,0.783433,0,6,9,-1,62,-1037
71,0.794622,3,7,8,-3,62,-1033
72,0.805772,2,5,8,-6,63,-1033
73,0.816956,4,7,9,0,65,-1036
74,0.828138,2,8,9,1,65,-1035
75,0.839343,3,6,9,-2,63,-1030
76,0.850532,3,7,8,-2,62,-1036
77,0.86173,3,6,11,0,61,-1034
78,0.872925,0,5,8,4,64,-1032
79,0.88411,2,5,11,0,65,-1038
80,0.895297,2,7,9,3,62,-1036
81,0.906483,3,8,8,0,63,-1031
82,0.91767,3,6,9,2,67,-1031
83,0.928855,2,8,9,0,63,-1034
84,0.940037,2,6,9,-3,66,-1029
85,0.951223,4,6,10,-4,68,-1028
86,0.962411,3,4,7,-3,62,-1027
87,0.97359,1,9,12,1,63,-1036
88,0.984773,4,6,12,-2,60,-1033
89,0.995955,2,6,9,-1,63,-1031
90,1.007139,2,5,9,3,61,-1033
91,1.018327,1,7,9,-3,61,-1029
92,1.029516,2,5,9,3,65,-1026
93,1.040701,0,7,9,-1,67,-1033
94,1.051883,2,8,10,-3,62,-1031
95,1.063065,1,5,9,-3,63,-1027
96,1.074252,1,4,10,-1,60,-1031
97,1.085404,3,6,10,0,64,-1030
98,1.096588,2,6,8,-3,63,-1033
99,1.107771,2,7,7,-3,65,-1035
100,1.118964,1,6,7,-1,61,-1034
101,1.13014,4,9,8,-1,59,-1033
102,1.141322,3,7,10,0,63,-1031
103,1.152503,3,8,8,2,65,-1037
104,1.163685,2,6,9,-2,66,-1030
105,1.174869,2,6,10,0,61,-1033
106,1.186065,3,4,10,-5,62,-1033
107,1.197247,4,4,8,1,63,-1035
108,1.208436,1,7,9,1,64,-1038
109,1.219614,2,7,10,0,65,-1035
110,1.2308,3,6,10,0,62,-1030
111,1.241957,3,8,9,0,62,-1034
112,1.253138,4,7,8,0,62,-1036
113,1.26432,4,6,9,0,61,-1036
114,1.275507,3,6,10,0,64,-1031
115,1.286689,2,6,9,0,65,-1029
116,1.29788,1,8,11,-2,63,-1031
117,1.309061,1,7,8,-1,63,-1031
118,1.320243,3,8,9,-2,61,-1035
119,1.331427,2,7,8,-3,62,-1029
120,1.342609,3,7,8,0,64,-1035
121,1.353773,2,7,7,-2,64,-1039
122,1.364959,4,6,9,-1,62,-1032
123,1.376142,1,7,8,-2,67,-1032
124,1.387336,3,5,8,0,62,-1029
125,1.39852,2,7,10,0,60,-1026
126,1.409706,4,7,10,-1,62,-1034
127,1.420892,3,4,9,0,64,-1033
128,1.432074,2,8,10,0,57,-1032
129,1.443258,2,7,9,-1,60,-1032
130,1.454447,3,7,9,-3,63,-1033
131,1.465588,4,8,8,-2,66,-1035
132,1.476784,1,5,8,-3,62,-1030
133,1.487969,4,7,7,-4,63,-1033
134,1.499155,2,6,8,-1,61,-1030
135,1.510325,3,8,8,0,62,-1032
136,1.521514,1,8,8,0,62,-1032
137,1.532695,2,6,9,-1,62,-1031
138,1.543875,0,6,10,3,67,-1032
139,1.555056,3,6,10,-3,66,-1032
140,1.566251,3,6,9,-2,62,-1033
141,1.577403,3,5,8,0,62,-1032
142,1.588589,3,6,9,1,62,-1027
143,1.599769,2,6,12,2,63,-1036
144,1.61095,1,5,11,5,62,-1027
145,1.622141,2,6,7,0,65,-1034
146,1.633323,1,6,9,-3,65,-1032
147,1.644505,4,5,9,-1,61,-1029
148,1.655691,4,6,9,0,68,-1035
149,1.666875,3,5,10,-4,61,-1028
150,1.678078,3,5,9,-1,61,-1033
151,1.68926,2,6,8,0,63,-1030
152,1.700442,3,6,10,-2,63,-1032
153,1.711623,2,7,9,4,66,-1033
154,1.722803,2,7,10,2,66,-1036
155,1.733957,2,7,10,4,63,-1029
156,1.745141,3,7,7,1,64,-1027
157,1.756323,1,8,9,-3,64,-1034
158,1.767505,2,6,12,-2,60,-1032
159,1.778684,1,8,10,0,65,-1035
160,1.789879,3,5,10,0,65,-1028
161,1.801062,3,7,9,0,64,-1031
162,1.812248,1,6,10,1,64,-1025
163,1.823429,2,6,8,-2,61,-1030
164,1.834625,2,5,7,0,63,-1031
165,1.845772,3,8,12,-1,63,-1041
166,1.856955,3,7,9,1,64,-1034
167,1.868135,3,4,9,-2,64,-1029
168,1.879333,1,7,9,2,69,-1029
169,1.890514,3,7,8,-2,62,-1029
170,1.901699,1,6,8,-2,63,-1030
171,1.91288,2,4,9,-6,64,-1031
172,1.92406,3,5,10,-2,62,-1030
173,1.935244,4,8,10,-2,60,-1035
174,1.946436,1,6,10,-2,58,-1033
175,1.95759,1,3,9,0,63,-1034
176,1.968775,0,8,7,-3,59,-1037
177,1.979958,2,7,8,-1,62,-1036
178,1.99114,2,6,9,-2,66,-1034
179,2.002325,1,4,9,-5,65,-1028
180,2.013511,2,7,10,-5,59,-1035
181,2.02469,2,9,8,3,63,-1032
182,2.035871,4,7,11,1,66,-1037
183,2.04705,2,6,7,-3,63,-1028
184,2.058244,2,5,9,-1,63,-1028
185,2.069402,3,5,10,0,64,-1027
186,2.080586,3,5,9,0,62,-1028
187,2.091767,4,7,9,1,63,-1032
188,2.102953,3,6,9,-4,64,-1029
189,2.114141,2,6,10,1,63,-1034
190,2.125321,2,6,8,-1,60,-1041
191,2.136501,4,5,8,-2,62,-1035
192,2.147682,2,6,11,-1,64,-1032
193,2.158863,3,5,7,-1,62,-1036
194,2.170044,3,6,10,-3,62,-1032
195,2.181225,4,5,10,2,64,-1037
196,2.192421,0,5,9,-1,65,-1028
197,2.203601,2,6,7,-6,64,-1029
198,2.214785,3,7,9,-3,63,-1037
199,2.225961,3,5,9,0,63,-1034
200,2.237143,4,4,9,-2,63,-1035
201,2.248328,2,5,9,-1,63,-1031
202,2.259512,3,7,10,0,61,-1025
203,2.270692,4,7,9,-4,62,-1030
204,2.281883,3,7,10,0,59,-1038
205,2.293062,3,6,9,-1,65,-1034
206,2.304243,3,7,8,-2,67,-1030
207,2.315422,3,6,9,1,62,-1033
208,2.326605,3,5,10,2,66,-1031
209,2.337772,1,6,8,-3,59,-1031
210,2.348956,2,8,9,-2,60,-1028
211,2.360135,3,7,10,-2,58,-1033
212,2.371316,3,5,9,-3,65,-1031
213,2.382537,4,8,10,4,68,-1031
214,2.393723,4,7,8,0,60,-1035
215,2.404914,1,9,11,2,60,-1024
216,2.416095,0,4,10,-2,60,-1030
217,2.427283,0,9,8,0,64,-1030
218,2.438465,2,5,10,-3,61,-1033
219,2.44965,3,6,9,-1,65,-1033
220,2.46083,2,7,8,0,59,-1035
221,2.472011,2,6,11,4,59,-1028
222,2.483191,1,5,9,0,66,-1032
223,2.494374,2,8,10,1,64,-1038
224,2.505557,3,6,9,-1,66,-1036
225,2.516737,2,4,11,-2,60,-1036
226,2.527917,2,6,11,-1,61,-1029
227,2.539099,5,7,10,0,63,-1031
228,2.550292,3,9,10,0,65,-1028
229,2.561479,4,3,8,0,61,-1036
230,2.572662,3,5,7,0,62,-1031
231,2.583845,2,6,9,-1,61,-1032
232,2.595033,1,7,10,-3,62,-1036
233,2.606218,2,5,9,-4,61,-1027
234,2.617403,2,4,10,-1,66,-1035
235,2.628586,2,7,8,2,65,-1033
236,2.639771,3,8,9,2,64,-1034
237,2.650954,2,6,11,0,61,-1033
238,2.662139,2,9,7,0,58,-1037
239,2.673325,2,5,10,-3,64,-1036
240,2.684505,3,7,9,-1,62,-1028
241,2.695684,4,8,6,0,63,-1031
242,2.706865,2,5,11,-1,58,-1035
243,2.718062,2,4,10,-3,67,-1035
244,2.729244,3,5,9,-1,61,-1031
245,2.740425,2,5,8,0,62,-1027
246,2.751607,2,5,9,0,62,-1030
247,2.76279,5,5,7,0,62,-1028
248,2.773961,1,7,10,-4,63,-1028
249,2.785144,2,6,10,1,63,-1031
250,2.796328,2,8,8,-2,64,-1031
251,2.807516,3,8,9,1,64,-1035
252,2.818699,3,7,11,-1,63,-1030
253,2.829936,2,4,10,4,60,-1033
254,2.841121,1,6,9,-1,64,-1042
255,2.852303,1,5,9,-2,60,-1027
256,2.863484,2,8,10,-3,60,-1032
257,2.874665,2,6,12,-1,59,-1031
258,2.88585,1,7,10,-2,64,-1028
259,2.897034,3,6,10,3,64,-1031
260,2.908241,1,6,10,1,65,-1024
261,2.919424,2,7,8,0,63,-1030
262,2.930608,1,6,7,-2,64,-1027
263,2.941779,2,6,9,-2,63,-1034
264,2.952968,3,5,9,0,63,-1028
265,2.964158,2,7,8,-3,60,-1029
266,2.975344,3,5,11,-2,63,-1031
267,2.98653,0,4,8,-1,61,-1034
268,2.997717,3,6,10,-4,66,-1038
269,3.008907,2,7,9,-3,65,-1038
270,3.020131,3,5,9,-1,61,-1030
271,3.031407,2,7,9,1,64,-1029
272,3.042597,2,6,7,0,61,-1036
273,3.053775,2,5,10,-3,65,-1030
274,3.064962,1,5,11,0,66,-1032
275,3.076146,3,5,9,0,66,-1035
276,3.087333,4,5,8,0,62,-1028
277,3.098518,3,6,8,0,59,-1033
278,3.109708,5,8,9,1,59,-1035
279,3.120895,1,6,8,-1,61,-1026
280,3.132079,1,6,8,-3,65,-1033
281,3.143266,2,7,10,0,65,-1030
282,3.154454,3,7,10,-1,59,-1030
283,3.16564,2,7,8,1,59,-1035
284,3.176829,1,6,11,0,62,-1031
285,3.188012,2,5,8,-2,59,-1031
286,3.199201,1,9,10,-3,59,-1025
287,3.210392,2,9,11,0,60,-1032
288,3.221589,3,6,10,0,65,-1028
289,3.232782,3,6,8,0,65,-1030
290,3.243965,0,5,10,-1,62,-1029
291,3.255181,3,6,8,-5,61,-1036
292,3.266329,2,6,9,0,65,-1029
293,3.277553,2,7,12,-1,64,-1033
294,3.288755,2,6,7,-1,61,-1031
295,3.29994,3,7,9,-3,64,-1030
296,3.311128,2,6,10,0,58,-1033
297,3.322338,2,5,8,-2,60,-1030
298,3.333528,2,5,10,-1,63,-1028
299,3.344718,2,6,8,-2,66,-1036
300,3.355901,3,6,9,1,63,-1031
301,3.367092,3,5,11,0,63,-1038
302,3.378288,3,8,7,-2,69,-1033
303,3.389472,4,6,9,-2,62,-1032
304,3.40066,2,7,9,-1,63,-1039
305,3.411842,2,6,9,0,61,-1035
306,3.423026,1,4,11,-3,63,-1027
307,3.434213,4,5,10,0,62,-1032
308,3.445402,2,6,8,0,66,-1030
309,3.456588,3,6,7,-2,61,-1032
310,3.467768,4,5,8,-3,59,-1030
311,3.478952,2,4,10,6,63,-1029
312,3.490147,4,6,9,1,64,-1028
313,3.501345,2,7,9,0,62,-1031
314,3.512526,2,7,8,-1,62,-1028
315,3.523715,2,5,10,-3,65,-1040
316,3.5349,2,7,11,0,68,-1032
317,3.546088,1,6,9,3,62,-1033
318,3.557277,1,7,8,0,62,-1023
319,3.568464,1,8,11,3,64,-1026
320,3.57965,1,6,10,0,58,-1030
321,3.59084,2,7,8,-4,60,-1032
322,3.602023,1,4,8,-2,61,-1034
323,3.613217,1,6,9,0,61,-1033
324,3.6244,0,6,7,-1,59,-1033
325,3.635588,0,6,8,-3,62,-1037
326,3.646776,4,6,9,-4,65,-1029
327,3.657957,4,5,9,-1,68,-1033
328,3.669147,3,5,10,-1,63,-1038
329,3.680364,2,8,8,-3,67,-1026
330,3.691607,5,8,9,-2,65,-1039
331,3.702798,3,6,10,-1,64,-1029
332,3.713995,2,6,9,0,63,-1031
333,3.725188,3,4,8,1,64,-1035
334,3.736373,2,3,10,-3,63,-1034
335,3.747562,2,3,9,1,62,-1031
336,3.758744,1,8,10,0,62,-1034
337,3.769928,1,7,8,-2,62,-1032
338,3.781113,3,6,9,2,60,-1030
339,3.792299,4,7,8,-1,63,-1027
340,3.803481,1,4,11,-1,62,-1035
341,3.814666,4,3,10,1,65,-1037
342,3.825853,1,6,8,-5,64,-1027
343,3.837037,2,5,7,0,60,-1026
344,3.848227,1,8,9,1,61,-1026
345,3.859416,1,6,10,-3,55,-1033
346,3.870599,4,5,9,-2,61,-1032
347,3.881772,2,8,8,0,61,-1033
348,3.892963,0,6,9,-1,63,-1037
349,3.904146,2,7,8,-2,63,-1027
350,3.915337,2,6,9,-2,63,-1028
351,3.926524,2,7,9,-1,65,-1031
352,3.937716,2,7,11,0,60,-1034
353,3.948907,2,8,12,0,62,-1029
354,3.960092,1,7,9,0,66,-1033
355,3.97131,4,7,10,3,65,-1036
356,3.982521,1,8,10,-2,62,-1036
357,3.99371,3,8,9,-3,63,-1029
358,4.004899,1,6,7,-1,62,-1028
359,4.016102,3,6,8,-2,61,-1034
360,4.027288,2,5,9,0,60,-1033
361,4.038473,3,6,10,1,62,-1032
362,4.049659,3,6,10,1,58,-1031
363,4.060841,3,7,7,-1,63,-1032
364,4.072023,3,5,11,-3,63,-1028
365,4.083207,4,4,8,0,62,-1032
366,4.094396,1,6,10,0,63,-1029
367,4.105587,2,7,10,-1,60,-1034
368,4.116769,2,7,11,-1,67,-1033
369,4.127954,0,6,7,-1,67,-1029
370,4.139136,3,7,12,-1,64,-1038
371,4.150332,4,6,7,2,62,-1031
372,4.161515,1,5,10,-2,59,-1032
373,4.172702,3,5,11,-1,64,-1023
374,4.183891,4,9,10,1,65,-1032
375,4.195088,4,3,8,-2,63,-1032
376,4.206283,2,6,9,3,64,-1032
377,4.217468,1,6,10,0,60,-1034
378,4.228651,2,6,9,0,60,-1034
379,4.239837,1,7,10,1,62,-1039
380,4.251022,2,5,9,-1,61,-1032
381,4.262216,2,7,10,5,63,-1029
382,4.273403,2,7,8,0,68,-1031
383,4.284592,2,5,7,0,62,-1027
384,4.295774,4,4,10,-2,63,-1028
385,4.306962,2,5,10,-1,61,-1039
386,4.318141,2,8,10,-1,61,-1032
387,4.329348,3,5,8,-2,62,-1029
388,4.340531,3,5,9,-1,62,-1038
389,4.351714,3,6,11,0,61,-1034
390,4.362901,4,5,8,-3,62,-1030
391,4.374086,5,6,9,-1,61,-1031
392,4.385269,2,5,9,-1,64,-1037
393,4.396452,2,7,10,-2,61,-1030
394,4.407637,1,7,8,-1,62,-1032
395,4.41882,2,7,8,-4,60,-1022
396,4.430007,2,6,8,0,63,-1034
397,4.44121,3,6,10,0,61,-1035
398,4.452393,2,5,9,-1,57,-1033
399,4.463579,1,7,8,-5,66,-1036
400,4.474777,2,8,8,2,63,-1032
401,4.486274,3,7,8,2,63,-1032
402,4.497858,2,4,9,0,61,-1028
403,4.509434,3,8,8,1,62,-1029
404,4.520988,1,5,10,0,60,-1037
405,4.532533,4,6,9,-2,61,-1029
406,4.544078,2,6,8,2,68,-1035
407,4.55562,3,6,10,-3,64,-1030
408,4.567163,0,7,9,1,63,-1034
409,4.578739,1,7,6,-1,61,-1031
410,4.590409,1,5,8,0,61,-1034
411,4.60209,4,8,9,-5,62,-1030
412,4.613766,2,5,10,0,63,-1028
413,4.625444,2,7,11,0,59,-1030
414,4.637116,3,5,9,0,63,-1031
415,4.648776,1,6,10,0,64,-1028
416,4.660434,3,6,9,-2,62,-1030
417,4.672083,2,5,9,1,66,-1024
418,4.683765,3,4,9,0,62,-1035
419,4.695451,1,5,7,-1,61,-1033
420,4.707123,0,7,11,0,62,-1033
421,4.718775,0,6,9,-1,61,-1030
422,4.730456,1,5,8,0,61,-1044
423,4.742128,3,6,11,0,64,-1033
424,4.753817,2,7,10,-3,63,-1039
425,4.765451,1,6,11,1,60,-1032
426,4.777122,3,6,8,-1,62,-1033
427,4.788844,2,4,11,-2,59,-1034
428,4.800511,2,7,9,-1,62,-1034
429,4.812069,2,5,8,2,61,-1032
430,4.823629,3,5,9,2,61,-1031
431,4.835208,2,7,8,-3,64,-1036
432,4.84677,4,7,10,0,64,-1031
433,4.858356,3,5,10,-3,58,-1034
434,4.869919,4,5,10,0,59,-1032
435,4.881488,2,5,10,0,66,-1030
436,4.893047,4,7,9,2,61,-1039
437,4.904674,2,6,10,1,63,-1029
438,4.91636,3,6,11,0,62,-1029
439,4.928021,4,5,8,-1,63,-1037
440,4.939726,0,6,8,-2,59,-1031
441,4.951397,3,4,10,0,64,-1026
442,4.963048,1,9,9,0,61,-1035
443,4.974749,1,6,10,0,62,-1037
444,4.986408,2,4,8,-2,61,-1034
445,4.998101,3,8,7,0,59,-1029
446,5.009825,4,5,9,0,64,-1033
447,5.021386,2,5,10,1,65,-1030
448,5.032973,4,6,10,0,62,-1030
449,5.044518,2,7,7,-1,64,-1032
450,5.05606,2,6,10,-5,61,-1037
451,5.067641,2,6,9,0,66,-1027
452,5.079229,1,6,10,0,61,-1030
453,5.090776,1,6,10,0,63,-1034
454,5.102329,1,5,10,0,62,-1028
455,5.113972,2,7,10,-6,63,-1026
456,5.125689,4,8,11,0,61,-1031
457,5.137382,1,5,8,-2,63,-1028
458,5.149041,3,6,9,0,61,-1032
459,5.160695,4,6,11,-2,61,-1040
460,5.172368,3,6,8,0,61,-1033
461,5.184024,1,6,10,-1,63,-1030
462,5.195672,2,8,10,-3,64,-1029
463,5.20734,2,6,10,2,65,-1033
464,5.219007,2,8,9,2,62,-1032
465,5.230664,3,6,7,-2,61,-1031
466,5.242358,1,7,10,-6,64,-1038
467,5.254018,3,6,8,-1,64,-1034
468,5.265699,2,7,11,-3,65,-1024
469,5.277361,3,7,8,-4,60,-1026
470,5.289021,2,3,10,1,67,-1030
471,5.300665,3,7,10,3,63,-1034
472,5.312347,3,5,10,-1,63,-1028
473,5.324023,2,6,10,-2,62,-1033
474,5.335677,2,7,9,0,62,-1030
475,5.347356,2,5,10,-5,63,-1029
476,5.359028,1,4,9,-2,61,-1024
477,5.370681,4,6,10,0,64,-1028
478,5.382347,2,7,10,-3,66,-1029
479,5.394027,1,6,8,0,61,-1035
480,5.405697,2,6,8,1,62,-1036
481,5.417362,3,7,9,-2,62,-1031
482,5.429047,3,7,8,-1,64,-1029
483,5.440633,2,6,9,-2,60,-1030
484,5.452185,3,6,8,0,65,-1029
485,5.463738,1,5,10,0,63,-1035
486,5.475347,2,6,10,-1,61,-1037
487,5.486899,2,7,8,-1,63,-1036
488,5.49848,3,6,12,-2,67,-1034
489,5.510042,3,5,9,2,66,-1031
490,5.521607,1,7,10,0,65,-1041
491,5.53329,2,7,8,-1,63,-1030
492,5.544943,2,6,6,-1,65,-1028
493,5.556591,3,5,8,1,55,-1029
494,5.568264,1,5,9,2,61,-1042
495,5.579913,4,6,7,1,61,-1028
496,5.591564,0,7,11,0,62,-1027
497,5.603207,3,5,11,-1,62,-1038
498,5.61488,1,7,10,-1,64,-1030
499,5.626554,2,5,10,0,67,-1035
500,5.63821,3,6,10,-1,62,-1038
501,5.649792,0,7,9,0,60,-1027
502,5.661342,2,5,10,-1,64,-1029
503,5.672894,2,6,10,0,61,-1035
504,5.684478,2,5,10,-2,61,-1031
505,5.696022,2,7,10,0,62,-1028
506,5.707575,1,7,8,-3,62,-1038
507,5.719124,2,7,9,1,64,-1030
508,5.730662,1,7,11,0,63,-1025
509,5.742287,2,8,10,0,65,-1030
510,5.753961,3,7,9,1,54,-1037
511,5.765633,3,7,10,-4,64,-1032
512,5.777276,2,5,6,1,65,-1038
513,5.78893,1,6,9,2,63,-1031
514,5.800589,1,6,7,-3,59,-1035
515,5.812284,3,4,11,1,62,-1031
516,5.823936,2,7,9,-1,62,-1034
517,5.83559,2,7,8,0,62,-1033
518,5.847269,2,4,8,-2,59,-1027
519,5.85886,2,7,8,1,62,-1036
520,5.870411,3,8,8,-4,60,-1032
521,5.881983,2,7,7,-1,60,-1035
522,5.893566,0,7,11,-1,60,-1032
523,5.905119,2,6,9,-1,63,-1033
524,5.91669,1,6,9,0,65,-1033
525,5.928242,1,7,9,-1,59,-1029
526,5.939795,4,7,9,0,61,-1026
527,5.951417,2,6,8,-4,64,-1030
528,5.963069,1,6,7,-3,61,-1037
529,5.974757,3,7,10,-1,62,-1030
530,5.986405,2,4,9,3,62,-1034
531,5.99808,3,6,9,-2,60,-1028
532,6.009802,2,5,9,0,61,-1037
533,6.021673,1,7,7,-2,64,-1033
534,6.03336,3,6,9,1,61,-1035
535,6.045148,2,6,10,0,66,-1036
536,6.056821,3,7,8,0,63,-1031
537,6.068391,4,6,9,0,65,-1032
538,6.079969,2,5,9,1,65,-1033
539,6.091521,3,4,9,-2,64,-1026
540,6.103073,2,7,9,-1,66,-1031
541,6.114645,1,6,8,-1,63,-1030
542,6.126224,2,6,8,-4,64,-1036
543,6.137802,3,8,7,0,62,-1027
544,6.149367,2,6,11,-2,65,-1034
545,6.161013,1,6,7,1,63,-1036
546,6.172705,1,5,9,0,66,-1032
547,6.18436,3,5,8,0,57,-1033
548,6.196025,3,6,8,-4,63,-1032
549,6.20767,3,7,10,2,63,-1029
550,6.219316,1,6,11,0,63,-1034
551,6.23102,2,8,9,-1,65,-1032
552,6.242668,2,4,9,-2,63,-1035
553,6.254358,2,3,8,2,63,-1033
554,6.26603,2,4,8,-2,61,-1031
555,6.277606,2,5,9,-4,62,-1035
556,6.28916,3,6,10,-1,61,-1036
557,6.300731,2,7,8,0,65,-1038
558,6.312313,3,5,10,0,61,-1028
559,6.323866,3,6,8,0,62,-1030
560,6.335429,1,8,10,0,63,-1028
561,6.34698,3,8,9,-2,65,-1033
562,6.358591,2,5,9,-2,63,-1037
563,6.370266,0,6,10,-3,61,-1028
564,6.381966,1,6,9,0,63,-1026
565,6.393628,2,7,7,-3,60,-1031
566,6.405284,0,6,10,-3,61,-1028
567,6.416981,1,7,11,-1,65,-1034
568,6.428637,0,6,8,0,62,-1029
569,6.440293,2,7,8,-2,62,-1035
570,6.451948,2,6,9,0,62,-1033
571,6.463585,3,7,8,1,62,-1040
572,6.475238,3,5,8,2,66,-1028
573,6.486795,1,6,8,0,63,-1031
574,6.498351,2,6,8,0,66,-1033
575,6.50993,2,6,10,0,63,-1029
576,6.521479,2,5,10,1,62,-1033
577,6.533025,2,6,9,1,66,-1035
578,6.544614,1,5,10,0,62,-1040
579,6.556157,0,4,7,2,64,-1031
580,6.567714,1,7,7,0,61,-1031
581,6.579341,1,5,7,-2,58,-1033
582,6.591004,2,7,8,-1,62,-1027
583,6.602656,3,6,8,-2,62,-1034
584,6.614332,2,5,8,-1,65,-1035
585,6.626007,2,7,12,-1,64,-1030
586,6.637664,3,8,8,0,64,-1034
587,6.649308,1,7,10,-2,62,-1031
588,6.660965,1,6,9,-1,61,-1032
589,6.67264,1,6,8,-1,62,-1032
590,6.684287,3,6,8,-6,64,-1031
591,6.695849,3,6,8,-1,65,-1034
592,6.707416,2,6,8,-2,65,-1028
593,6.718976,1,6,8,-1,62,-1034
594,6.730535,3,7,8,-3,62,-1034
595,6.742094,2,8,9,1,64,-1034
596,6.753675,2,5,10,-3,66,-1032
597,6.765224,3,6,10,0,64,-1032
598,6.776807,2,5,10,-2,67,-1031
599,6.788429,3,5,7,0,65,-1034
600,6.800101,1,4,8,-1,65,-1035
601,6.811761,3,7,9,0,65,-1029
602,6.82341,1,6,7,-2,62,-1033
603,6.835066,1,6,9,1,61,-1030
604,6.846764,3,6,9,0,64,-1035
605,6.858428,1,7,11,-2,62,-1033
606,6.870092,4,6,11,-3,60,-1025
607,6.881788,3,7,10,0,65,-1031
608,6.893458,3,6,10,1,64,-1028
609,6.905065,3,6,7,-4,63,-1030
610,6.916633,2,7,11,-1,61,-1036
611,6.928194,3,5,9,-4,62,-1032
612,6.939739,1,7,9,-1,64,-1036
613,6.951279,1,7,8,2,64,-1030
614,6.962829,4,6,8,-2,63,-1035
615,6.974393,2,6,10,-1,62,-1030
616,6.985946,1,8,10,1,60,-1038
617,6.997589,4,7,9,-1,62,-1031
618,7.009262,3,6,8,-1,66,-1031
619,7.020908,3,6,7,2,62,-1034
620,7.032547,2,4,9,-2,61,-1037
621,7.044205,2,6,9,-4,62,-1029
622,7.055865,2,6,9,2,66,-1035
623,7.067517,3,6,8,1,62,-1033
624,7.079159,2,7,9,1,67,-1039
625,7.090824,3,5,10,-4,63,-1024
626,7.102487,3,8,8,0,64,-1032
627,7.11415,2,6,9,3,62,-1027
628,7.125832,4,6,11,-5,64,-1028
629,7.137511,1,8,8,-1,69,-1037
630,7.149152,2,6,8,0,63,-1029
631,7.160794,4,4,7,-1,58,-1032
632,7.172438,1,7,9,-2,63,-1040
633,7.184106,4,6,8,0,63,-1034
634,7.195796,1,7,8,-3,63,-1032
635,7.207457,1,6,8,-3,61,-1031
636,7.219125,3,6,9,0,61,-1036
637,7.230781,4,6,11,0,63,-1027
638,7.242479,4,7,10,-1,62,-1036
639,7.254141,1,5,8,0,63,-1029
640,7.265814,3,8,8,-4,61,-1034
641,7.277492,1,7,8,-3,60,-1031
642,7.289167,3,6,11,-2,64,-1036
643,7.300881,2,6,8,1,63,-1033
644,7.312516,3,7,8,1,64,-1033
645,7.324061,3,7,9,-4,60,-1028
646,7.3356,3,7,9,0,62,-1032
647,7.34717,2,6,9,-5,64,-1031
648,7.358721,2,8,7,0,66,-1035
649,7.370284,3,6,9,-2,62,-1031
650,7.38184,2,4,9,0,58,-1029
651,7.393419,2,8,8,0,66,-1032
652,7.404994,3,4,11,-1,64,-1031
653,7.416633,2,6,9,-4,64,-1034
654,7.428287,3,4,8,-1,65,-1036
655,7.439923,1,5,8,0,66,-1036
656,7.451566,3,7,8,-1,63,-1030
657,7.463237,1,6,10,-4,65,-1037
658,7.474894,2,5,9,-3,66,-1032
659,7.48655,0,5,9,-4,65,-1035
660,7.498234,3,5,8,-1,60,-1028
661,7.509902,1,8,10,3,63,-1031
662,7.521574,4,7,9,-3,64,-1031
663,7.53324,3,6,9,2,64,-1035
664,7.544891,4,7,7,0,63,-1025
665,7.556539,2,8,7,3,63,-1023
666,7.568201,2,5,9,-1,59,-1033
667,7.579864,2,5,7,0,63,-1036
668,7.591516,4,8,10,-2,63,-1031
669,7.60316,3,9,9,0,61,-1031
670,7.614803,3,7,9,-3,62,-1034
671,7.626355,2,5,10,0,62,-1027
672,7.637912,2,7,11,1,59,-1029
673,7.649443,1,7,8,1,63,-1028
674,7.661008,3,6,10,0,66,-1033
675,7.672551,3,5,9,-3,60,-1036
676,7.684096,4,4,6,-2,65,-1027
677,7.695646,1,6,9,-4,61,-1032
678,7.707208,2,6,9,-5,62,-1032
679,7.718773,2,9,7,-1,65,-1037
680,7.730488,2,9,10,-1,66,-1028
681,7.742152,1,6,11,0,65,-1030
682,7.753843,1,7,8,-1,63,-1033
683,7.765521,2,5,9,-2,61,-1031
684,7.777215,2,6,9,-8,62,-1031
685,7.789019,1,7,8,1,64,-1034
686,7.80068,3,5,11,1,65,-1031
687,7.812354,3,6,8,2,62,-1028
688,7.82401,1,6,9,0,62,-1033
689,7.83558,1,7,9,2,63,-1035
690,7.847122,1,6,9,2,64,-1025
691,7.858641,3,4,11,-1,63,-1036
692,7.87016,1,6,9,1,61,-1035
693,7.881731,2,7,11,1,64,-1028
694,7.893307,2,6,9,0,65,-1033
695,7.904848,0,6,8,-3,59,-1030
696,7.916398,2,5,8,-3,63,-1032
697,7.928015,2,8,8,-4,68,-1033
698,7.939686,1,8,9,-1,63,-1029
699,7.951473,2,7,9,-1,66,-1027
700,7.96313,2,4,7,-2,63,-1039
701,7.974788,2,7,9,3,64,-1030
702,7.986489,4,4,8,-2,63,-1023
703,7.998158,1,6,8,-4,66,-1036
704,8.009827,1,7,7,1,64,-1032
705,8.0215,2,6,9,0,59,-1034
706,8.033084,2,4,8,1,59,-1033
707,8.044632,1,7,9,0,62,-1034
708,8.056179,4,7,10,-1,64,-1032
709,8.067733,3,5,9,1,62,-1032
710,8.079358,3,6,8,4,62,-1026
711,8.090943,3,6,8,0,62,-1038
712,8.102507,4,7,9,-2,65,-1032
713,8.114055,3,6,8,0,63,-1029
714,8.12562,3,7,9,-1,62,-1028
715,8.137266,4,6,10,-1,63,-1033
716,8.148931,4,6,10,0,60,-1028
717,8.160585,2,6,7,-1,59,-1032
718,8.172252,2,8,9,0,61,-1026
719,8.183906,2,5,7,-1,66,-1028
720,8.195553,1,7,9,-2,62,-1034
721,8.207202,2,8,10,-1,61,-1032
722,8.218878,3,7,7,-2,61,-1029
723,8.230542,2,7,9,-1,61,-1032
724,8.242241,2,4,8,2,64,-1032
725,8.253835,2,8,10,-3,65,-1034
726,8.265383,2,6,9,-3,63,-1027
727,8.276942,1,6,8,0,63,-1031
728,8.288489,2,6,9,0,61,-1031
729,8.300036,2,6,9,2,62,-1034
730,8.31158,3,6,10,0,64,-1035
731,8.323144,1,7,8,-2,62,-1032
732,8.33472,2,6,9,0,63,-1024
733,8.346387,1,7,10,0,62,-1036
734,8.35805,3,7,11,1,63,-1035
735,8.36971,3,6,9,-1,62,-1034
736,8.38145,5,7,11,-1,61,-1029
737,8.39311,2,6,7,1,61,-1031
738,8.404785,5,4,8,0,64,-1032
739,8.416431,0,6,10,0,62,-1039
740,8.428078,2,8,9,1,58,-1032
741,8.439761,0,7,11,2,61,-1030
742,8.451422,3,7,8,-1,62,-1040
743,8.462971,2,5,8,1,66,-1037
744,8.474534,3,6,10,0,64,-1032
745,8.486092,3,8,9,-2,65,-1032
746,8.497669,2,6,10,0,63,-1031
747,8.509217,1,5,9,1,60,-1031
748,8.520809,2,4,10,-4,61,-1033
749,8.532361,2,6,9,-2,61,-1033
750,8.543948,1,7,9,-1,61,-1034
751,8.555556,3,7,7,-2,61,-1031
752,8.567225,3,6,10,0,62,-1033
753,8.57888,4,7,8,-5,63,-1028
754,8.59054,2,6,10,0,64,-1030
755,8.602227,3,5,9,-2,64,-1029
756,8.613885,2,6,9,1,58,-1028
757,8.625571,3,5,9,-2,64,-1028
758,8.637241,2,4,8,2,61,-1033
759,8.648906,2,7,9,-1,65,-1029
760,8.660553,2,6,10,-2,63,-1028
761,8.67226,2,6,7,-1,64,-1031
762,8.683825,2,4,10,-4,62,-1033
763,8.69536,4,7,7,-2,64,-1027
764,8.706912,5,5,8,-4,63,-1034
765,8.718471,3,6,8,0,59,-1030
766,8.730038,2,7,10,-3,65,-1033
767,8.741592,3,7,9,4,63,-1034
768,8.753191,1,6,9,-1,62,-1033
769,8.764817,2,7,10,0,65,-1026
770,8.776516,1,8,8,-2,60,-1034
771,8.788157,3,5,10,-3,60,-1031
772,8.799799,1,9,11,-1,60,-1028
773,8.811463,2,6,9,2,64,-1032
774,8.823112,2,8,10,-2,64,-1031
775,8.834746,1,7,11,-2,67,-1027
776,8.846403,2,6,8,-1,64,-1031
777,8.858115,2,7,8,0,66,-1030
778,8.869776,3,6,9,1,66,-1035
779,8.88135,2,5,7,0,64,-1037
780,8.892914,0,7,10,-1,62,-1030
781,8.904465,3,6,9,-3,63,-1035
782,8.916007,4,5,10,0,59,-1028
783,8.927554,1,7,8,-7,61,-1042
784,8.9391,1,9,9,-2,62,-1032
785,8.950646,1,7,11,1,66,-1033
786,8.962174,3,4,10,-3,61,-1037
787,8.973812,2,8,9,-1,67,-1024
788,8.985452,3,10,8,0,63,-1037
789,8.997111,4,6,9,0,56,-1029
790,9.008762,2,5,8,0,57,-1029
791,9.020407,3,4,8,0,61,-1037
792,9.032054,3,6,8,-2,62,-1029
793,9.043719,1,6,11,-2,64,-1030
794,9.055365,3,7,9,-3,64,-1032
795,9.067026,4,6,8,0,57,-1029
796,9.078696,2,7,10,-3,64,-1034
797,9.090275,3,5,8,0,66,-1033
798,9.101833,4,8,10,-2,64,-1035
799,9.113421,2,6,9,-1,64,-1031
800,9.124974,4,6,9,-1,65,-1036
801,9.136598,3,6,9,1,64,-1034
802,9.148171,2,6,10,0,62,-1034
803,9.159727,3,6,8,-1,66,-1030
804,9.171356,4,6,10,0,58,-1040
805,9.182999,1,7,12,-5,65,-1036
806,9.194664,2,4,8,-1,62,-1033
807,9.206335,2,6,9,-1,61,-1032
808,9.217972,2,7,10,0,66,-1037
809,9.22964,3,6,8,-1,64,-1032
810,9.241274,2,5,8,1,64,-1028
811,9.252921,2,6,8,3,64,-1033
812,9.264613,2,6,8,-3,63,-1026
813,9.276264,1,7,10,-5,65,-1033
814,9.287911,1,5,9,-3,58,-1033
815,9.299464,1,5,7,0,61,-1031
816,9.311007,2,5,8,-4,61,-1029
817,9.322564,3,4,9,3,64,-1036
818,9.334113,2,6,10,0,64,-1029
819,9.345691,3,6,8,-1,66,-1030
820,9.357236,2,6,6,-1,63,-1037
821,9.368815,1,6,11,-5,64,-1033
822,9.380366,4,5,8,0,61,-1034
823,9.39199,2,5,9,-5,61,-1024
824,9.403634,2,7,9,0,61,-1031
825,9.415279,5,4,10,-4,58,-1029
826,9.42692,2,7,9,-8,61,-1033
827,9.438611,1,6,10,3,65,-1031
828,9.450272,3,4,9,2,66,-1029
829,9.461938,1,4,8,-1,63,-1033
830,9.473601,1,5,10,-1,65,-1032
831,9.485266,3,9,11,1,66,-1032
832,9.496915,3,4,10,0,63,-1028
833,9.508496,3,7,10,-1,61,-1029
834,9.520064,3,5,9,-1,60,-1034
835,9.531615,1,4,10,0,62,-1039
836,9.543186,4,6,10,-6,59,-1034
837,9.554752,1,8,8,-1,64,-1031
838,9.566311,3,5,10,-2,61,-1030
839,9.577858,4,6,8,0,59,-1029
840,9.589441,2,6,9,2,61,-1034
841,9.601138,1,7,9,-4,62,-1034
842,9.612795,2,6,12,0,62,-1031
843,9.624457,3,6,7,0,64,-1025
844,9.636116,2,5,9,0,59,-1031
845,9.647769,0,6,9,-1,63,-1031
846,9.659413,1,6,9,0,60,-1030
847,9.671087,2,5,8,0,63,-1025
848,9.682738,2,6,7,2,60,-1036
849,9.694398,2,6,9,0,60,-1034
850,9.706105,2,5,10,-2,66,-1029
851,9.717772,2,8,9,-2,65,-1031
852,9.729454,3,4,10,0,62,-1027
853,9.741108,4,5,8,3,63,-1033
854,9.75276,4,5,8,-1,64,-1033
855,9.764415,1,7,9,-1,66,-1036
856,9.776059,2,7,8,-1,67,-1032
857,9.787721,2,5,7,0,63,-1036
858,9.799442,3,5,8,-1,61,-1034
859,9.811121,2,6,8,-1,66,-1026
860,9.822736,2,5,9,-4,59,-1030
861,9.834373,3,7,6,-2,63,-1037
862,9.84597,0,7,10,0,67,-1027
863,9.857576,3,3,10,0,60,-1035
864,9.869131,2,4,8,-2,60,-1033
865,9.880707,1,5,11,1,59,-1026
866,9.892244,4,3,10,-3,63,-1040
867,9.903799,3,7,8,-1,64,-1034
868,9.915477,3,6,10,6,63,-1026
869,9.927131,3,6,8,0,59,-1032
870,9.938794,2,7,9,-5,59,-1030
871,9.950478,2,8,8,-2,65,-1037
872,9.962134,3,4,8,1,64,-1037
873,9.973791,3,6,11,0,63,-1026
874,9.985456,2,6,10,0,66,-1034
875,9.997116,1,4,10,0,61,-1025
876,10.008785,1,5,8,-3,64,-1038
877,10.020453,2,9,8,0,64,-1036
878,10.032,3,5,10,-1,61,-1033
879,10.043556,3,7,7,1,59,-1032
880,10.055106,1,9,9,0,61,-1032
881,10.066666,1,7,9,-3,60,-1034
882,10.078232,3,6,9,-1,63,-1030
883,10.089818,2,5,8,0,63,-1038
884,10.101368,1,6,8,2,63,-1032
885,10.112952,4,5,10,0,58,-1029
886,10.12458,3,7,10,-1,60,-1037
887,10.136239,2,8,10,1,66,-1027
888,10.147882,3,6,9,-1,60,-1028
889,10.159528,1,8,8,-1,65,-1031
890,10.171189,2,5,8,-2,65,-1032
891,10.182873,2,6,7,0,66,-1031
892,10.194519,1,7,8,1,62,-1034
893,10.206229,4,5,8,-2,63,-1034
894,10.217907,2,5,10,-1,61,-1034
895,10.229577,2,6,8,-1,61,-1037
896,10.241128,2,7,10,-3,63,-1030
897,10.252714,3,6,11,-2,61,-1034
898,10.264261,2,6,10,-1,59,-1032
899,10.275805,2,7,7,1,64,-1035
900,10.287354,0,6,8,-2,59,-1033
901,10.298925,3,5,9,-1,63,-1030
902,10.310479,2,5,10,-1,63,-1028
903,10.32207,0,6,10,0,63,-1035
904,10.333712,1,7,10,0,64,-1033
905,10.345381,0,8,9,2,61,-1032
906,10.35703,2,7,7,-2,59,-1036
907,10.368702,3,4,8,-1,62,-1031
908,10.380358,3,6,12,-1,62,-1038
909,10.392009,3,5,9,-4,63,-1025
910,10.40366,3,6,8,-4,64,-1031
911,10.415351,2,7,9,3,62,-1033
912,10.427016,1,7,8,0,61,-1029
913,10.438657,3,7,8,0,69,-1032
914,10.450344,5,3,9,-1,60,-1030
915,10.462006,2,6,8,-1,65,-1027
916,10.473676,2,6,7,1,61,-1032
917,10.485326,3,9,9,-1,61,-1036
918,10.496985,1,8,8,-2,63,-1028
919,10.508627,2,6,9,0,66,-1035
920,10.520276,3,6,10,0,66,-1026
921,10.531948,2,7,8,-2,69,-1032
922,10.543553,2,7,8,0,64,-1033
923,10.555101,2,5,9,2,60,-1026
924,10.566674,4,6,8,1,62,-1025
925,10.578232,3,5,10,0,62,-1033
926,10.589808,3,7,10,-2,63,-1034
927,10.601347,3,6,9,2,63,-1030
928,10.612899,3,5,7,0,61,-1034
929,10.624467,3,5,8,-4,60,-1036
930,10.636031,1,5,8,-3,61,-1033
931,10.647762,0,8,10,-4,65,-1031
932,10.65942,3,5,10,-2,62,-1033
933,10.671078,5,7,9,1,61,-1037
934,10.68274,1,5,11,-4,60,-1027
935,10.694403,2,6,9,-4,61,-1028
936,10.706089,1,7,9,-3,59,-1031
937,10.717751,2,5,8,1,63,-1031
938,10.729436,3,5,8,-3,63,-1027
939,10.74113,4,6,8,-1,66,-1032
940,10.752835,3,7,10,0,65,-1032
941,10.764422,1,5,7,-1,63,-1031
942,10.775972,4,5,9,-1,61,-1031
943,10.787546,2,6,9,0,65,-1025
944,10.799088,2,7,9,-2,63,-1030
945,10.810641,2,5,8,1,67,-1034
946,10.822163,2,4,10,-1,58,-1033
947,10.83368,3,6,9,2,63,-1028
948,10.845269,2,7,9,0,65,-1034
949,10.85689,3,7,9,-7,64,-1037
950,10.868539,1,6,8,1,63,-1038
951,10.880216,1,5,10,0,62,-1032
952,10.891859,3,5,9,1,62,-1039
953,10.903509,1,7,10,0,63,-1032
954,10.915157,0,6,7,0,62,-1029
955,10.926821,2,6,9,1,63,-1041
956,10.938476,2,5,10,-1,61,-1036
957,10.950139,4,4,9,-1,61,-1029
958,10.961829,4,8,9,-1,63,-1030
959,10.973425,3,6,8,-2,63,-1033
960,10.984983,4,5,9,0,66,-1031
961,10.996586,2,7,7,0,67,-1035
962,11.008158,4,6,11,-4,64,-1038
963,11.019697,1,7,10,-4,68,-1034
964,11.031302,0,6,9,-2,61,-1031
965,11.042922,0,5,8,-6,64,-1031
966,11.054483,2,7,9,-3,62,-1027
967,11.066057,1,7,10,-4,64,-1028
968,11.077632,2,4,10,-4,63,-1032
969,11.089184,3,5,9,1,66,-1029
970,11.10076,3,5,10,-5,63,-1036
971,11.112324,2,6,9,4,65,-1029
972,11.123896,2,7,7,-1,62,-1036
973,11.135445,0,8,11,0,59,-1035
974,11.146993,1,7,8,-3,61,-1029
975,11.158625,2,6,10,-4,61,-1035
976,11.170256,1,7,8,-3,63,-1031
977,11.181953,2,4,11,0,66,-1036
978,11.19362,2,5,10,-4,62,-1024
979,11.205272,2,8,9,2,63,-1031
980,11.216945,1,6,8,-4,62,-1031
981,11.228604,2,6,10,-3,61,-1039
982,11.240255,4,4,10,-2,59,-1034
983,11.25192,1,7,11,-5,63,-1032
984,11.263599,2,6,9,0,67,-1039
985,11.275255,1,5,8,1,65,-1033
986,11.28692,1,6,9,0,62,-1035
987,11.298611,3,7,8,0,67,-1034
988,11.310268,3,4,9,-4,61,-1029
989,11.321965,3,8,9,-5,62,-1031
990,11.333644,2,6,9,-2,66,-1033
991,11.345294,3,7,9,0,64,-1031
992,11.356968,3,4,10,0,59,-1036
993,11.368713,3,7,9,4,63,-1028
994,11.380363,2,7,9,0,62,-1031
995,11.391913,1,6,10,-2,64,-1030
996,11.403469,2,6,11,-4,64,-1031
997,11.415052,3,5,10,-1,60,-1035
998,11.426646,2,7,8,-2,69,-1031
999,11.438175,1,6,9,0,62,-1035
1000,11.449728,1,7,10,-1,60,-1036
1001,11.461297,2,7,7,-1,67,-1036
1002,11.472866,1,6,9,4,62,-1025
1003,11.484483,2,5,8,-3,60,-1031
1004,11.496142,4,8,7,-1,64,-1031
1005,11.507784,3,8,10,1,62,-1031
1006,11.519433,3,8,9,0,63,-1032
1007,11.531106,2,6,8,3,61,-1032
1008,11.542729,3,6,11,1,62,-1030
1009,11.554387,2,5,8,0,59,-1035
1010,11.566055,0,6,8,0,65,-1035
1011,11.577723,2,7,10,0,62,-1032
1012,11.589367,2,5,10,3,63,-1036
1013,11.600933,3,7,10,0,63,-1029
1014,11.612491,1,8,9,-2,62,-1036
1015,11.624049,1,7,6,0,63,-1030
1016,11.635589,2,6,7,0,65,-1029
1017,11.647155,3,5,9,1,61,-1036
1018,11.658709,1,5,10,0,60,-1036
1019,11.670282,4,6,9,-3,64,-1030
1020,11.681859,0,5,8,2,59,-1037
1021,11.693459,2,6,8,3,65,-1029
1022,11.705109,2,7,9,0,62,-1032
1023,11.716758,2,4,7,0,70,-1038
1024,11.728413,2,7,9,0,64,-1033
1025,11.7401,4,5,8,-2,63,-1038
1026,11.751754,1,4,11,0,57,-1039
1027,11.763417,2,7,7,-4,60,-1028
1028,11.775074,2,3,10,-3,66,-1033
1029,11.786731,2,6,10,1,65,-1025
1030,11.798303,2,6,11,0,62,-1032
1031,11.80985,1,7,9,2,64,-1035
1032,11.821433,2,8,8,-2,60,-1037
1033,11.833028,2,6,9,2,63,-1031
1034,11.844578,4,4,10,1,64,-1034
1035,11.856152,2,4,9,2,60,-1031
1036,11.867688,3,6,8,0,60,-1030
1037,11.87923,3,8,7,-2,61,-1039
1038,11.890789,4,6,8,1,65,-1030
1039,11.902445,0,5,9,2,65,-1037
1040,11.914114,4,5,8,-3,64,-1026
1041,11.92577,4,7,10,-2,64,-1033
1042,11.937448,1,5,10,-8,66,-1030
1043,11.949101,1,5,8,0,62,-1033
1044,11.960758,3,9,9,3,61,-1035
1045,11.972425,1,5,9,-2,66,-1027
1046,11.984088,3,7,12,-2,65,-1031
1047,11.995753,1,6,7,0,62,-1035
1048,12.0075,2,6,10,0,61,-1032
1049,12.019231,3,5,10,-3,63,-1034
1050,12.030835,3,6,9,1,61,-1031
1051,12.042432,0,7,9,-3,60,-1036
1052,12.054005,1,6,10,-3,66,-1035
1053,12.065572,1,5,12,-2,61,-1035
1054,12.077147,4,6,10,0,66,-1030
1055,12.088706,2,7,10,0,61,-1031
1056,12.100381,2,5,8,-1,63,-1027
1057,12.111934,2,6,8,0,65,-1031
1058,12.123486,1,5,9,0,61,-1031
1059,12.135038,3,6,11,1,62,-1037
1060,12.146591,3,6,10,2,57,-1035
1061,12.158175,2,6,9,-2,63,-1030
1062,12.169767,3,6,8,0,62,-1028
1063,12.181323,1,6,8,-2,62,-1032
1064,12.192911,5,8,11,-3,62,-1036
1065,12.204465,4,3,6,-2,62,-1033
1066,12.216138,4,8,11,-2,62,-1031
1067,12.227822,3,8,9,0,59,-1032
1068,12.239478,5,5,10,1,67,-1039
1069,12.251126,2,5,8,-3,64,-1027
1070,12.262781,4,6,10,-2,63,-1026
1071,12.274477,4,6,10,1,64,-1033
1072,12.286126,2,6,10,-3,60,-1030
1073,12.297779,3,5,8,0,62,-1025
1074,12.309472,3,6,9,0,61,-1037
1075,12.321151,2,5,9,-1,66,-1035
1076,12.332723,2,6,11,-5,61,-1034
1077,12.344314,1,6,8,2,64,-1031
1078,12.355888,2,4,8,0,62,-1023
1079,12.367436,1,6,6,-2,66,-1031
1080,12.37898,1,7,7,0,60,-1026
1081,12.390546,5,5,8,0,66,-1037
1082,12.402103,2,8,8,-3,64,-1034
1083,12.4137,2,6,11,0,61,-1031
1084,12.425355,3,5,9,0,61,-1037
1085,12.437012,1,7,7,0,64,-1029
1086,12.448684,2,6,8,-4,66,-1031
1087,12.46033,3,6,10,-2,62,-1029
1088,12.471997,2,6,8,-4,61,-1031
1089,12.483647,1,6,8,0,62,-1033
1090,12.495353,3,5,10,1,60,-1039
1091,12.506995,2,5,8,1,63,-1031
1092,12.518664,3,7,10,-1,65,-1031
1093,12.530337,2,8,8,0,63,-1029
1094,12.541932,3,5,11,-1,66,-1035
1095,12.553516,1,5,7,2,63,-1032
1096,12.565058,0,7,9,2,63,-1033
1097,12.576599,1,5,9,1,65,-1034
1098,12.588144,3,4,11,-1,66,-1028
1099,12.599689,3,5,10,1,64,-1032
1100,12.611231,1,5,8,-2,65,-1033
1101,12.622806,2,6,10,2,64,-1031
1102,12.634528,2,6,10,-1,60,-1039
1103,12.646227,4,6,7,1,62,-1026
1104,12.657873,1,6,6,-1,59,-1036
1105,12.669519,3,3,10,-1,67,-1036
1106,12.681197,1,6,9,2,62,-1028
1107,12.692844,2,7,9,-1,63,-1035
1108,12.70449,2,8,8,0,60,-1028
1109,12.716138,4,5,9,3,65,-1034
1110,12.727808,2,6,11,3,63,-1032
1111,12.739468,2,7,10,0,65,-1034
1112,12.751114,2,7,8,1,65,-1034
1113,12.762748,1,7,7,-1,61,-1036
1114,12.774417,2,4,10,3,66,-1036
1115,12.786103,4,6,7,-6,65,-1026
1116,12.797784,3,8,10,0,62,-1038
1117,12.809451,3,5,9,0,58,-1031
1118,12.821105,2,6,7,-4,61,-1037
1119,12.832764,2,7,8,-5,65,-1029
1120,12.844465,2,7,9,1,60,-1028
1121,12.856022,2,5,9,1,61,-1033
1122,12.867572,1,5,10,-1,65,-1030
1123,12.879139,2,6,9,-2,60,-1035
1124,12.8907,2,4,7,0,62,-1031
1125,12.902308,2,5,7,1,64,-1035
1126,12.913911,2,6,9,0,62,-1031
1127,12.925439,2,6,9,1,61,-1032
1128,12.936997,3,9,10,-2,61,-1031
1129,12.948611,3,7,10,0,61,-1038
1130,12.960254,2,5,10,-2,64,-1036
1131,12.971899,3,6,8,-2,63,-1028
1132,12.983565,1,8,8,2,64,-1033
1133,12.995213,3,5,6,-4,62,-1039
1134,13.006868,2,7,8,4,61,-1031
1135,13.018524,1,7,10,1,64,-1033
1136,13.030216,1,7,10,0,64,-1035
1137,13.041887,1,7,9,-3,63,-1035
1138,13.053551,2,9,9,0,61,-1029
1139,13.065112,1,6,8,1,61,-1039
1140,13.076663,2,7,8,-2,63,-1033
1141,13.088206,2,7,10,1,67,-1029
1142,13.099749,3,8,10,-2,61,-1038
1143,13.111291,2,4,8,-2,63,-1034
1144,13.122896,4,5,10,0,65,-1031
1145,13.134448,1,8,9,-2,66,-1028
1146,13.146047,3,7,10,-4,60,-1027
1147,13.157752,2,6,9,-1,63,-1030
1148,13.169395,3,5,10,-3,62,-1028
1149,13.181044,1,7,9,-4,64,-1027
1150,13.192708,1,7,8,1,59,-1032
1151,13.204349,3,9,11,-3,66,-1030
1152,13.216025,3,7,9,1,64,-1034
1153,13.22769,1,4,11,0,64,-1024
1154,13.23934,2,6,7,-3,62,-1033
1155,13.251,2,6,8,0,61,-1031
1156,13.262716,2,6,9,-1,60,-1034
1157,13.274436,2,6,9,0,59,-1026
1158,13.286039,4,6,8,-2,67,-1028
1159,13.297671,2,5,9,-1,59,-1030
1160,13.30921,0,6,10,-4,59,-1034
1161,13.320757,1,6,10,-4,62,-1029
1162,13.332298,2,6,8,1,67,-1030
1163,13.343834,4,5,9,-4,68,-1029
1164,13.355409,2,7,9,-2,60,-1029
1165,13.36708,2,5,8,0,58,-1037
1166,13.378731,2,7,11,-4,63,-1033
1167,13.39042,3,6,8,-1,65,-1033
1168,13.402095,2,5,9,-1,62,-1032
1169,13.41371,2,8,9,-3,63,-1036
1170,13.42536,3,6,9,-2,62,-1036
1171,13.437029,2,6,8,2,66,-1035
1172,13.448698,1,7,8,-1,62,-1035
1173,13.460361,2,4,7,-1,62,-1035
1174,13.472026,0,7,8,0,63,-1035
1175,13.483684,1,8,10,2,61,-1033
1176,13.495337,2,5,8,-3,60,-1030
1177,13.506989,1,7,10,-3,62,-1030
1178,13.518687,3,9,9,-2,62,-1034
1179,13.530357,1,5,8,-1,60,-1032
1180,13.542011,0,4,9,-2,61,-1032
1181,13.553702,3,7,11,1,62,-1034
1182,13.565429,3,8,12,2,64,-1032
1183,13.577097,1,6,8,5,63,-1034
1184,13.588695,2,7,11,3,61,-1028
1185,13.600274,3,8,7,0,62,-1037
1186,13.611811,3,7,11,0,59,-1038
1187,13.623369,3,7,7,-1,59,-1032
1188,13.634915,3,7,9,0,62,-1030
1189,13.646463,2,7,8,0,66,-1027
1190,13.658036,1,7,8,1,62,-1030
1191,13.669622,1,7,8,0,65,-1029
1192,13.681245,3,6,9,0,60,-1030
1193,13.692911,2,5,9,-4,67,-1030
1194,13.704571,3,6,8,-3,66,-1032
1195,13.716216,3,7,10,0,62,-1034
1196,13.727858,2,8,10,1,59,-1030
1197,13.739509,3,6,9,-2,62,-1028
1198,13.751186,3,5,11,1,62,-1024
1199,13.762862,1,5,9,0,62,-1029
1200,13.774557,2,7,9,-1,63,-1025
1201,13.786221,1,7,9,-1,59,-1032
1202,13.797802,2,8,8,1,63,-1030
1203,13.809356,0,3,7,0,66,-1030
1204,13.820911,4,6,8,-2,63,-1033
1205,13.832454,3,6,7,0,60,-1029
1206,13.843999,2,7,9,0,67,-1027
1207,13.855541,2,7,8,-1,62,-1037
1208,13.867118,2,6,9,-5,62,-1034
1209,13.878665,1,6,8,0,62,-1034
1210,13.890351,2,7,7,-2,64,-1035
1211,13.902037,3,6,10,0,63,-1034
1212,13.913711,2,8,8,-1,64,-1037
1213,13.92536,1,8,9,-2,60,-1036
1214,13.937035,2,9,8,1,63,-1038
1215,13.948691,2,6,9,3,62,-1034
1216,13.960367,2,6,7,-2,64,-1035
1217,13.972036,3,8,9,-3,59,-1033
1218,13.983706,1,7,9,-2,62,-1035
1219,13.995354,3,8,9,-1,65,-1037
1220,14.007018,1,5,9,-1,60,-1036
1221,14.018695,2,6,10,0,66,-1028
1222,14.030355,1,5,9,0,65,-1034
1223,14.042005,2,6,8,0,62,-1030
1224,14.05369,3,6,9,-2,67,-1034
1225,14.065345,4,6,10,3,64,-1033
1226,14.076983,3,6,10,1,61,-1028
1227,14.088626,2,5,10,-1,60,-1032
1228,14.100181,3,5,9,-6,63,-1029
1229,14.111718,2,6,10,-1,60,-1030
1230,14.123257,2,5,11,-1,59,-1034
1231,14.134802,0,4,9,-1,64,-1033
1232,14.146342,2,7,12,-1,61,-1029
1233,14.15791,4,6,9,3,66,-1034
1234,14.169516,3,6,8,-1,63,-1030
1235,14.181063,1,7,8,1,64,-1033
1236,14.192679,2,8,9,-2,62,-1031
1237,14.20431,3,6,8,-2,67,-1040
1238,14.215972,3,6,10,0,64,-1034
1239,14.227624,2,6,9,0,63,-1040
1240,14.239292,2,6,9,0,58,-1029
1241,14.250972,2,7,10,1,61,-1032
1242,14.262645,2,2,8,-4,64,-1031
1243,14.274363,1,7,10,-4,61,-1028
1244,14.286034,2,8,7,3,67,-1037
1245,14.297727,3,5,9,-4,63,-1028
1246,14.309393,3,4,10,-1,62,-1030
1247,14.321063,2,6,10,0,63,-1034
1248,14.332729,1,5,9,0,63,-1034
1249,14.344389,3,6,8,0,65,-1036
1250,14.356049,5,7,9,-4,61,-1028
1251,14.367708,3,5,10,1,61,-1035
1252,14.379355,2,7,7,-1,64,-1028
1253,14.391007,3,5,10,-2,60,-1038
1254,14.402672,3,6,10,-1,63,-1031
1255,14.414332,0,6,9,1,67,-1034
1256,14.425967,1,7,8,-2,66,-1036
1257,14.437613,0,7,10,0,63,-1031
1258,14.449261,3,6,6,-4,61,-1033
1259,14.460928,3,7,8,0,64,-1027
1260,14.472576,5,6,7,0,61,-1030
1261,14.484221,2,6,9,-2,62,-1034
1262,14.495871,2,4,8,-1,60,-1033
1263,14.507528,2,6,10,0,65,-1031
1264,14.519111,3,5,7,-1,60,-1032
1265,14.530663,2,2,8,1,62,-1030
1266,14.542297,2,4,9,-1,64,-1037
1267,14.55385,3,6,9,0,62,-1033
1268,14.565424,4,8,8,-2,65,-1036
1269,14.576976,3,4,10,-2,65,-1029
1270,14.588542,3,5,8,1,62,-1025
1271,14.600201,2,5,9,0,65,-1029
1272,14.611823,1,5,11,-4,65,-1039
1273,14.62349,3,7,9,1,64,-1030
1274,14.635161,1,9,8,-3,61,-1027
1275,14.646819,1,5,11,-5,62,-1032
1276,14.658489,2,4,9,1,64,-1031
1277,14.670163,0,5,9,0,63,-1036
1278,14.681837,1,6,11,-2,66,-1031
1279,14.693505,0,6,8,0,61,-1033
1280,14.705267,3,4,10,1,63,-1027
1281,14.71695,0,5,9,0,59,-1034
1282,14.72861,3,8,8,0,61,-1039
1283,14.740277,1,5,9,1,64,-1027
1284,14.751929,1,7,10,-3,67,-1034
1285,14.76359,3,6,9,0,63,-1028
1286,14.775278,3,7,7,-4,58,-1028
1287,14.786935,2,7,10,-3,64,-1033
1288,14.798602,2,5,9,-4,63,-1030
1289,14.810315,3,6,9,-2,63,-1041
1290,14.821985,4,4,10,0,63,-1031
1291,14.833567,4,6,9,-2,56,-1032
1292,14.845145,3,6,10,-3,64,-1031
1293,14.856684,3,5,12,-2,64,-1035
1294,14.868223,1,7,11,2,64,-1035
1295,14.879769,3,6,6,0,61,-1031
1296,14.891315,2,4,8,0,65,-1032
1297,14.902897,3,5,9,0,63,-1031
1298,14.914495,1,6,9,-4,69,-1026
1299,14.926124,3,7,9,-6,65,-1031
1300,14.937831,2,5,9,-3,66,-1033
1301,14.949453,2,8,7,-2,62,-1022
1302,14.961104,1,4,8,5,61,-1039
1303,14.972792,3,7,7,0,63,-1038
1304,14.984442,2,5,10,-1,60,-1033
1305,14.996095,0,9,8,-3,62,-1035
1306,15.007766,4,6,11,-5,62,-1036
1307,15.01946,1,5,10,-1,65,-1031
1308,15.031113,2,7,9,-2,61,-1032
1309,15.042655,3,4,8,-6,63,-1026
1310,15.054208,2,6,7,0,66,-1036
1311,15.065817,3,5,8,0,67,-1035
1312,15.077385,2,7,7,-7,63,-1038
1313,15.088932,2,7,10,-4,59,-1033
1314,15.100506,2,5,9,0,62,-1033
1315,15.112047,2,5,10,0,59,-1026
1316,15.123617,3,5,10,-3,63,-1031
1317,15.135281,2,7,10,-2,64,-1033
1318,15.146953,3,8,9,2,64,-1029
1319,15.158619,1,6,10,0,62,-1033
1320,15.170311,3,8,8,-5,65,-1040
1321,15.181968,2,6,9,1,63,-1033
1322,15.193625,3,8,9,3,61,-1039
1323,15.205313,0,8,11,-3,61,-1020
1324,15.216957,1,4,8,-1,60,-1030
1325,15.228622,3,6,7,0,61,-1031
1326,15.240282,3,5,7,-1,64,-1029
1327,15.25186,2,5,8,-4,67,-1036
1328,15.263437,1,6,9,-4,60,-1030
1329,15.274992,3,5,7,-4,61,-1029
1330,15.286549,1,6,9,-1,65,-1031
1331,15.298101,2,7,9,-2,62,-1036
1332,15.309666,0,6,8,-3,62,-1031
1333,15.321211,2,6,9,-1,61,-1031
1334,15.332772,2,6,10,-3,63,-1036
1335,15.34441,2,6,10,-3,59,-1034
1336,15.35608,3,5,10,-2,62,-1032
1337,15.367737,5,8,11,3,61,-1031
1338,15.379408,1,7,8,-2,62,-1031
1339,15.391061,1,6,10,-5,61,-1035
1340,15.402749,2,7,8,-1,61,-1041
1341,15.414427,1,6,10,-3,65,-1031
1342,15.426093,2,6,10,1,61,-1029
1343,15.437806,0,4,9,-1,62,-1029
1344,15.449454,1,6,9,3,62,-1024
1345,15.461005,1,7,8,0,61,-1034
1346,15.472552,3,7,7,0,64,-1031
1347,15.484126,2,5,8,-4,59,-1032
1348,15.495675,2,6,11,0,63,-1039
1349,15.507249,3,5,9,-1,60,-1028
1350,15.518791,3,6,10,1,64,-1033
1351,15.530337,1,5,10,-2,62,-1032
1352,15.541923,2,5,10,-2,63,-1028
1353,15.553572,1,5,6,0,64,-1035
1354,15.565227,3,9,12,-4,62,-1031
1355,15.576872,2,6,8,-4,62,-1028
1356,15.588518,1,7,9,2,62,-1033
1357,15.600189,3,6,9,0,64,-1036
1358,15.611828,2,6,11,-3,63,-1028
1359,15.623475,3,7,10,2,58,-1029
1360,15.63513,3,5,8,-1,64,-1030
1361,15.646806,2,6,10,1,61,-1038
1362,15.658457,3,7,9,0,60,-1031
1363,15.670053,1,5,10,1,64,-1032
1364,15.681608,2,5,9,-3,60,-1024
1365,15.693164,3,6,9,-2,65,-1034
1366,15.704765,1,8,8,-5,68,-1036
1367,15.716319,3,5,10,-3,66,-1029
1368,15.727884,3,6,8,0,63,-1033
1369,15.739429,3,6,9,0,60,-1034
1370,15.751013,2,5,7,-2,59,-1027
1371,15.762703,1,5,10,-4,61,-1035
1372,15.77438,2,8,10,-1,58,-1032
1373,15.786045,3,5,10,-5,62,-1029
1374,15.797697,3,8,9,0,62,-1035
1375,15.809373,2,5,11,2,60,-1029
1376,15.821019,2,6,9,0,63,-1035
1377,15.832681,2,6,7,-2,64,-1029
1378,15.844326,2,4,9,1,62,-1029
1379,15.855984,2,6,10,0,60,-1031
1380,15.867661,2,5,9,-1,65,-1035
1381,15.879307,1,8,9,-1,64,-1030
1382,15.890985,2,5,10,0,63,-1033
1383,15.902656,1,5,8,-1,63,-1031
1384,15.914331,3,4,10,-1,61,-1035
1385,15.925962,2,6,8,1,66,-1031
1386,15.937619,3,6,7,-3,63,-1033
1387,15.949292,2,8,9,-1,62,-1037
1388,15.960974,4,7,9,0,60,-1025
1389,15.972644,3,6,10,2,62,-1028
1390,15.984301,2,8,10,1,60,-1035
1391,15.995948,2,5,9,-4,63,-1028
1392,16.007593,2,7,9,2,64,-1030
1393,16.019286,2,6,11,0,63,-1031
1394,16.030957,3,6,10,1,61,-1027
1395,16.042647,1,8,8,0,64,-1035
1396,16.054327,2,4,10,-6,57,-1031
1397,16.065994,3,5,9,0,62,-1033
1398,16.077689,3,6,9,0,65,-1035
1399,16.089242,2,5,9,-1,61,-1032
1400,16.100791,2,4,9,-1,62,-1025
1401,16.112367,2,6,9,-1,63,-1036
1402,16.123916,3,6,11,-2,64,-1040
1403,16.135497,4,6,7,-5,65,-1035
1404,16.147051,3,7,9,2,63,-1034
1405,16.158638,4,7,9,1,65,-1034
1406,16.170224,2,6,10,3,60,-1030
1407,16.181897,3,7,10,0,64,-1034
1408,16.193599,2,3,8,-2,63,-1033
1409,16.205245,3,7,6,0,58,-1039
1410,16.21692,2,6,10,0,63,-1025
1411,16.228573,5,4,10,-1,66,-1032
1412,16.240243,2,8,9,0,60,-1040
1413,16.251888,1,6,7,1,59,-1032
1414,16.263577,3,7,9,-2,65,-1040
1415,16.275234,2,7,8,1,62,-1031
1416,16.286927,2,5,11,1,64,-1032
1417,16.298485,2,3,9,0,62,-1033
1418,16.310052,3,6,8,1,66,-1033
1419,16.321624,4,4,9,0,61,-1030
1420,16.333171,3,8,11,1,59,-1037
1421,16.344715,2,5,9,-1,60,-1037
1422,16.356264,2,7,10,1,64,-1034
1423,16.367836,2,7,7,-1,64,-1036
1424,16.3794,2,7,8,1,61,-1033
1425,16.391052,3,5,9,0,64,-1027
1426,16.402734,3,6,9,-1,62,-1032
1427,16.414397,2,5,10,-4,62,-1033
1428,16.426051,2,7,7,1,61,-1032
1429,16.437707,3,4,10,-2,65,-1023
1430,16.449347,4,4,9,-3,63,-1030
1431,16.460993,3,5,8,0,64,-1032
1432,16.47266,1,5,8,0,60,-1035
1433,16.484315,3,5,9,-1,62,-1028
1434,16.49596,1,7,10,0,62,-1033
1435,16.507518,3,6,9,-1,64,-1035
1436,16.519077,1,7,9,-2,63,-1031
1437,16.530638,3,5,8,1,60,-1037
1438,16.542165,3,8,11,0,60,-1032
1439,16.553703,2,7,9,0,65,-1030
1440,16.565248,2,7,9,-1,64,-1034
1441,16.576795,3,6,9,-1,63,-1029
1442,16.588372,3,8,10,0,64,-1035
1443,16.599987,3,7,8,-2,63,-1028
1444,16.61165,1,7,9,0,67,-1029
1445,16.6233,3,6,11,-1,62,-1035
1446,16.635,1,8,8,-2,63,-1035
1447,16.646667,2,7,10,1,60,-1035
1448,16.658341,2,9,11,0,65,-1035
1449,16.669968,2,8,7,0,64,-1034
1450,16.681624,2,6,9,3,64,-1031
1451,16.693288,3,7,11,1,63,-1031
1452,16.704944,3,8,8,-5,61,-1032
1453,16.716497,2,6,9,4,62,-1032
1454,16.728046,2,2,8,1,65,-1035
1455,16.739627,3,5,8,-3,65,-1032
1456,16.751174,1,8,8,0,64,-1037
1457,16.762745,4,7,10,-4,63,-1032
1458,16.774296,1,5,9,-1,61,-1029
1459,16.785844,2,6,8,-6,61,-1034
1460,16.797399,1,5,9,2,61,-1033
1461,16.80902,2,4,9,-4,62,-1028
1462,16.820676,3,6,8,-2,64,-1033
1463,16.832318,1,6,8,-3,63,-1033
1464,16.843959,4,8,10,0,62,-1031
1465,16.855618,3,4,9,0,62,-1030
1466,16.867281,2,7,8,-1,62,-1031
1467,16.878934,3,6,7,0,59,-1034
1468,16.890618,3,7,9,1,62,-1035
1469,16.902299,0,6,10,-2,63,-1029
1470,16.913951,2,6,9,1,63,-1031
1471,16.925538,1,5,9,0,60,-1033
1472,16.937121,2,6,9,3,60,-1031
1473,16.948662,2,4,9,-1,62,-1033
1474,16.960203,3,5,10,-2,62,-1032
1475,16.971751,2,5,10,0,58,-1036
1476,16.983294,2,7,9,0,64,-1031
1477,16.994874,4,8,8,-2,60,-1030
1478,17.006421,3,7,8,0,61,-1027
1479,17.018056,4,4,8,-3,60,-1030
1480,17.029712,2,5,9,0,63,-1029
1481,17.041382,2,7,8,3,67,-1033
1482,17.053037,1,5,9,-2,62,-1028
1483,17.064688,3,4,8,0,58,-1031
1484,17.076342,1,6,8,3,62,-1036
1485,17.087987,2,6,9,-2,65,-1031
1486,17.099653,3,6,10,-3,65,-1027
1487,17.111316,3,5,10,0,63,-1030
1488,17.122999,2,8,10,1,62,-1036
1489,17.134581,1,6,10,0,61,-1034
1490,17.146156,1,6,9,-1,60,-1032
1491,17.15774,3,6,8,-2,62,-1030
1492,17.169288,1,7,10,1,61,-1026
1493,17.180839,3,6,8,1,67,-1029
1494,17.192385,2,7,10,3,61,-1031
1495,17.203927,0,7,9,-1,65,-1032
1496,17.21548,2,6,9,0,62,-1029
1497,17.227179,0,7,8,1,60,-1037
1498,17.238867,3,8,9,0,61,-1027
1499,17.250551,4,6,10,-1,64,-1029
1500,17.262215,2,5,9,0,64,-1039
1501,17.273871,1,7,10,-4,65,-1026
1502,17.285577,3,4,9,-5,60,-1029
1503,17.297236,2,6,10,0,64,-1033
1504,17.308906,1,7,8,-1,59,-1032
1505,17.320568,2,4,9,-1,63,-1029
1506,17.332212,2,6,9,0,65,-1045
1507,17.343862,3,6,10,1,62,-1035
1508,17.355514,2,5,8,-1,62,-1033
1509,17.367179,3,6,8,0,60,-1029
1510,17.378878,2,7,11,-1,65,-1030
1511,17.390538,3,7,9,-2,62,-1032
1512,17.402212,2,6,7,0,64,-1031
1513,17.413883,3,2,9,-1,64,-1040
1514,17.425632,1,6,9,3,63,-1029
1515,17.437303,5,7,9,1,66,-1023
1516,17.448868,2,7,10,-2,65,-1035
1517,17.460418,3,6,9,-1,60,-1033
1518,17.471985,2,8,9,1,61,-1032
1519,17.483527,1,8,7,2,61,-1035
1520,17.49508,0,5,9,3,62,-1037
1521,17.506645,3,6,9,2,64,-1030
1522,17.518161,1,6,10,-1,57,-1032
1523,17.529693,2,7,9,-1,59,-1027
1524,17.541312,0,6,8,-2,65,-1032
1525,17.552963,3,4,9,-4,66,-1032
1526,17.564627,3,6,8,-1,63,-1026
1527,17.576287,1,6,9,-1,65,-1031
1528,17.587931,3,7,8,-4,63,-1034
1529,17.599575,2,5,9,-7,61,-1033
1530,17.611224,2,4,10,0,59,-1035
1531,17.622903,1,6,10,-5,58,-1027
1532,17.63457,3,6,8,-1,63,-1035
1533,17.646222,3,6,9,-3,64,-1032
1534,17.657803,3,5,9,0,65,-1036
1535,17.669464,2,7,9,1,63,-1030
1536,17.681015,3,5,7,-2,62,-1029
1537,17.692561,3,9,9,0,61,-1034
1538,17.704122,1,6,9,-1,65,-1036
1539,17.715732,3,7,10,-1,62,-1028
1540,17.727284,2,6,10,0,63,-1032
1541,17.738876,2,8,10,0,58,-1034
1542,17.750463,2,5,10,-3,60,-1032
1543,17.762145,1,5,7,1,67,-1037
1544,17.773829,3,10,8,-4,63,-1028
1545,17.785494,2,6,9,0,60,-1033
1546,17.797157,3,5,7,0,66,-1026
1547,17.8088,1,3,8,-3,59,-1035
1548,17.820451,3,7,7,-2,64,-1034
1549,17.832093,2,7,9,-7,62,-1031
1550,17.843749,1,8,8,-1,64,-1038
1551,17.855419,4,6,6,-4,61,-1031
1552,17.867067,3,4,10,0,59,-1034
1553,17.878756,2,9,10,-3,66,-1033
1554,17.890409,2,6,10,1,59,-1035
1555,17.902086,3,5,9,2,57,-1030
1556,17.913772,2,4,9,-2,61,-1028
1557,17.925451,2,6,8,-4,65,-1036
1558,17.93711,2,4,8,0,64,-1034
1559,17.948807,3,6,11,-1,63,-1027
1560,17.96046,3,6,10,0,62,-1029
1561,17.972131,1,5,9,2,60,-1027
1562,17.983787,1,7,9,3,61,-1030
1563,17.995437,1,5,10,0,61,-1031
1564,18.007088,3,6,10,-1,63,-1031
1565,18.018982,3,6,9,-2,60,-1032
1566,18.030859,3,6,10,1,61,-1037
1567,18.042537,2,7,11,-2,63,-1030
1568,18.054261,2,6,9,0,65,-1027
1569,18.065957,1,7,8,-1,60,-1030
1570,18.077607,3,6,8,1,61,-1035
1571,18.089253,3,7,8,-3,61,-1033
1572,18.100925,2,6,8,-2,60,-1037
1573,18.11257,2,7,8,-1,64,-1035
1574,18.124239,3,5,8,1,64,-1033
1575,18.135888,2,6,8,2,60,-1031
1576,18.147544,2,6,10,-1,64,-1026
1577,18.159204,5,5,8,0,61,-1032
1578,18.170908,1,6,8,2,62,-1034
1579,18.182509,2,7,8,0,64,-1026
1580,18.194072,2,7,10,-2,64,-1024
1581,18.205679,5,4,7,0,62,-1024
1582,18.217247,2,7,8,1,62,-1029
1583,18.228815,2,6,9,-2,63,-1031
1584,18.240373,2,6,9,-1,58,-1035
1585,18.251958,1,4,9,-5,62,-1032
1586,18.263508,3,5,10,0,62,-1036
1587,18.275095,4,7,11,-1,60,-1034
1588,18.286647,3,7,10,0,62,-1030
1589,18.298235,2,5,11,2,64,-1035
1590,18.309794,2,7,6,2,65,-1032
1591,18.321334,0,5,10,-2,64,-1028
1592,18.33288,1,5,11,-2,65,-1032
1593,18.344424,1,5,9,-1,63,-1037
1594,18.355966,2,4,9,0,61,-1033
1595,18.367504,3,5,10,0,58,-1028
1596,18.379146,4,6,11,0,61,-1031
1597,18.390805,1,5,9,1,61,-1036
1598,18.402507,4,6,6,2,64,-1035
1599,18.414204,3,4,7,0,65,-1034
1600,18.42585,2,5,6,-1,64,-1028
1601,18.437502,2,8,9,-3,57,-1028
1602,18.449169,2,6,8,-1,64,-1034
1603,18.460815,2,6,9,0,62,-1037
1604,18.472471,0,6,10,0,64,-1033
1605,18.484155,2,5,9,-3,63,-1027
1606,18.495733,2,8,8,1,63,-1030
1607,18.507288,4,5,11,-2,64,-1034
1608,18.51886,3,6,11,-1,60,-1028
1609,18.5304,3,7,9,-7,63,-1033
1610,18.541922,2,5,12,0,60,-1035
1611,18.553441,2,6,10,-2,63,-1035
1612,18.564987,3,6,10,-2,67,-1034
1613,18.578982,2,5,9,0,67,-1035
1614,18.590608,2,5,9,0,59,-1027
1615,18.602175,2,7,8,1,59,-1033
1616,18.613741,2,7,8,0,62,-1029
1617,18.625295,2,5,8,2,59,-1027
1618,18.636851,0,6,9,0,62,-1037
1619,18.648408,1,5,9,-2,59,-1031
1620,18.659977,2,6,9,-5,59,-1037
1621,18.671525,2,5,8,-3,60,-1030
1622,18.683113,3,6,9,-1,67,-1035
1623,18.69483,2,5,12,0,62,-1031
1624,18.706501,0,6,10,-2,61,-1033
1625,18.718151,2,9,9,2,65,-1035
1626,18.729835,2,5,9,1,64,-1027
1627,18.741504,2,5,8,-1,63,-1032
1628,18.753161,2,7,9,-2,60,-1038
1629,18.764812,1,5,8,2,62,-1034
1630,18.776465,3,8,11,-1,61,-1032
1631,18.78813,3,2,10,2,62,-1033
1632,18.799804,2,4,10,-1,61,-1039
1633,18.811455,2,6,10,-1,58,-1031
1634,18.823097,1,6,9,-3,65,-1034
1635,18.834783,2,7,10,-2,64,-1030
1636,18.846479,2,7,10,-1,64,-1037
1637,18.858136,0,6,9,-1,64,-1033
1638,18.869789,3,6,8,-1,60,-1032
1639,18.88145,4,5,9,-1,58,-1034
1640,18.893179,1,6,9,0,60,-1034
1641,18.904804,2,4,11,-3,63,-1036
1642,18.916358,2,3,11,0,60,-1027
1643,18.927904,2,7,11,-6,67,-1031
1644,18.939469,3,5,10,-2,64,-1032
1645,18.951008,2,7,10,-3,61,-1035
1646,18.962551,2,6,8,2,66,-1033
1647,18.974111,2,6,9,-2,61,-1029
1648,18.985671,5,6,11,-1,65,-1037
1649,18.997226,1,7,9,-2,60,-1034
1650,19.008868,2,6,9,-2,59,-1032
1651,19.02053,1,6,11,0,58,-1030
1652,19.032185,3,7,9,0,61,-1025
1653,19.04383,0,6,8,-1,64,-1026
1654,19.055477,2,5,10,-1,60,-1031
1655,19.067145,3,4,10,-2,67,-1034
1656,19.078795,1,6,11,0,62,-1034
1657,19.090475,2,5,10,1,62,-1032
1658,19.102171,3,5,8,-1,64,-1030
1659,19.113837,3,5,8,0,61,-1033
1660,19.125388,2,5,10,-2,64,-1030
1661,19.136935,1,5,10,-1,63,-1035
1662,19.148495,2,7,9,-1,62,-1035
1663,19.160053,2,7,9,-2,63,-1029
1664,19.171629,3,8,9,0,63,-1029
1665,19.183173,3,7,9,0,58,-1036
1666,19.194763,2,8,7,1,62,-1032
1667,19.206346,2,7,7,0,63,-1030
1668,19.218019,3,8,9,3,60,-1032
1669,19.229699,3,5,9,1,62,-1030
1670,19.241341,3,4,8,-5,64,-1037
1671,19.253015,1,7,9,-4,61,-1031
1672,19.264667,3,6,9,0,65,-1032
1673,19.276313,1,7,8,4,63,-1033
1674,19.287989,2,6,7,0,60,-1037
1675,19.299649,4,6,9,2,58,-1035
1676,19.311296,2,6,8,-2,63,-1032
1677,19.322868,2,7,12,-1,64,-1033
1678,19.334399,3,7,6,0,61,-1027
1679,19.345923,1,7,9,2,61,-1037
1680,19.35744,2,6,10,-2,65,-1034
1681,19.368989,1,7,10,-2,64,-1033
1682,19.380539,3,5,9,0,57,-1032
1683,19.392094,3,6,9,-2,58,-1029
1684,19.403644,0,7,8,0,60,-1026
1685,19.415271,3,7,9,0,61,-1034
1686,19.426915,2,6,10,-1,64,-1025
1687,19.438619,4,8,10,2,63,-1036
1688,19.450291,3,7,11,-1,65,-1031
1689,19.461957,4,7,8,2,66,-1035
1690,19.473621,2,6,8,-3,66,-1029
1691,19.485289,1,5,7,-1,57,-1031
1692,19.496932,3,5,11,-1,60,-1036
1693,19.508592,2,7,8,-4,66,-1028
1694,19.520269,2,6,9,-3,60,-1028
1695,19.531825,1,7,10,0,62,-1030
1696,19.543401,2,8,7,-1,62,-1032
1697,19.554952,2,6,9,-1,61,-1027
1698,19.566527,2,5,11,-3,65,-1034
1699,19.578098,1,7,8,0,62,-1039
1700,19.589666,0,7,9,0,63,-1036
1701,19.601224,2,6,7,0,64,-1031
1702,19.612775,1,6,10,0,64,-1031
1703,19.624398,1,5,11,1,61,-1027
1704,19.636047,1,7,10,-2,62,-1032
1705,19.647693,2,5,8,-5,59,-1034
1706,19.659336,2,6,9,2,67,-1030
1707,19.67098,2,6,9,-3,63,-1026
1708,19.682662,1,6,8,-2,63,-1038
1709,19.694333,1,6,10,-2,59,-1033
1710,19.705963,1,6,10,1,61,-1030
1711,19.717651,4,6,10,-2,63,-1027
1712,19.729305,0,7,8,-1,62,-1031
1713,19.740857,2,7,10,-1,62,-1033
1714,19.7524,3,7,8,0,67,-1027
1715,19.763949,2,3,9,-3,64,-1036
1716,19.775499,4,9,9,0,60,-1034
1717,19.787064,0,8,8,0,64,-1029
1718,19.798643,1,7,7,-5,63,-1030
1719,19.810225,1,7,10,0,65,-1037
1720,19.821798,1,5,8,-1,64,-1033
1721,19.833441,4,6,11,0,65,-1032
1722,19.845088,2,3,9,-1,62,-1032
1723,19.856733,1,5,9,1,66,-1036
1724,19.868402,4,5,9,-1,63,-1027
1725,19.880044,3,5,8,2,64,-1040
1726,19.891691,4,6,9,-2,64,-1036
1727,19.903359,2,6,10,1,62,-1027
1728,19.915032,1,8,10,-1,61,-1032
1729,19.926747,1,4,8,-2,62,-1032
1730,19.938401,3,7,10,-2,60,-1035
1731,19.949975,1,5,11,0,59,-1033
1732,19.961549,3,5,8,-2,59,-1030
1733,19.973095,2,7,10,1,63,-1028
1734,19.984631,3,6,10,-1,66,-1032
1735,19.996174,3,7,9,0,61,-1035
1736,20.007718,2,7,10,-1,62,-1032
1737,20.019272,2,3,8,-2,60,-1033
1738,20.030851,1,7,11,1,65,-1034
1739,20.042535,3,5,8,-1,60,-1033
1740,20.054257,4,10,8,-1,62,-1038
1741,20.065981,2,5,11,2,60,-1026
1742,20.077679,4,5,10,-3,61,-1035
1743,20.089342,1,5,8,0,63,-1033
1744,20.101007,3,6,13,-2,61,-1032
1745,20.112647,1,5,9,0,64,-1032
1746,20.124301,3,8,11,-1,66,-1028
1747,20.135979,3,8,11,0,62,-1032
1748,20.147649,3,4,9,-2,62,-1034
1749,20.159204,2,6,10,0,61,-1033
1750,20.170804,1,7,9,2,62,-1034
1751,20.182375,1,8,9,4,61,-1033
1752,20.193925,4,6,9,2,60,-1029
1753,20.205439,2,5,10,0,64,-1034
1754,20.216983,4,6,10,-3,64,-1034
1755,20.228569,2,5,9,0,65,-1029
1756,20.240163,3,8,10,0,60,-1025
1757,20.251787,3,8,9,-1,63,-1035
1758,20.263436,5,6,8,1,59,-1035
1759,20.275092,2,5,8,-2,62,-1027
1760,20.286796,5,7,9,0,58,-1033
1761,20.298472,2,6,9,0,61,-1033
1762,20.310145,3,5,8,-1,63,-1027
1763,20.321837,0,6,8,1,61,-1031
1764,20.333499,3,5,7,-1,62,-1029
1765,20.345167,0,7,7,-1,65,-1024
1766,20.356844,4,7,7,-1,66,-1030
1767,20.368409,2,8,10,-1,62,-1034
1768,20.379956,2,8,10,-6,61,-1030
1769,20.391506,2,7,9,5,62,-1033
1770,20.403079,0,7,7,-3,65,-1034
1771,20.414648,3,5,6,-2,65,-1034
1772,20.426164,1,6,10,-2,62,-1034
1773,20.437681,1,5,9,0,61,-1032
1774,20.449238,1,6,8,-3,62,-1030
1775,20.460889,4,6,8,1,63,-1027
1776,20.472538,1,5,10,-1,60,-1031
1777,20.484192,3,7,7,0,59,-1037
1778,20.495835,0,6,9,-2,64,-1035
1779,20.507496,4,6,9,1,62,-1032
1780,20.519152,2,6,9,2,63,-1031
1781,20.530801,3,6,10,-1,59,-1029
1782,20.542467,2,4,10,-2,61,-1030
1783,20.554162,3,5,8,0,62,-1029
1784,20.565819,3,7,9,0,62,-1028
1785,20.577369,4,7,9,0,60,-1028
1786,20.588921,3,5,8,-3,60,-1032
1787,20.600479,0,6,9,-2,60,-1037
1788,20.61203,2,6,11,1,62,-1029
1789,20.623619,2,5,9,1,61,-1032
1790,20.635215,1,5,10,2,63,-1033
1791,20.646776,1,6,9,0,62,-1032
1792,20.658378,2,7,11,2,67,-1029
1793,20.670036,3,5,8,-4,61,-1031
1794,20.681726,0,7,10,0,61,-1027
1795,20.693401,1,7,8,-1,62,-1030
1796,20.705055,2,5,9,1,61,-1029
1797,20.716736,3,7,8,0,60,-1028
1798,20.728382,3,6,10,-1,60,-1031
1799,20.740036,3,6,8,-2,63,-1035
1800,20.751692,2,7,10,-5,61,-1037
1801,20.76338,2,6,9,0,60,-1034
1802,20.775035,3,7,10,-3,64,-1031
1803,20.786599,3,7,8,0,62,-1034
1804,20.798166,2,5,10,0,63,-1029
1805,20.809682,1,6,7,-2,63,-1039
1806,20.821222,2,4,8,-2,64,-1031
1807,20.832763,3,6,8,0,62,-1033
1808,20.84431,2,6,11,-2,62,-1024
1809,20.855857,3,9,7,0,62,-1024
1810,20.867413,4,4,11,0,64,-1037
1811,20.879028,2,8,8,-1,62,-1029
1812,20.890709,3,8,11,-4,61,-1034
1813,20.902387,2,7,9,-3,64,-1031
1814,20.914037,5,6,10,0,65,-1037
1815,20.925701,1,6,8,-3,63,-1029
1816,20.937344,2,5,11,0,61,-1030
1817,20.949008,1,6,8,-1,64,-1029
1818,20.960661,2,7,8,0,63,-1031
1819,20.972314,3,6,8,0,63,-1035
1820,20.983967,3,7,7,3,60,-1031
1821,20.995541,1,6,9,0,57,-1030
1822,21.007094,4,7,9,0,63,-1031
1823,21.018695,2,8,11,0,64,-1035
1824,21.030276,2,7,8,-4,64,-1033
1825,21.041842,1,6,9,-1,65,-1031
1826,21.053387,2,4,9,0,62,-1027
1827,21.064938,2,4,9,0,59,-1033
1828,21.076498,3,6,10,-1,63,-1035
1829,21.088126,2,6,9,1,62,-1031
1830,21.099778,2,5,8,-2,63,-1036
1831,21.111432,2,5,10,-1,62,-1030
1832,21.123097,3,6,11,-2,62,-1033
1833,21.134735,2,6,10,-1,63,-1032
1834,21.14639,2,6,9,-2,61,-1033
1835,21.158065,-1,7,8,-2,64,-1032
1836,21.169707,2,7,8,2,60,-1030
1837,21.181388,4,5,8,0,59,-1027
1838,21.193037,2,5,10,-3,66,-1036
1839,21.204599,1,5,8,0,61,-1033
1840,21.21617,3,6,10,-3,62,-1039
1841,21.227715,3,6,8,-2,62,-1030
1842,21.239261,2,6,9,-3,63,-1029
1843,21.250825,2,6,7,-5,64,-1036
1844,21.262491,1,6,9,0,61,-1030
1845,21.274054,2,5,9,0,61,-1031
1846,21.285614,2,5,11,1,61,-1036
1847,21.29727,0,9,8,-2,62,-1036
1848,21.30892,3,6,10,1,64,-1037
1849,21.320587,5,5,7,0,60,-1031
1850,21.332251,1,5,9,-5,60,-1030
1851,21.343897,4,5,10,-1,62,-1032
1852,21.355546,3,7,8,0,59,-1029
1853,21.367205,3,6,10,-2,63,-1035
1854,21.37889,2,8,7,0,60,-1035
1855,21.390593,3,6,8,-1,61,-1036
1856,21.402239,1,5,8,-2,61,-1034
1857,21.413891,3,8,8,0,64,-1033
1858,21.425574,1,5,11,-4,59,-1031
1859,21.437245,2,4,9,0,67,-1032
1860,21.448899,3,7,9,-2,64,-1034
1861,21.460542,1,7,9,-1,64,-1029
1862,21.472189,4,6,8,-4,62,-1032
1863,21.483868,3,6,9,1,63,-1035
1864,21.495539,2,9,9,0,64,-1033
1865,21.507187,1,6,10,1,63,-1026
1866,21.518872,2,7,8,-1,64,-1032
1867,21.530524,2,4,8,-1,63,-1031
1868,21.542201,2,8,9,-3,63,-1031
1869,21.55388,2,5,8,-4,62,-1033
1870,21.565528,2,6,10,0,64,-1040
1871,21.577179,2,5,9,0,64,-1032
1872,21.588847,3,4,9,-4,65,-1033
1873,21.600564,2,5,8,-2,64,-1033
1874,21.612235,2,7,10,0,65,-1037
1875,21.623776,2,6,11,0,60,-1029
1876,21.635348,2,8,10,0,59,-1040
1877,21.64691,2,8,9,3,64,-1032
1878,21.658465,2,6,11,4,59,-1032
1879,21.670066,1,6,10,0,62,-1032
1880,21.681618,1,7,7,0,63,-1032
1881,21.693198,1,7,8,2,64,-1029
1882,21.704749,1,5,11,-2,65,-1038
1883,21.716441,3,6,9,2,64,-1034
1884,21.728118,2,7,8,0,59,-1027
1885,21.739762,1,6,10,0,61,-1035
1886,21.751416,2,6,9,0,62,-1029
1887,21.763094,3,4,8,0,61,-1031
1888,21.774741,2,5,8,-3,61,-1028
1889,21.786398,3,7,10,-1,61,-1034
1890,21.798098,2,8,9,-3,62,-1034
1891,21.80978,1,6,10,-7,64,-1037
1892,21.821462,3,5,9,0,61,-1037
1893,21.833051,3,7,8,-7,60,-1035
1894,21.844601,1,7,8,-2,62,-1037
1895,21.856165,3,4,10,-3,65,-1030
1896,21.867707,1,7,9,0,67,-1033
1897,21.879249,2,7,7,0,61,-1032
1898,21.890814,2,4,8,1,62,-1033
1899,21.902384,3,5,8,1,63,-1037
1900,21.913934,1,6,12,-1,62,-1026
1901,21.925576,3,6,9,-1,60,-1040
1902,21.937231,4,4,10,-3,62,-1035
1903,21.948879,3,7,9,-1,62,-1025
1904,21.96053,3,6,9,-1,59,-1032
1905,21.972183,1,6,9,-5,62,-1034
1906,21.98383,3,4,9,0,63,-1033
1907,21.995488,0,8,8,-2,63,-1035
1908,22.007138,2,7,9,0,65,-1018
1909,22.018799,3,8,11,-1,63,-1032
1910,22.030483,2,5,9,0,60,-1027
1911,22.042078,2,6,12,-2,60,-1035
1912,22.053625,3,8,10,-3,63,-1035
1913,22.065176,2,6,9,-1,61,-1028
1914,22.076725,2,7,8,0,62,-1031
1915,22.088273,2,6,9,2,65,-1031
1916,22.099818,4,5,7,3,64,-1026
1917,22.111374,2,6,9,0,65,-1035
1918,22.122966,1,6,10,-3,63,-1036
1919,22.134718,0,6,9,2,60,-1030
1920,22.14639,1,6,10,3,66,-1034
1921,22.158045,2,7,6,1,62,-1024
1922,22.169724,3,7,9,-2,63,-1031
1923,22.181384,1,6,10,1,62,-1032
1924,22.193033,3,7,10,-1,61,-1032
1925,22.204699,2,6,9,-1,61,-1030
1926,22.216365,3,6,9,0,65,-1029
1927,22.228032,5,6,10,0,61,-1034
1928,22.239689,3,5,9,1,61,-1031
1929,22.25124,1,4,9,1,58,-1040
1930,22.262812,4,7,10,0,63,-1031
1931,22.274388,0,6,8,0,63,-1026
1932,22.285975,3,5,6,-2,61,-1028
1933,22.297555,1,8,10,1,59,-1034
1934,22.309102,1,4,8,0,62,-1032
1935,22.320646,2,7,10,-1,60,-1038
1936,22.332209,2,7,10,1,66,-1032
1937,22.343907,3,6,10,-1,62,-1033
1938,22.355569,2,7,10,-2,64,-1029
1939,22.367235,3,6,11,0,63,-1027
1940,22.378903,2,4,7,-5,59,-1035
1941,22.390563,3,3,10,-2,61,-1029
1942,22.402235,3,6,10,3,61,-1032
1943,22.413899,4,6,9,-3,61,-1026
1944,22.425576,2,7,9,0,63,-1033
1945,22.437254,2,6,8,1,63,-1040
1946,22.448906,4,7,7,-1,61,-1030
1947,22.460568,3,5,9,2,62,-1037
1948,22.472231,2,6,10,0,61,-1034
1949,22.483886,1,7,8,-2,62,-1033
1950,22.495534,1,5,10,1,58,-1033
1951,22.507209,1,6,9,-2,62,-1027
1952,22.51888,2,8,9,-3,60,-1032
1953,22.530535,3,7,11,-2,61,-1029
1954,22.542254,2,6,9,-2,62,-1034
1955,22.55394,2,5,9,-3,59,-1034
1956,22.565592,3,5,8,1,61,-1034
1957,22.57725,3,6,8,-1,60,-1024
1958,22.588903,4,7,10,0,60,-1037
1959,22.600551,1,7,6,1,62,-1027
1960,22.612204,2,5,9,-1,60,-1032
1961,22.62387,2,6,7,-3,61,-1034
1962,22.635532,2,7,8,-3,60,-1030
1963,22.647206,4,5,9,-1,67,-1032
1964,22.658879,2,4,11,1,61,-1031
1965,22.670532,2,8,12,2,63,-1031
1966,22.682216,3,3,8,-1,64,-1031
1967,22.693881,3,4,10,-4,63,-1029
1968,22.705525,5,5,8,0,62,-1039
1969,22.717169,2,6,10,1,61,-1036
1970,22.728813,2,7,12,1,64,-1033
1971,22.740465,1,6,10,-2,64,-1030
1972,22.752143,3,6,10,-2,61,-1036
1973,22.763795,4,6,10,-1,65,-1030
1974,22.775364,4,6,8,0,63,-1022
1975,22.786952,1,7,9,-3,58,-1024
1976,22.798543,3,8,8,-1,62,-1031
1977,22.810101,2,5,8,-5,60,-1034
1978,22.821667,1,5,11,-4,66,-1036
1979,22.833225,1,6,9,2,60,-1030
1980,22.844794,3,8,9,4,65,-1028
1981,22.85636,2,6,8,-1,62,-1032
1982,22.868005,3,8,9,0,62,-1032
1983,22.879689,5,6,8,-3,63,-1038
1984,22.891354,3,8,8,0,60,-1034
1985,22.903005,1,7,8,1,62,-1035
1986,22.914675,3,6,8,1,63,-1031
1987,22.926357,3,5,12,-4,61,-1032
1988,22.938019,2,4,11,2,66,-1029
1989,22.949712,5,6,10,2,62,-1024
1990,22.961393,3,4,10,0,60,-1032
1991,22.973093,2,7,7,1,59,-1024
1992,22.984647,0,7,10,0,58,-1033
1993,22.996199,3,4,8,0,61,-1029
1994,23.007769,3,5,8,-4,62,-1031
1995,23.019352,2,5,9,-3,62,-1031
1996,23.030935,3,6,9,-1,62,-1034
1997,23.042477,3,5,10,0,63,-1029
1998,23.054037,1,5,11,0,60,-1036
1999,23.065601,1,7,10,0,59,-1035
