sample,t_s,gyro_x,gyro_y,gyro_z,accel_x,accel_y,accel_z
0,1.4e-05,0,-1,0,1032,1,-1548
1,0.011271,0,1,0,1033,-2,-1546
2,0.022466,2,2,-1,1031,1,-1538
3,0.033655,0,-1,0,1033,-3,-1544
4,0.044844,1,0,2,1029,-4,-1542
5,0.05604,0,-1,2,1033,1,-1538
6,0.067228,1,1,0,1030,0,-1542
7,0.078415,2,1,-1,1030,0,-1544
8,0.089602,1,1,3,1034,-5,-1536
9,0.100824,1,2,-1,1034,0,-1538
10,0.112034,2,-2,-1,1033,-3,-1542
11,0.123222,3,1,1,1032,-2,-1544
12,0.134409,3,-1,1,1031,-2,-1545
13,0.145596,2,0,1,1031,2,-1536
14,0.156792,1,-2,1,1029,-5,-1539
15,0.168032,0,0,1,1031,1,-1541
16,0.179295,1,-1,-1,1031,-1,-1547
17,0.190493,1,0,0,1032,0,-1542
18,0.201682,2,-1,1,1032,1,-1547
19,0.212867,1,0,1,1034,1,-1537
20,0.224057,1,-2,-1,1032,0,-1537
21,0.235244,3,-2,-1,1031,-1,-1549
22,0.246428,2,1,-1,1032,-2,-1548
23,0.257622,0,1,1,1033,-1,-1539
24,0.268806,2,-1,-1,1031,-4,-1540
25,0.279996,2,2,-2,1031,-4,-1551
26,0.291176,1,0,0,1031,-3,-1545
27,0.302363,2,0,1,1028,3,-1537
28,0.313545,2,2,0,1031,0,-1548
29,0.324735,1,0,0,1029,-1,-1543
30,0.335921,0,-1,2,1033,0,-1550
31,0.347111,0,2,0,1030,-1,-1539
32,0.358302,3,2,0,1032,-1,-1541
33,0.369484,3,0,0,1029,1,-1543
34,0.38067,0,2,-1,1030,-1,-1542
35,0.391859,3,0,-1,1033,0,-1539
36,0.403043,1,0,3,1027,0,-1542
37,0.414229,2,-1,0,1029,0,-1543
38,0.425415,1,-1,-1,1027,0,-1538
39,0.436603,2,-1,0,1029,2,-1542
40,0.447815,2,0,0,1029,-1,-1542
41,0.45899,1,0,0,1032,-5,-1542
42,0.470178,1,0,1,1030,-2,-1540
43,0.48136,3,0,2,1032,-2,-1546
44,0.492546,-1,2,1,1030,0,-1548
45,0.503741,0,1,2,1029,-3,-1542
46,0.514922,3,3,1,1032,2,-1545
47,0.526112,1,-1,1,1030,0,-1540
48,0.537316,0,2,1,1032,-4,-1551
49,0.548559,2,1,0,1028,-3,-1542
50,0.559736,0,0,1,1028,0,-1537
51,0.570921,4,0,-1,1030,2,-1544
52,0.58211,0,1,-1,1030,-4,-1541
53,0.593297,0,0,0,1032,-5,-1542
54,0.604482,2,1,1,1031,-5,-1544
55,0.615669,1,-1,0,1030,0,-1543
56,0.626856,0,2,-2,1025,-5,-1539
57,0.638045,0,2,1,1029,-2,-1542
58,0.649231,0,1,-3,1032,-5,-1547
59,0.660421,2,-1,1,1030,-2,-1539
60,0.671608,2,0,0,1031,0,-1538
61,0.682795,2,-3,0,1028,-1,-1545
62,0.693979,1,0,1,1029,-2,-1542
63,0.705165,3,2,1,1032,-1,-1543
64,0.716353,0,0,-3,1034,0,-1541
65,0.727548,1,1,0,1034,0,-1545
66,0.738749,2,-1,-1,1033,0,-1544
67,0.750008,-1,1,0,1031,0,-1536
68,0.761196,2,-1,1,1028,-2,-1542
69,0.772381,0,-2,-1,1032,1,-1538
70,0.783542,3,0,0,1029,-1,-1539
71,0.794729,1,0,0,1027,2,-1545
72,0.805925,1,0,1,1032,1,-1545
73,0.817105,2,2,0,1030,-2,-1541
74,0.828293,1,2,0,1031,1,-1549
75,0.839483,2,2,1,1033,-3,-1549
76,0.850672,1,-1,-1,1031,-1,-1542
77,0.861864,1,2,1,1033,0,-1542
78,0.873044,2,-3,2,1030,-3,-1540
79,0.884229,2,1,0,1030,0,-1549
80,0.895415,1,4,0,1033,-4,-1538
81,0.906599,1,1,1,1032,0,-1543
82,0.917792,1,0,0,1030,-4,-1541
83,0.928999,2,1,1,1031,-1,-1538
84,0.940179,2,0,-1,1032,0,-1539
85,0.951366,3,1,4,1034,0,-1535
86,0.962586,0,1,1,1025,-4,-1541
87,0.973772,-1,0,1,1031,0,-1535
88,0.984959,2,0,-2,1033,0,-1543
89,0.996143,4,0,0,1029,2,-1536
90,1.007328,1,1,-1,1032,1,-1544
91,1.018509,2,0,1,1032,-1,-1539
92,1.029692,1,0,1,1031,0,-1548
93,1.040876,0,1,2,1031,-5,-1539
94,1.052061,0,1,-1,1031,-1,-1540
95,1.063246,1,-1,0,1032,-2,-1545
96,1.074428,1,-1,-1,1033,3,-1541
97,1.08561,2,-2,-1,1032,-1,-1545
98,1.096792,2,-3,0,1032,-1,-1541
99,1.107978,2,2,0,1030,-3,-1545
100,1.119171,2,2,0,1027,-3,-1542
101,1.130361,1,1,0,1031,-3,-1543
102,1.141547,1,0,1,1032,0,-1542
103,1.152729,1,0,-1,1031,3,-1542
104,1.163916,1,-2,0,1030,0,-1541
105,1.175103,0,-1,1,1029,0,-1545
106,1.186284,1,1,0,1029,1,-1539
107,1.197466,1,0,-2,1034,4,-1544
108,1.20866,1,1,0,1032,0,-1549
109,1.219854,3,0,1,1031,-2,-1533
110,1.231037,2,1,-1,1028,0,-1540
111,1.242226,2,1,-1,1032,-3,-1541
112,1.253413,1,-1,-2,1028,0,-1538
113,1.264596,2,1,-3,1030,-3,-1542
114,1.275791,0,0,3,1032,-2,-1540
115,1.28699,1,-1,1,1031,-2,-1545
116,1.298173,2,3,-2,1032,-2,-1545
117,1.309355,2,1,0,1028,2,-1547
118,1.320545,-1,0,-1,1032,-1,-1538
119,1.331731,0,0,0,1035,-2,-1546
120,1.342913,1,-3,-1,1028,3,-1543
121,1.354101,-1,1,0,1032,-1,-1538
122,1.365282,1,0,0,1030,-3,-1542
123,1.376471,-1,-2,-1,1032,0,-1538
124,1.387661,2,0,0,1027,-1,-1547
125,1.398844,1,-2,-1,1034,-3,-1546
126,1.410066,1,3,0,1032,2,-1539
127,1.421247,2,-3,0,1031,-3,-1548
128,1.432428,0,0,1,1029,0,-1544
129,1.443613,2,-1,-1,1035,0,-1543
130,1.454798,3,1,-2,1029,1,-1543
131,1.465979,2,1,-2,1031,1,-1538
132,1.477161,0,0,-1,1033,-2,-1549
133,1.488344,0,0,0,1032,0,-1537
134,1.499543,3,0,0,1031,0,-1543
135,1.510723,2,0,-1,1030,2,-1542
136,1.521911,2,-1,0,1031,-1,-1542
137,1.533094,1,-1,1,1032,-4,-1544
138,1.544281,2,0,0,1032,2,-1538
139,1.555472,0,0,0,1029,-4,-1555
140,1.566661,1,0,1,1032,-1,-1547
141,1.577852,2,2,1,1031,-2,-1540
142,1.589037,2,-1,1,1031,-1,-1546
143,1.600223,2,-2,0,1033,-1,-1544
144,1.611415,2,0,2,1032,1,-1546
145,1.622599,2,-1,-2,1030,-5,-1541
146,1.633783,1,-2,-1,1033,-4,-1542
147,1.644968,3,0,-1,1032,0,-1540
148,1.656153,1,-1,-1,1031,1,-1540
149,1.667362,-1,0,-1,1026,-1,-1540
150,1.678546,3,0,0,1030,0,-1543
151,1.689731,3,0,2,1033,0,-1544
152,1.700918,4,-3,0,1030,0,-1543
153,1.712099,2,1,1,1029,0,-1541
154,1.723286,1,1,0,1031,0,-1539
155,1.73447,2,1,2,1030,0,-1539
156,1.745656,1,1,-2,1029,0,-1541
157,1.756838,3,-3,2,1031,0,-1540
158,1.768029,3,0,0,1030,1,-1543
159,1.779173,1,1,-1,1027,-1,-1543
160,1.790355,1,1,0,1032,0,-1544
161,1.801535,0,2,0,1032,-2,-1546
162,1.81272,2,1,0,1035,-1,-1543
163,1.82391,1,2,0,1032,-2,-1546
164,1.835102,3,0,-2,1032,0,-1540
165,1.846282,3,-1,0,1027,-1,-1538
166,1.857466,1,0,-3,1030,-3,-1542
167,1.868649,0,1,0,1029,3,-1544
168,1.879861,2,0,-1,1029,0,-1547
169,1.891044,3,-3,-1,1032,-2,-1547
170,1.902225,1,-1,0,1028,0,-1538
171,1.913406,0,-3,0,1032,-3,-1543
172,1.924592,2,1,-1,1034,4,-1544
173,1.935783,0,2,1,1031,0,-1544
174,1.946981,0,-1,0,1032,-3,-1544
175,1.958165,2,0,2,1029,0,-1541
176,1.969358,2,-2,1,1030,-1,-1540
177,1.980595,2,1,1,1032,1,-1544
178,1.991795,0,1,-1,1029,0,-1543
179,2.002987,1,-2,2,1031,0,-1540
180,2.01417,0,1,1,1029,2,-1545
181,2.025351,0,0,2,1032,-1,-1542
182,2.036533,0,1,1,1030,1,-1538
183,2.047727,3,0,0,1034,-4,-1535
184,2.058912,1,0,0,1034,0,-1545
185,2.070094,1,0,0,1031,-3,-1541
186,2.081278,1,1,0,1030,2,-1546
187,2.092466,2,0,0,1029,-1,-1540
188,2.103656,0,2,1,1032,-1,-1539
189,2.114838,3,0,-1,1030,0,-1539
190,2.12602,2,-1,-1,1032,2,-1542
191,2.137209,0,1,1,1032,-1,-1542
192,2.148417,1,4,2,1032,-4,-1551
193,2.159605,2,-1,2,1029,1,-1546
194,2.170786,1,1,1,1030,0,-1538
195,2.181971,3,0,-1,1029,0,-1546
196,2.193154,1,-1,-1,1033,-2,-1543
197,2.204337,0,-1,0,1032,-1,-1544
198,2.215541,2,0,1,1032,4,-1540
199,2.226746,2,0,1,1029,-4,-1539
200,2.237928,1,1,-1,1032,-1,-1545
201,2.249114,1,1,1,1030,-1,-1539
202,2.260296,2,2,2,1032,0,-1540
203,2.27148,3,-1,0,1032,-2,-1536
204,2.282664,1,3,0,1033,0,-1539
205,2.293848,1,1,0,1029,1,-1545
206,2.30503,1,-2,1,1030,-2,-1540
207,2.316215,2,-1,1,1032,-1,-1540
208,2.327361,0,-1,2,1031,0,-1542
209,2.338542,1,0,0,1031,-2,-1538
210,2.349725,3,1,2,1034,1,-1547
211,2.360923,1,-1,-1,1032,2,-1542
212,2.372105,3,0,0,1027,-1,-1541
213,2.383285,1,-2,-1,1030,-1,-1543
214,2.394467,1,-2,2,1029,2,-1545
215,2.40565,1,2,1,1033,0,-1545
216,2.416834,1,2,0,1030,0,-1544
217,2.428029,2,0,2,1027,1,-1542
218,2.439173,1,3,0,1032,-1,-1542
219,2.450354,2,1,-2,1032,0,-1538
220,2.461536,0,0,-1,1028,0,-1544
221,2.472718,-1,1,0,1031,-4,-1540
222,2.483913,2,-1,-1,1030,-3,-1537
223,2.495103,1,3,0,1031,0,-1539
224,2.506285,-1,1,-1,1034,1,-1543
225,2.517466,1,1,-1,1030,0,-1545
226,2.528652,1,1,0,1032,-2,-1546
227,2.539841,2,3,2,1034,0,-1541
228,2.550989,2,-2,-1,1034,0,-1539
229,2.56217,1,1,-2,1032,0,-1543
230,2.573352,2,0,1,1028,0,-1546
231,2.584547,1,2,0,1032,1,-1542
232,2.59573,3,-2,0,1032,-6,-1543
233,2.606914,3,0,-1,1034,-1,-1538
234,2.618097,3,-1,2,1032,-3,-1536
235,2.629279,2,2,0,1030,-1,-1538
236,2.640465,1,-1,0,1037,-4,-1543
237,2.651654,1,0,2,1031,-2,-1540
238,2.662838,2,-1,2,1031,-3,-1542
239,2.674025,1,-1,-1,1031,-4,-1546
240,2.685207,2,0,2,1033,-2,-1548
241,2.696392,1,-1,-1,1032,-3,-1538
242,2.707543,1,3,-2,1031,-1,-1546
243,2.718723,3,2,-2,1034,-2,-1541
244,2.729912,1,2,1,1031,-2,-1545
245,2.741093,0,0,1,1029,-4,-1545
246,2.75228,2,0,-1,1032,-1,-1544
247,2.763472,2,1,0,1032,0,-1541
248,2.774653,2,-1,2,1033,-2,-1538
249,2.785845,0,0,0,1030,1,-1539
250,2.797063,0,1,3,1033,0,-1543
251,2.808272,2,1,-1,1030,0,-1540
252,2.81947,2,0,-2,1031,0,-1544
253,2.830657,1,-2,-1,1031,0,-1536
254,2.841842,2,0,-1,1032,-2,-1543
255,2.853027,2,-1,2,1032,-2,-1541
256,2.864213,1,0,0,1031,3,-1541
257,2.875359,1,0,0,1029,-4,-1542
258,2.886544,2,3,-1,1028,5,-1541
259,2.89773,1,1,-1,1028,-2,-1539
260,2.908917,2,0,1,1032,0,-1541
261,2.920101,2,0,-2,1031,0,-1544
262,2.931293,2,1,1,1031,0,-1539
263,2.942499,3,1,0,1030,-2,-1538
264,2.953685,2,0,-1,1032,-4,-1535
265,2.964866,1,0,0,1030,3,-1541
266,2.976055,1,3,-1,1029,-2,-1537
267,2.987241,0,1,0,1031,0,-1538
268,2.998423,0,1,0,1031,3,-1540
269,3.009608,1,2,0,1032,-3,-1540
270,3.02079,2,1,2,1031,0,-1541
271,3.031974,1,0,1,1030,2,-1542
272,3.043172,3,-2,-1,1031,-4,-1543
273,3.054355,1,0,-1,1031,-2,-1540
274,3.065535,2,1,1,1032,0,-1549
275,3.076718,1,1,-2,1033,0,-1546
276,3.087912,2,-1,1,1031,-2,-1544
277,3.0991,3,0,1,1033,0,-1540
278,3.110281,1,0,-1,1031,-2,-1540
279,3.121478,0,-3,2,1031,1,-1544
280,3.13266,-1,0,-2,1032,-4,-1539
281,3.143842,2,-1,0,1029,-1,-1538
282,3.154983,1,-1,0,1033,-3,-1546
283,3.166168,4,1,1,1032,0,-1542
284,3.177358,1,0,-1,1035,0,-1542
285,3.188541,3,1,1,1031,-1,-1541
286,3.199729,1,0,1,1030,0,-1540
287,3.210911,2,-2,-2,1033,-2,-1543
288,3.222093,2,0,3,1026,1,-1541
289,3.233275,0,0,1,1030,-3,-1538
290,3.244458,1,0,1,1032,0,-1536
291,3.255658,-1,1,-1,1030,0,-1537
292,3.266841,0,-2,1,1032,2,-1542
293,3.278022,-1,-1,2,1031,-4,-1544
294,3.289206,0,0,-1,1029,0,-1543
295,3.300416,3,-2,-1,1032,0,-1543
296,3.311603,1,0,1,1034,-1,-1546
297,3.322785,2,0,0,1032,-1,-1544
298,3.333966,1,0,-1,1031,0,-1545
299,3.345146,2,0,0,1033,-5,-1541
300,3.35633,0,-1,0,1033,0,-1553
301,3.367523,0,1,-1,1031,0,-1544
302,3.378707,2,0,0,1029,-1,-1544
303,3.389893,1,0,-1,1031,0,-1540
304,3.401077,3,1,0,1032,-1,-1541
305,3.412264,0,1,0,1031,0,-1542
306,3.42345,0,0,2,1029,-2,-1545
307,3.434636,1,0,1,1030,-2,-1545
308,3.445824,2,0,2,1032,-1,-1546
309,3.457015,2,1,0,1028,0,-1539
310,3.4682,3,0,1,1035,0,-1541
311,3.479358,2,-1,1,1034,-2,-1540
312,3.49054,2,-1,-1,1028,1,-1543
313,3.501722,0,0,-1,1032,-1,-1545
314,3.512919,1,1,0,1031,-1,-1542
315,3.524101,0,0,0,1034,0,-1543
316,3.535287,2,0,-1,1033,-2,-1541
317,3.546468,0,-1,1,1032,0,-1548
318,3.557667,2,-1,2,1031,-1,-1539
319,3.568849,1,-2,-1,1033,0,-1546
320,3.580032,2,1,0,1031,0,-1546
321,3.591173,1,0,0,1031,0,-1539
322,3.602356,0,2,0,1032,0,-1547
323,3.613537,1,1,1,1028,0,-1543
324,3.624722,0,0,-1,1032,-1,-1539
325,3.63592,3,-2,-1,1031,-1,-1544
326,3.647106,2,1,-1,1033,-2,-1547
327,3.658301,1,1,0,1032,0,-1545
328,3.669482,2,1,1,1027,-1,-1541
329,3.680662,1,-2,0,1032,0,-1546
330,3.691848,2,2,-1,1033,-3,-1539
331,3.702988,-1,2,-1,1032,0,-1540
332,3.71417,0,1,-1,1030,0,-1544
333,3.725353,2,3,0,1031,0,-1541
334,3.736536,1,0,2,1032,-5,-1542
335,3.747729,-1,1,0,1032,-3,-1542
336,3.758911,2,-1,1,1032,0,-1547
337,3.770092,1,-2,0,1029,-2,-1540
338,3.781284,1,-1,-1,1031,-3,-1544
339,3.792467,2,0,1,1028,0,-1541
340,3.803652,1,-1,-2,1028,4,-1543
341,3.814851,1,0,0,1032,0,-1549
342,3.826088,1,1,1,1032,0,-1543
343,3.837274,1,-1,-1,1035,0,-1538
344,3.848456,1,1,0,1031,1,-1547
345,3.859655,1,-1,1,1029,-3,-1539
346,3.870838,0,0,-1,1026,1,-1540
347,3.882022,1,-1,-1,1029,-3,-1547
348,3.893208,2,0,2,1030,-5,-1537
349,3.904431,0,1,0,1029,3,-1540
350,3.915619,3,2,1,1030,-4,-1546
351,3.926803,2,1,2,1032,0,-1536
352,3.938002,2,1,0,1033,1,-1548
353,3.94958,2,-1,0,1031,-1,-1546
354,3.961269,1,0,0,1026,-3,-1540
355,3.972939,2,-2,1,1032,-2,-1547
356,3.984592,0,-2,-1,1032,1,-1537
357,3.996282,2,0,1,1029,-6,-1543
358,4.007948,2,0,-1,1033,-4,-1541
359,4.019674,1,0,-1,1027,-1,-1540
360,4.031427,2,-1,2,1032,-1,-1545
361,4.043108,2,0,1,1032,0,-1537
362,4.054808,3,-1,1,1031,0,-1543
363,4.066368,0,0,0,1028,-4,-1542
364,4.077925,1,-1,-1,1030,0,-1541
365,4.089483,1,0,1,1030,-5,-1549
366,4.101026,1,1,0,1031,-2,-1545
367,4.112583,1,0,0,1035,-5,-1544
368,4.124142,0,3,1,1033,-3,-1543
369,4.135763,3,-1,1,1032,-4,-1546
370,4.147351,1,-3,0,1031,2,-1540
371,4.159036,2,2,0,1030,-1,-1548
372,4.170685,1,1,-2,1029,2,-1543
373,4.18234,4,0,-1,1032,-2,-1541
374,4.19403,3,1,0,1030,-4,-1544
375,4.205689,2,-2,-1,1032,-1,-1548
376,4.217353,2,0,0,1031,1,-1544
377,4.229023,-1,0,1,1033,0,-1539
378,4.240673,3,0,-1,1027,0,-1541
379,4.252336,3,0,1,1032,-3,-1540
380,4.264057,1,0,2,1029,0,-1549
381,4.275649,1,-1,0,1034,-4,-1543
382,4.287203,1,0,0,1031,-1,-1544
383,4.298754,2,0,1,1032,-2,-1544
384,4.310304,2,1,2,1028,0,-1547
385,4.321865,1,1,0,1030,-1,-1547
386,4.333446,0,0,1,1028,0,-1543
387,4.344997,0,0,0,1034,0,-1543
388,4.356571,2,-1,1,1028,-2,-1545
389,4.368194,2,0,-1,1033,2,-1537
390,4.379874,3,1,0,1033,-2,-1540
391,4.391559,2,-1,0,1032,1,-1541
392,4.403206,1,0,0,1030,-1,-1547
393,4.414856,2,-1,0,1031,-1,-1540
394,4.426534,1,1,3,1032,0,-1544
395,4.438177,1,0,1,1031,-1,-1542
396,4.449827,1,-2,-1,1032,0,-1543
397,4.461495,3,-1,1,1030,3,-1552
398,4.473061,1,-1,2,1030,-1,-1540
399,4.484608,1,0,-1,1031,0,-1540
400,4.496186,1,-2,0,1031,-1,-1538
401,4.507759,2,-1,0,1032,0,-1544
402,4.519352,0,2,0,1028,-3,-1540
403,4.530918,3,0,-1,1032,0,-1539
404,4.542471,3,1,-1,1032,-1,-1544
405,4.554016,0,3,0,1037,1,-1538
406,4.565573,2,1,1,1032,3,-1542
407,4.57713,1,1,1,1031,0,-1549
408,4.588724,2,-1,-1,1035,-2,-1539
409,4.600279,0,-1,0,1033,1,-1542
410,4.611868,2,-2,0,1031,0,-1540
411,4.623413,1,-2,0,1032,-2,-1543
412,4.634975,2,-1,1,1031,-2,-1539
413,4.646552,2,-2,-2,1027,-2,-1546
414,4.658104,2,-1,-1,1032,0,-1540
415,4.669653,1,0,0,1028,-2,-1547
416,4.681282,1,0,1,1031,-6,-1538
417,4.692929,3,1,0,1030,-1,-1545
418,4.704585,1,-1,0,1034,0,-1543
419,4.716279,4,0,0,1032,0,-1547
420,4.727948,2,-1,2,1029,-2,-1535
421,4.739622,2,1,1,1031,-1,-1545
422,4.751298,0,-1,-1,1033,-2,-1546
423,4.762966,1,0,-1,1035,-3,-1539
424,4.774661,2,0,-1,1035,0,-1541
425,4.786362,2,1,0,1029,0,-1538
426,4.797962,2,0,-2,1032,0,-1543
427,4.809609,1,1,-1,1034,0,-1543
428,4.821158,-1,0,-1,1029,3,-1545
429,4.832705,4,1,2,1031,0,-1549
430,4.844232,2,1,0,1032,3,-1540
431,4.855816,2,1,0,1034,2,-1541
432,4.867386,3,0,0,1032,-2,-1534
433,4.878981,1,1,0,1027,-1,-1544
434,4.890679,1,-2,0,1028,-1,-1545
435,4.902339,1,1,1,1029,0,-1541
436,4.914022,-1,1,1,1032,0,-1542
437,4.925667,1,-2,0,1030,0,-1543
438,4.937311,1,2,-1,1029,-2,-1544
439,4.948986,0,0,0,1031,1,-1540
440,4.960646,1,-1,-1,1029,2,-1536
441,4.972315,1,1,0,1029,-3,-1546
442,4.984029,2,0,1,1033,1,-1543
443,4.995686,0,1,-2,1030,0,-1541
444,5.007267,2,1,2,1030,0,-1541
445,5.018859,3,1,-1,1034,0,-1540
446,5.030409,3,-2,-1,1034,1,-1541
447,5.041965,0,0,0,1032,1,-1545
448,5.053519,3,-1,0,1032,-3,-1542
449,5.065092,0,-1,-1,1032,1,-1546
450,5.076639,1,0,0,1033,-2,-1548
451,5.088235,1,0,1,1032,-4,-1548
452,5.099874,2,0,0,1028,0,-1541
453,5.11155,0,0,0,1032,0,-1544
454,5.123226,-1,1,1,1033,0,-1545
455,5.134895,2,-1,0,1033,-1,-1540
456,5.14654,0,-1,-2,1032,1,-1543
457,5.158194,2,0,0,1033,1,-1546
458,5.169846,1,-1,1,1031,-1,-1539
459,5.181504,2,0,-1,1030,-6,-1543
460,5.193173,2,1,-1,1033,-2,-1538
461,5.204829,1,0,1,1031,-2,-1544
462,5.216393,1,1,0,1028,0,-1543
463,5.227983,1,-1,-2,1029,1,-1540
464,5.239578,2,1,-2,1035,-2,-1541
465,5.251149,0,0,0,1029,0,-1540
466,5.262715,1,-1,1,1031,0,-1546
467,5.274255,2,2,-1,1032,0,-1538
468,5.285794,2,0,0,1033,3,-1546
469,5.297349,3,2,1,1032,-3,-1541
470,5.309012,1,0,-1,1035,-1,-1544
471,5.320659,2,1,-1,1029,-1,-1541
472,5.332329,0,2,0,1032,-2,-1544
473,5.344012,2,2,0,1030,0,-1540
474,5.35568,1,2,0,1032,-2,-1541
475,5.367297,4,-1,0,1030,0,-1545
476,5.379029,3,-1,-1,1031,-1,-1541
477,5.390669,2,1,1,1032,1,-1542
478,5.402335,3,0,0,1031,-1,-1548
479,5.413993,-1,2,1,1032,0,-1546
480,5.425549,1,2,0,1030,-4,-1537
481,5.437101,1,2,-2,1026,1,-1546
482,5.448672,1,0,1,1030,-1,-1543
483,5.460236,1,-3,1,1031,0,-1537
484,5.471814,2,0,-1,1031,-1,-1540
485,5.483384,2,0,1,1030,0,-1537
486,5.494953,3,0,1,1031,0,-1539
487,5.506518,1,2,1,1029,0,-1541
488,5.518147,2,-1,1,1029,0,-1545
489,5.529805,1,1,0,1032,2,-1544
490,5.541478,0,2,0,1029,0,-1538
491,5.55314,2,0,2,1033,0,-1537
492,5.56479,1,2,0,1033,-2,-1541
493,5.576476,0,1,-2,1033,-5,-1539
494,5.588132,3,-2,0,1032,0,-1541
495,5.599808,1,1,0,1032,1,-1546
496,5.611496,1,-3,1,1029,0,-1542
497,5.62316,1,-1,-1,1032,-1,-1541
498,5.634719,2,-1,-1,1032,-1,-1542
499,5.646293,1,-1,0,1034,0,-1542
500,5.657856,1,1,0,1032,-4,-1542
501,5.669402,2,2,-1,1034,-3,-1546
502,5.680952,1,2,0,1032,-4,-1540
503,5.692499,2,-1,0,1031,0,-1545
504,5.704084,1,0,3,1031,0,-1540
505,5.715652,1,1,0,1029,-1,-1543
506,5.727284,2,-1,1,1031,-3,-1538
507,5.73894,0,0,0,1028,-1,-1547
508,5.750628,2,2,0,1032,-6,-1547
509,5.762274,3,-1,2,1028,0,-1545
510,5.774009,1,-3,0,1032,-3,-1540
511,5.785767,2,-1,0,1035,0,-1541
512,5.797417,1,1,1,1034,-2,-1538
513,5.809065,1,-1,-2,1032,-3,-1548
514,5.820735,0,0,0,1033,-5,-1545
515,5.832399,2,1,-1,1030,0,-1543
516,5.844063,0,0,0,1032,0,-1545
517,5.855724,0,1,1,1032,-4,-1539
518,5.867449,1,1,2,1028,1,-1544
519,5.879099,0,-2,0,1029,-3,-1539
520,5.890758,1,0,-1,1032,-1,-1541
521,5.902417,1,0,0,1027,1,-1537
522,5.914064,0,0,0,1034,0,-1540
523,5.925769,2,1,-1,1034,-5,-1546
524,5.937426,-1,0,-1,1028,-1,-1547
525,5.949089,3,0,0,1031,0,-1542
526,5.960756,1,-2,-1,1032,1,-1545
527,5.972444,3,-1,-1,1032,0,-1545
528,5.984062,2,0,-1,1030,0,-1545
529,5.995736,2,1,-3,1032,-1,-1541
530,6.007412,3,0,-1,1031,-3,-1544
531,6.019043,0,-1,-1,1031,1,-1544
532,6.030729,1,1,0,1033,-2,-1542
533,6.042394,1,1,-1,1032,-1,-1544
534,6.054041,0,0,0,1032,-1,-1541
535,6.065695,1,-2,-1,1036,0,-1540
536,6.077337,1,-1,1,1033,-2,-1538
537,6.088993,1,0,-1,1029,-4,-1544
538,6.100645,0,0,1,1032,-3,-1545
539,6.112307,2,0,2,1032,-1,-1540
540,6.123994,1,0,2,1031,-2,-1544
541,6.135685,0,1,0,1031,0,-1547
542,6.147406,2,0,-1,1032,-1,-1544
543,6.158964,2,1,-1,1030,3,-1537
544,6.170521,3,0,0,1032,-1,-1543
545,6.182091,2,0,0,1032,2,-1542
546,6.193635,3,2,0,1032,1,-1542
547,6.205183,0,-1,0,1032,0,-1545
548,6.216731,3,0,0,1033,3,-1541
549,6.228281,0,-1,2,1032,-1,-1542
550,6.239884,2,-2,2,1030,1,-1539
551,6.251557,2,-2,0,1032,-4,-1540
552,6.263211,1,2,-1,1030,-1,-1544
553,6.27489,-1,1,-1,1030,0,-1544
554,6.286548,1,2,3,1036,-3,-1542
555,6.298194,1,-1,0,1031,1,-1547
556,6.309867,2,0,0,1031,0,-1545
557,6.321524,4,1,0,1032,-4,-1544
558,6.333166,0,1,0,1032,-4,-1541
559,6.344828,0,-1,-2,1030,-1,-1541
560,6.356516,1,1,-3,1029,-2,-1543
561,6.368091,3,-1,-1,1032,-1,-1540
562,6.379645,2,0,0,1032,1,-1542
563,6.391196,1,-1,0,1031,-1,-1547
564,6.40274,1,1,-1,1031,-2,-1534
565,6.414301,2,-2,-1,1033,0,-1541
566,6.425855,0,1,0,1031,-3,-1541
567,6.437398,3,0,1,1037,0,-1543
568,6.448961,2,1,0,1028,3,-1550
569,6.460579,3,2,1,1032,-2,-1538
570,6.472242,2,0,0,1032,1,-1542
571,6.483931,1,1,1,1033,0,-1545
572,6.49563,2,1,-1,1030,-2,-1546
573,6.507295,1,0,-1,1026,-3,-1542
574,6.518956,0,1,-1,1032,-2,-1540
575,6.530623,0,-1,-1,1031,0,-1543
576,6.542271,2,0,-1,1031,2,-1543
577,6.553922,2,-2,0,1034,-1,-1539
578,6.565502,2,2,0,1030,1,-1550
579,6.577047,2,1,0,1032,-4,-1545
580,6.588595,3,0,-1,1031,-2,-1541
581,6.600188,1,-1,1,1033,-2,-1543
582,6.611771,3,1,0,1032,0,-1539
583,6.623331,2,2,1,1031,-1,-1546
584,6.634887,1,-1,3,1032,-6,-1541
585,6.646464,0,-1,3,1028,-2,-1542
586,6.658025,1,0,0,1032,2,-1536
587,6.669656,2,0,-2,1033,3,-1543
588,6.681331,0,1,0,1032,2,-1536
589,6.693073,0,-1,-2,1031,1,-1548
590,6.704735,1,1,1,1032,-1,-1546
591,6.716392,3,1,0,1029,-5,-1542
592,6.728059,2,1,2,1031,-4,-1546
593,6.739741,2,2,2,1030,-3,-1543
594,6.751422,1,-2,1,1031,-3,-1549
595,6.763115,0,1,1,1031,-5,-1538
596,6.77484,1,-1,2,1037,-2,-1542
597,6.78644,2,0,-1,1033,-3,-1537
598,6.797997,2,1,2,1031,-3,-1539
599,6.809573,3,0,0,1032,-1,-1541
600,6.821112,0,-1,1,1035,-2,-1546
601,6.832656,2,0,-1,1031,-1,-1547
602,6.844231,0,-1,0,1031,0,-1540
603,6.855836,1,0,0,1033,0,-1545
604,6.867409,2,0,0,1029,-3,-1540
605,6.879039,0,1,0,1031,0,-1543
606,6.890696,0,1,-1,1032,-2,-1543
607,6.902375,-1,3,0,1032,0,-1547
608,6.914026,3,1,0,1033,-2,-1546
609,6.925674,1,0,1,1031,-1,-1548
610,6.937326,1,1,0,1032,-2,-1540
611,6.948969,2,0,-1,1028,1,-1540
612,6.960633,1,0,0,1032,0,-1541
613,6.972324,3,-1,-1,1030,-2,-1543
614,6.984047,2,0,1,1031,0,-1542
615,6.99563,1,-1,0,1030,-4,-1549
616,7.007204,2,0,1,1029,1,-1544
617,7.018751,1,-1,1,1032,0,-1547
618,7.030309,0,-1,-2,1028,0,-1533
619,7.041861,2,2,-1,1032,-4,-1545
620,7.053414,2,1,3,1030,0,-1545
621,7.064962,1,-1,0,1032,-2,-1544
622,7.076544,3,-1,2,1029,0,-1544
623,7.088204,0,-1,1,1032,0,-1538
624,7.099885,2,-2,-2,1036,-1,-1546
625,7.111544,0,-2,-1,1035,-2,-1545
626,7.123199,2,1,1,1032,-2,-1549
627,7.134867,1,-2,0,1030,2,-1541
628,7.146516,1,0,-2,1031,3,-1538
629,7.158168,1,2,1,1029,-1,-1540
630,7.169839,0,0,-2,1032,-6,-1541
631,7.181499,2,1,1,1030,-5,-1540
632,7.193074,3,1,0,1029,-3,-1547
633,7.204621,1,-1,1,1034,0,-1543
634,7.216168,2,-2,2,1032,-3,-1545
635,7.227755,2,0,-1,1031,-4,-1539
636,7.239332,2,-1,2,1029,-1,-1541
637,7.250879,2,2,2,1032,0,-1546
638,7.262454,0,-1,0,1031,-6,-1538
639,7.274037,1,-1,0,1032,2,-1543
640,7.285592,1,-2,2,1030,0,-1544
641,7.297252,3,-4,-1,1029,0,-1540
642,7.308937,2,-2,0,1030,0,-1539
643,7.320587,2,1,-1,1030,-6,-1547
644,7.332256,0,2,0,1027,0,-1545
645,7.343932,2,2,-1,1030,0,-1537
646,7.355589,-1,0,1,1029,-1,-1542
647,7.367267,2,-1,-1,1032,-6,-1538
648,7.378914,1,1,-2,1031,-1,-1540
649,7.390576,1,1,3,1032,-4,-1537
650,7.402238,2,1,-1,1032,0,-1539
651,7.41389,3,0,0,1028,0,-1538
652,7.425536,1,1,0,1033,0,-1539
653,7.437185,2,0,1,1035,-1,-1543
654,7.448862,4,0,0,1036,0,-1549
655,7.46051,2,-1,1,1033,2,-1542
656,7.472183,0,2,1,1029,-5,-1540
657,7.483808,1,1,1,1033,-4,-1545
658,7.4955,1,1,0,1031,-5,-1545
659,7.50717,1,3,1,1031,-1,-1541
660,7.518816,1,-2,-1,1032,0,-1548
661,7.530467,2,0,0,1031,-4,-1542
662,7.542132,0,0,1,1032,0,-1538
663,7.553772,1,2,2,1033,-2,-1537
664,7.565422,2,0,1,1034,2,-1542
665,7.577088,-1,0,0,1030,5,-1537
666,7.588764,2,1,-1,1028,-2,-1544
667,7.600516,1,1,0,1032,-1,-1544
668,7.612233,1,0,1,1032,0,-1547
669,7.623828,2,-1,0,1031,-1,-1547
670,7.635405,0,0,2,1031,0,-1544
671,7.646956,1,-1,0,1032,1,-1543
672,7.658501,3,0,-1,1027,-2,-1545
673,7.670066,2,-1,1,1033,1,-1548
674,7.681617,2,0,0,1035,1,-1543
675,7.693175,1,1,1,1030,0,-1537
676,7.704731,0,-1,-1,1030,-1,-1546
677,7.716373,2,-1,-2,1028,0,-1547
678,7.728087,2,-1,0,1032,0,-1541
679,7.73974,2,0,1,1032,-4,-1541
680,7.751419,1,0,0,1029,2,-1544
681,7.76304,3,0,2,1032,-4,-1543
682,7.774688,1,1,1,1031,-2,-1548
683,7.786374,1,2,0,1036,0,-1538
684,7.798023,-1,1,2,1034,-2,-1542
685,7.809685,1,0,1,1032,-2,-1542
686,7.821368,0,2,0,1030,1,-1543
687,7.832927,1,0,0,1032,0,-1544
688,7.844482,2,0,0,1031,2,-1541
689,7.856058,1,0,0,1028,1,-1539
690,7.86764,2,-1,2,1032,1,-1542
691,7.879206,-1,-1,2,1031,1,-1542
692,7.890757,2,-2,0,1030,1,-1545
693,7.902323,0,-1,0,1027,-2,-1544
694,7.913924,2,0,0,1032,-1,-1542
695,7.925547,3,2,-1,1033,0,-1545
696,7.937206,0,1,1,1029,-1,-1535
697,7.948882,-1,-1,-1,1032,-2,-1544
698,7.960616,3,3,0,1032,-1,-1548
699,7.972293,1,1,1,1032,-1,-1542
700,7.983951,2,4,-2,1033,-4,-1538
701,7.995632,-1,-1,1,1032,-1,-1544
702,8.007297,1,2,-2,1031,0,-1543
703,8.018958,1,1,0,1031,3,-1541
704,8.030629,0,1,0,1032,0,-1549
705,8.042278,0,-2,0,1032,-1,-1543
706,8.053924,3,1,1,1035,0,-1547
707,8.065595,1,-1,-1,1028,1,-1545
708,8.077243,1,0,0,1032,3,-1547
709,8.088948,2,1,-1,1028,-2,-1540
710,8.100625,1,0,0,1030,0,-1543
711,8.112297,2,-2,-1,1033,-1,-1540
712,8.124036,0,1,1,1032,1,-1540
713,8.135716,1,0,-2,1031,1,-1549
714,8.147267,0,2,1,1030,-2,-1543
715,8.158814,1,0,-1,1030,-2,-1544
716,8.170365,1,0,-1,1031,-3,-1547
717,8.181951,-1,1,0,1034,-3,-1538
718,8.193499,0,0,1,1026,-1,-1542
719,8.205062,0,0,0,1028,-1,-1536
720,8.216605,1,1,1,1032,0,-1541
721,8.228215,2,1,0,1032,-5,-1542
722,8.239865,1,-1,2,1031,-1,-1542
723,8.251543,2,1,-1,1032,-1,-1546
724,8.26319,2,1,0,1029,3,-1536
725,8.274872,2,-1,2,1032,-1,-1540
726,8.286532,1,0,0,1032,-4,-1542
727,8.29821,2,0,0,1032,0,-1544
728,8.309867,0,-2,0,1030,-1,-1536
729,8.321541,3,2,-1,1031,-1,-1538
730,8.333222,1,2,-1,1032,1,-1538
731,8.344889,2,0,2,1032,-1,-1546
732,8.356483,2,0,2,1032,0,-1555
733,8.36806,0,1,-1,1030,-4,-1544
734,8.379635,1,-1,0,1029,0,-1538
735,8.391201,1,1,-1,1029,0,-1547
736,8.402756,2,-1,1,1028,-3,-1541
737,8.414321,0,2,-1,1035,0,-1541
738,8.425863,1,2,-2,1032,1,-1546
739,8.437426,1,-1,1,1030,-3,-1541
740,8.449113,1,2,0,1031,-1,-1536
741,8.460796,1,1,0,1031,0,-1541
742,8.472482,2,-2,0,1031,2,-1544
743,8.484148,0,0,2,1030,-1,-1542
744,8.495806,2,0,-1,1031,-2,-1542
745,8.507471,1,0,0,1030,0,-1540
746,8.51916,0,1,1,1032,2,-1538
747,8.530812,2,0,-2,1033,-2,-1541
748,8.542493,1,-1,0,1029,0,-1546
749,8.554153,2,-1,0,1027,-2,-1539
750,8.565703,1,-1,1,1031,0,-1545
751,8.577243,2,1,-2,1028,0,-1544
752,8.588793,-1,-1,-1,1032,3,-1544
753,8.600359,1,0,-2,1032,-1,-1544
754,8.611956,4,-2,2,1031,-3,-1548
755,8.623504,3,-1,2,1033,0,-1541
756,8.635028,1,0,0,1032,1,-1543
757,8.646597,2,0,2,1038,-5,-1545
758,8.658247,2,0,1,1033,-1,-1545
759,8.669904,0,0,1,1032,-2,-1541
760,8.681572,2,1,1,1030,-2,-1544
761,8.693265,2,-1,1,1029,0,-1535
762,8.704936,1,-2,0,1035,0,-1550
763,8.716608,1,1,0,1032,-1,-1541
764,8.728258,1,0,0,1035,-1,-1537
765,8.739928,1,-2,0,1031,-2,-1543
766,8.751553,1,2,0,1033,-2,-1548
767,8.763223,1,1,1,1029,-6,-1546
768,8.774813,1,1,-2,1031,0,-1545
769,8.786358,0,0,1,1032,0,-1543
770,8.797913,3,0,0,1032,-2,-1545
771,8.809463,1,-1,2,1032,-2,-1536
772,8.821028,2,0,1,1035,-2,-1542
773,8.832606,1,-2,0,1031,0,-1538
774,8.8442,1,1,-2,1032,-2,-1540
775,8.855767,1,1,0,1030,1,-1537
776,8.867422,2,0,-2,1031,1,-1537
777,8.8791,2,-2,0,1029,-2,-1537
778,8.890751,2,-2,1,1031,-3,-1547
779,8.902403,0,-1,0,1031,0,-1538
780,8.914062,1,-1,-1,1030,-1,-1542
781,8.925704,1,0,0,1028,0,-1536
782,8.937355,3,-1,0,1032,-1,-1542
783,8.949011,2,-1,0,1034,2,-1537
784,8.960661,0,-1,-1,1030,-1,-1546
785,8.972349,0,0,0,1032,-8,-1539
786,8.984006,2,0,-2,1030,-1,-1547
787,8.99572,0,0,0,1031,0,-1546
788,9.007371,3,0,1,1031,0,-1543
789,9.019039,2,1,0,1028,0,-1539
790,9.030715,0,1,0,1032,1,-1544
791,9.042364,2,1,0,1031,-3,-1534
792,9.054017,3,-1,0,1030,-1,-1537
793,9.065785,3,0,0,1031,-2,-1543
794,9.077436,3,-1,1,1030,-2,-1535
795,9.088992,2,1,0,1035,0,-1536
796,9.100549,0,1,1,1032,0,-1541
797,9.112114,2,-1,1,1032,1,-1542
798,9.123666,1,-1,2,1030,-2,-1542
799,9.135215,2,0,1,1037,-4,-1544
800,9.146794,2,0,-1,1025,-3,-1545
801,9.158343,1,2,-1,1029,0,-1544
802,9.169938,4,1,1,1030,0,-1540
803,9.181551,0,1,0,1032,-3,-1540
804,9.193216,0,0,0,1028,2,-1541
805,9.204897,2,2,-1,1029,-3,-1549
806,9.216602,2,-1,0,1032,0,-1540
807,9.228254,0,0,-1,1036,-3,-1539
808,9.239926,3,0,1,1031,-4,-1542
809,9.25156,1,-1,0,1029,-1,-1541
810,9.26322,1,0,0,1032,0,-1543
811,9.274891,1,1,0,1032,3,-1548
812,9.286538,2,2,1,1032,-5,-1535
813,9.298106,1,0,1,1029,-5,-1539
814,9.309704,1,0,0,1034,-4,-1541
815,9.321255,1,-1,-1,1027,0,-1547
816,9.332806,4,2,0,1030,0,-1536
817,9.344364,1,-1,0,1028,-1,-1543
818,9.35595,2,2,-1,1032,-2,-1543
819,9.367508,1,1,4,1029,0,-1543
820,9.379077,1,-1,1,1032,-3,-1546
821,9.390701,1,2,0,1032,1,-1542
822,9.402357,1,2,2,1027,-2,-1537
823,9.414014,1,0,-1,1032,-2,-1542
824,9.425672,3,0,0,1031,-1,-1548
825,9.437352,-1,1,-1,1032,0,-1542
826,9.449005,2,-1,-2,1029,0,-1541
827,9.460671,2,-4,-1,1034,-4,-1532
828,9.472354,3,0,1,1028,-6,-1546
829,9.484042,-2,4,2,1032,0,-1546
830,9.495706,5,2,-1,1037,-5,-1545
831,9.507305,-3,2,1,1035,0,-1551
832,9.518949,4,1,1,1031,-3,-1545
833,9.530502,1,-3,-2,1033,-5,-1539
834,9.54206,2,0,1,1032,2,-1539
835,9.553602,1,0,0,1033,0,-1532
836,9.565143,2,-1,-1,1031,3,-1542
837,9.576727,1,0,-2,1031,0,-1544
838,9.588322,4,-1,1,1032,-4,-1555
839,9.599985,-1,-2,0,1029,1,-1546
840,9.611671,6,-1,1,1035,6,-1555
841,9.623285,-3,2,-1,1027,2,-1539
842,9.634964,1,0,0,1029,-5,-1534
843,9.646608,2,2,-1,1032,0,-1549
844,9.65825,2,-1,2,1030,0,-1542
845,9.669904,-1,-1,1,1031,-4,-1546
846,9.681544,1,1,1,1030,0,-1539
847,9.693203,1,0,1,1029,-2,-1545
848,9.704876,3,1,0,1030,0,-1536
849,9.716462,-1,1,2,1032,-3,-1541
850,9.72799,3,0,1,1032,-3,-1539
851,9.739507,1,1,-1,1030,0,-1545
852,9.751024,-1,3,-1,1033,0,-1547
853,9.762572,1,1,0,1036,-1,-1541
854,9.774141,3,1,-2,1032,0,-1540
855,9.78569,1,3,0,1033,-1,-1542
856,9.797269,2,3,0,1029,-3,-1548
857,9.808893,1,1,0,1028,0,-1546
858,9.820599,2,3,1,1028,-2,-1547
859,9.832247,3,3,2,1028,0,-1546
860,9.843944,1,7,0,1024,-5,-1546
861,9.855602,1,6,0,1027,3,-1542
862,9.867277,1,5,-1,1022,0,-1539
863,9.878945,1,6,1,1022,-1,-1536
864,9.890606,4,5,1,1029,-2,-1546
865,9.902263,2,2,0,1037,-2,-1535
866,9.913925,2,4,0,1037,-1,-1542
867,9.925477,4,4,2,1033,-3,-1545
868,9.937026,3,4,2,1034,-1,-1541
869,9.948595,3,2,0,1036,-2,-1536
870,9.960149,1,1,1,1034,-3,-1545
871,9.971699,2,2,-2,1036,-2,-1533
872,9.983255,2,-3,1,1037,-2,-1539
873,9.994809,-1,-2,0,1037,-1,-1540
874,10.006362,3,-4,2,1039,1,-1542
875,10.018015,1,-4,-1,1035,-6,-1541
876,10.029657,2,-4,0,1032,-1,-1549
877,10.041326,2,-3,1,1032,0,-1540
878,10.052978,3,-1,1,1027,1,-1545
879,10.06463,1,0,1,1026,0,-1545
880,10.07633,0,1,0,1030,0,-1546
881,10.087985,1,0,1,1029,2,-1538
882,10.099653,2,0,0,1028,-1,-1550
883,10.111295,2,0,-1,1031,2,-1536
884,10.122864,2,2,0,1033,-1,-1543
885,10.134417,1,0,0,1032,0,-1541
886,10.145964,-1,-2,0,1034,1,-1543
887,10.157541,5,1,-1,1036,0,-1547
888,10.169115,1,0,-1,1037,1,-1547
889,10.180672,4,-1,0,1036,-3,-1538
890,10.192219,2,2,0,1031,-3,-1531
891,10.203748,0,2,2,1030,2,-1541
892,10.215263,2,-2,-1,1033,0,-1540
893,10.226933,1,-3,-1,1034,1,-1535
894,10.238593,1,-1,0,1037,-2,-1544
895,10.250239,0,-1,0,1035,-1,-1550
896,10.261893,2,-2,0,1033,-2,-1544
897,10.273568,2,-2,0,1028,-2,-1547
898,10.285226,1,0,1,1025,0,-1547
899,10.296875,1,2,-1,1029,0,-1543
900,10.308575,1,-1,1,1028,0,-1546
901,10.320274,2,0,-2,1036,-2,-1546
902,10.331941,1,-1,0,1037,0,-1550
903,10.343622,2,-2,0,1035,-1,-1539
904,10.355294,4,-1,-1,1031,0,-1546
905,10.366952,-1,0,0,1030,1,-1544
906,10.378615,2,-3,0,1033,-4,-1537
907,10.39027,1,-3,-2,1031,-4,-1546
908,10.401919,1,0,0,1037,0,-1543
909,10.413605,0,-1,-2,1036,3,-1548
910,10.425274,2,-2,1,1033,1,-1540
911,10.436825,0,-1,0,1032,-3,-1539
912,10.448388,3,-2,0,1031,-1,-1540
913,10.459947,2,-2,-1,1030,-1,-1548
914,10.471512,0,-2,-1,1033,-3,-1541
915,10.483065,0,-2,0,1034,-4,-1541
916,10.494671,-1,-2,1,1035,-4,-1546
917,10.506225,0,-4,-2,1031,-7,-1541
918,10.517812,-1,-3,2,1028,-6,-1548
919,10.529535,-1,0,2,1031,0,-1542
920,10.541214,-1,-4,0,1030,0,-1544
921,10.552856,0,0,1,1031,1,-1542
922,10.564509,0,-1,2,1032,1,-1541
923,10.576222,2,-2,-1,1032,0,-1541
924,10.587877,0,-2,0,1030,2,-1543
925,10.599562,1,-2,-1,1032,0,-1539
926,10.61127,0,0,0,1031,-1,-1547
927,10.622928,1,0,0,1032,0,-1543
928,10.634621,2,2,-1,1032,0,-1541
929,10.646177,0,1,1,1033,-2,-1542
930,10.657721,1,1,1,1029,1,-1540
931,10.669265,0,0,-1,1027,-1,-1538
932,10.680812,2,-2,2,1033,0,-1540
933,10.692387,2,0,1,1035,-3,-1548
934,10.703933,0,-4,1,1038,-1,-1548
935,10.715519,2,-2,-2,1035,-3,-1544
936,10.727085,-1,0,0,1027,-4,-1539
937,10.738722,1,1,-1,1028,-2,-1548
938,10.750375,-1,1,1,1027,-1,-1545
939,10.762021,1,2,2,1035,-1,-1541
940,10.773675,-1,0,-1,1029,0,-1542
941,10.785405,1,0,0,1029,0,-1536
942,10.797078,3,0,-1,1027,0,-1553
943,10.808732,-1,1,1,1031,1,-1541
944,10.820382,0,0,-3,1038,2,-1534
945,10.832097,0,-2,-1,1036,2,-1540
946,10.843795,1,-2,0,1032,4,-1539
947,10.855384,0,0,0,1031,0,-1539
948,10.866931,2,-1,-1,1033,-1,-1552
949,10.878475,1,0,-2,1031,-3,-1544
950,10.890041,3,1,0,1030,-6,-1544
951,10.90162,3,0,0,1026,-3,-1547
952,10.913167,0,-2,-1,1029,-2,-1543
953,10.924718,3,1,1,1030,-8,-1547
954,10.936304,0,0,1,1031,-3,-1544
955,10.947956,1,1,1,1033,0,-1544
956,10.959617,2,0,0,1039,-5,-1547
957,10.971285,-1,0,0,1034,-2,-1538
958,10.982935,0,-1,0,1027,-2,-1543
959,10.99461,1,1,1,1024,-1,-1545
960,11.006264,1,1,1,1028,2,-1538
961,11.017965,3,0,-1,1032,-3,-1540
962,11.029619,1,-1,0,1034,-5,-1539
963,11.041295,-1,0,1,1038,-3,-1542
964,11.05299,-1,0,-2,1032,2,-1534
965,11.06455,2,-1,-2,1030,0,-1539
966,11.076154,2,1,2,1028,2,-1543
967,11.087731,0,0,-2,1026,0,-1543
968,11.099259,0,-1,0,1032,1,-1550
969,11.110802,0,1,1,1028,-1,-1543
970,11.12234,1,0,1,1028,0,-1545
971,11.13389,0,-1,1,1029,-1,-1544
972,11.145463,1,-1,0,1030,-6,-1544
973,11.157087,4,1,-2,1031,-2,-1547
974,11.168741,0,-1,1,1032,-2,-1545
975,11.180418,1,2,-1,1032,-2,-1542
976,11.192082,-1,1,0,1034,0,-1549
977,11.203741,0,1,0,1032,2,-1539
978,11.215427,3,1,0,1032,0,-1540
979,11.227091,2,-2,1,1027,0,-1542
980,11.238736,1,-1,3,1032,0,-1540
981,11.250401,2,-1,0,1031,0,-1545
982,11.26206,1,0,1,1031,-2,-1538
983,11.273613,5,-2,0,1033,1,-1542
984,11.28517,2,1,1,1035,-2,-1550
985,11.296727,2,1,-2,1034,0,-1537
986,11.308298,1,-2,1,1036,0,-1545
987,11.319863,0,0,0,1028,0,-1555
988,11.33142,-1,0,0,1030,-3,-1541
989,11.343023,2,2,-1,1025,1,-1548
990,11.354597,-1,-1,3,1029,0,-1541
991,11.366313,5,2,1,1030,-2,-1542
992,11.377975,-1,1,0,1033,-3,-1549
993,11.389633,2,2,1,1033,-5,-1542
994,11.401299,1,1,0,1035,-3,-1545
995,11.412958,1,-1,0,1034,0,-1542
996,11.424647,-1,-2,-1,1034,-1,-1546
997,11.436338,1,-1,0,1030,2,-1540
998,11.448001,0,0,3,1032,0,-1546
999,11.459696,1,1,2,1026,4,-1539
1000,11.471265,2,0,1,1028,2,-1541
1001,11.48282,1,1,0,1032,-2,-1543
1002,11.494418,2,-1,0,1033,0,-1540
1003,11.50597,3,-1,-1,1035,-1,-1540
1004,11.517528,3,-1,0,1031,-4,-1543
1005,11.529066,1,-1,-1,1034,0,-1545
1006,11.540609,1,0,-1,1034,-2,-1546
1007,11.552173,2,-2,1,1032,2,-1540
1008,11.563747,2,-1,2,1028,-2,-1552
1009,11.57543,2,-1,0,1028,-3,-1543
1010,11.587092,2,1,-2,1031,3,-1546
1011,11.59874,0,3,1,1029,-1,-1539
1012,11.6104,1,3,1,1028,-1,-1542
1013,11.622076,1,1,1,1033,1,-1539
1014,11.633748,3,1,0,1031,-4,-1544
1015,11.645406,1,1,1,1031,0,-1549
1016,11.657078,1,-2,-1,1036,-1,-1540
1017,11.668733,1,-1,-2,1035,-1,-1544
1018,11.680386,1,-1,-1,1030,-2,-1542
1019,11.69207,2,0,0,1031,2,-1540
1020,11.703722,1,2,0,1033,0,-1547
1021,11.715415,2,0,1,1031,-2,-1548
1022,11.727075,1,-2,0,1033,-2,-1538
1023,11.738721,2,0,-1,1035,0,-1540
1024,11.750371,1,0,0,1032,0,-1542
1025,11.762037,1,0,-2,1035,-2,-1540
1026,11.773746,4,-2,0,1030,-3,-1543
1027,11.785425,0,0,1,1028,-2,-1546
1028,11.797054,2,-1,1,1028,-2,-1544
1029,11.80861,0,-2,-1,1029,-2,-1546
1030,11.820167,1,-1,1,1030,2,-1546
1031,11.831772,2,1,-1,1029,0,-1545
1032,11.843331,1,1,0,1034,0,-1543
1033,11.854904,-1,0,0,1031,4,-1541
1034,11.866462,3,1,0,1032,-1,-1537
1035,11.878025,1,3,1,1032,-1,-1540
1036,11.889571,1,-1,0,1034,-1,-1536
1037,11.901114,2,0,0,1032,-1,-1541
1038,11.912659,-1,0,-2,1030,0,-1545
1039,11.924238,3,-3,1,1032,0,-1541
1040,11.935796,3,2,2,1026,-2,-1545
1041,11.947348,1,2,1,1034,0,-1539
1042,11.958908,2,0,0,1036,0,-1542
1043,11.970525,1,-1,-1,1032,0,-1545
1044,11.982179,0,0,-2,1029,0,-1547
1045,11.993847,1,0,-1,1032,-2,-1551
1046,12.005548,1,-3,0,1026,-4,-1545
1047,12.017224,1,0,-1,1030,-4,-1539
1048,12.028876,2,0,0,1030,-1,-1547
1049,12.040596,0,-1,0,1033,2,-1549
1050,12.052257,2,1,1,1028,0,-1542
1051,12.063952,1,-1,0,1027,2,-1547
1052,12.075614,3,1,0,1030,-1,-1548
1053,12.087286,1,1,0,1029,1,-1541
1054,12.098848,3,1,0,1032,2,-1540
1055,12.110412,0,1,-1,1031,0,-1543
1056,12.121959,0,2,0,1032,-2,-1552
1057,12.133506,1,-1,-1,1031,0,-1545
1058,12.145049,0,2,1,1031,-1,-1547
1059,12.156593,1,0,-2,1034,0,-1546
1060,12.16819,1,1,-1,1029,-3,-1548
1061,12.179784,0,0,2,1032,1,-1545
1062,12.191447,1,0,2,1030,-2,-1534
1063,12.203114,2,-2,1,1035,-2,-1544
1064,12.214759,2,0,0,1029,-1,-1549
1065,12.226409,1,1,1,1029,-3,-1539
1066,12.238081,4,2,-2,1031,0,-1540
1067,12.249727,0,0,-1,1033,1,-1544
1068,12.26138,1,0,1,1029,-1,-1542
1069,12.27305,3,2,-2,1035,0,-1544
1070,12.284719,1,-1,-1,1032,-2,-1544
1071,12.296378,1,0,0,1034,-3,-1539
1072,12.307943,2,0,0,1032,-1,-1543
1073,12.319506,0,-2,0,1032,0,-1544
1074,12.331026,1,0,-1,1032,0,-1539
1075,12.342569,3,0,0,1032,0,-1541
1076,12.354111,1,-1,-1,1032,-1,-1542
1077,12.365659,0,1,0,1033,-1,-1535
1078,12.377256,1,1,1,1032,-2,-1542
1079,12.38894,1,1,1,1032,2,-1536
1080,12.4006,2,0,0,1026,0,-1539
1081,12.412248,1,0,0,1029,-5,-1538
1082,12.423942,1,1,-1,1031,-4,-1545
1083,12.43561,2,-1,2,1034,-2,-1548
1084,12.447273,2,1,-1,1033,-2,-1541
1085,12.458924,0,1,-1,1028,3,-1542
1086,12.470587,1,0,-1,1033,-2,-1549
1087,12.482232,0,0,0,1031,-1,-1540
1088,12.493895,2,0,0,1031,2,-1544
1089,12.505568,2,-1,0,1032,-1,-1547
1090,12.517117,2,-1,0,1032,1,-1541
1091,12.528666,0,1,1,1032,-2,-1540
1092,12.540314,3,1,-2,1030,-3,-1538
1093,12.551924,0,-1,1,1033,0,-1541
1094,12.56352,1,-1,0,1029,1,-1545
1095,12.575082,0,0,1,1029,-2,-1533
1096,12.586657,2,2,-1,1029,1,-1540
1097,12.598224,0,0,0,1032,1,-1544
1098,12.60984,0,0,1,1029,0,-1540
1099,12.621492,1,-1,-1,1032,-1,-1545
1100,12.633132,1,-1,2,1033,0,-1539
1101,12.644786,2,0,0,1028,0,-1545
1102,12.656461,3,0,-1,1035,1,-1548
1103,12.668108,1,0,2,1032,-1,-1545
1104,12.679818,0,1,2,1033,-1,-1538
1105,12.691478,1,1,-1,1031,2,-1540
1106,12.703157,2,1,0,1033,0,-1541
1107,12.714836,1,0,1,1031,0,-1542
1108,12.726403,2,1,2,1032,-4,-1542
1109,12.737947,0,0,1,1031,0,-1545
1110,12.749512,1,-1,2,1034,-2,-1548
1111,12.761052,1,-1,-1,1032,-3,-1544
1112,12.772594,1,0,-2,1032,-3,-1543
1113,12.784152,2,-1,-1,1027,0,-1548
1114,12.795744,0,0,0,1033,-4,-1537
1115,12.807294,3,0,-1,1034,-4,-1543
1116,12.818949,1,2,0,1030,0,-1541
1117,12.830727,1,1,-2,1031,-3,-1543
1118,12.842398,2,2,-1,1030,-5,-1544
1119,12.854079,0,2,1,1030,-3,-1544
1120,12.865737,1,-2,0,1032,-2,-1541
1121,12.877396,2,1,0,1033,-1,-1542
1122,12.889042,0,0,1,1032,-3,-1535
1123,12.9007,0,2,1,1031,0,-1546
1124,12.912376,2,-1,-2,1032,0,-1550
1125,12.924074,2,1,-1,1034,-2,-1542
1126,12.935731,2,2,0,1032,0,-1543
1127,12.947417,1,-2,-1,1035,-3,-1545
1128,12.959086,1,0,0,1030,-2,-1549
1129,12.970731,1,-1,1,1032,1,-1542
1130,12.982383,2,-1,-2,1029,5,-1548
1131,12.994042,1,1,0,1031,0,-1547
1132,13.005692,3,1,-1,1030,0,-1546
1133,13.017379,2,-1,-1,1027,-1,-1545
1134,13.029027,1,-1,0,1028,-1,-1540
1135,13.04068,3,1,-1,1032,0,-1547
1136,13.052331,1,-1,1,1031,0,-1548
1137,13.063982,2,1,2,1028,1,-1540
1138,13.075626,2,0,1,1027,-2,-1538
1139,13.087289,1,2,0,1033,-3,-1541
1140,13.098949,1,1,1,1027,1,-1537
1141,13.110599,3,2,1,1032,0,-1542
1142,13.122294,1,0,-1,1030,3,-1547
1143,13.133949,1,0,-1,1034,0,-1542
1144,13.145601,1,-1,-1,1032,0,-1542
1145,13.157245,2,-1,1,1033,-1,-1539
1146,13.168891,1,0,-1,1031,1,-1543
1147,13.180577,-1,1,-1,1031,0,-1541
1148,13.192231,2,-2,2,1033,-3,-1542
1149,13.203878,2,-1,0,1033,2,-1547
1150,13.21555,0,0,1,1033,-2,-1544
1151,13.227218,1,0,0,1032,0,-1544
1152,13.2389,2,1,-1,1029,-3,-1545
1153,13.250536,0,0,0,1031,0,-1545
1154,13.262083,1,0,1,1030,-3,-1552
1155,13.273637,3,0,2,1027,0,-1547
1156,13.285215,0,-1,1,1030,2,-1541
1157,13.296769,2,-1,-1,1027,3,-1542
1158,13.308351,1,-1,-1,1033,-3,-1546
1159,13.319912,1,0,-1,1033,0,-1541
1160,13.331555,1,-1,-1,1029,-2,-1548
1161,13.343105,3,1,-1,1032,3,-1547
1162,13.354647,3,0,1,1032,-2,-1540
1163,13.366203,1,0,1,1030,-3,-1543
1164,13.377767,2,1,1,1032,-1,-1543
1165,13.389317,0,2,0,1029,-3,-1543
1166,13.400888,2,0,0,1032,0,-1540
1167,13.412598,2,0,0,1030,0,-1543
1168,13.424157,5,0,1,1032,-1,-1540
1169,13.435738,2,0,0,1033,-5,-1544
1170,13.447415,1,0,-1,1031,-3,-1546
1171,13.459094,1,0,-1,1032,0,-1539
1172,13.470755,1,3,0,1031,-2,-1542
1173,13.482409,2,-2,1,1029,1,-1550
1174,13.494094,1,-1,-1,1032,-4,-1545
1175,13.505751,1,-1,0,1031,0,-1542
1176,13.517399,1,-2,1,1031,1,-1541
1177,13.529082,3,2,-1,1028,0,-1542
1178,13.540741,0,0,2,1031,-1,-1535
1179,13.552306,1,2,0,1031,1,-1544
1180,13.563912,0,-2,0,1032,-3,-1541
1181,13.575524,3,1,1,1033,0,-1542
1182,13.587076,2,-1,0,1031,1,-1543
1183,13.598649,1,1,1,1029,0,-1539
1184,13.610199,0,1,0,1032,1,-1543
1185,13.621772,1,0,3,1034,-4,-1548
1186,13.63337,2,0,0,1030,-2,-1536
1187,13.645034,4,-1,-1,1032,-2,-1544
1188,13.65674,2,1,-1,1030,0,-1540
1189,13.668396,2,1,0,1034,0,-1546
1190,13.680079,1,0,0,1030,0,-1543
1191,13.691735,1,0,1,1029,-2,-1542
1192,13.703421,2,0,0,1031,2,-1547
1193,13.715088,1,-1,0,1031,1,-1546
1194,13.726742,0,0,0,1029,-2,-1534
1195,13.738426,2,0,1,1030,0,-1542
1196,13.750071,2,-1,-2,1031,0,-1546
1197,13.761721,1,2,2,1030,2,-1546
1198,13.773371,2,1,-2,1033,2,-1540
1199,13.785037,3,0,-1,1030,0,-1543
1200,13.79669,0,2,1,1033,-3,-1541
1201,13.808328,0,0,0,1031,-1,-1540
1202,13.81999,1,-2,1,1031,-1,-1540
1203,13.831669,1,-2,2,1033,0,-1542
1204,13.843327,2,2,2,1030,2,-1539
1205,13.854981,1,1,-2,1032,0,-1542
1206,13.866703,2,-2,0,1029,-1,-1545
1207,13.878351,0,0,2,1031,-1,-1541
1208,13.890002,2,1,0,1028,-2,-1545
1209,13.901678,1,-1,0,1027,-2,-1538
1210,13.913321,3,-1,-1,1027,-1,-1544
1211,13.924975,1,1,-1,1033,0,-1541
1212,13.936649,3,-1,2,1028,-6,-1546
1213,13.948321,-1,0,-1,1032,0,-1544
1214,13.959907,1,3,0,1032,0,-1542
1215,13.971505,2,0,-1,1029,-1,-1541
1216,13.983028,1,-1,0,1032,-3,-1538
1217,13.994571,1,-1,-1,1032,-1,-1543
1218,14.006149,0,-1,0,1030,4,-1545
1219,14.017756,3,0,0,1032,-1,-1545
1220,14.029314,2,-2,-1,1032,0,-1548
1221,14.040892,0,2,1,1032,-2,-1540
1222,14.052521,2,-2,0,1039,1,-1542
1223,14.064181,0,-2,0,1034,-3,-1545
1224,14.075807,3,-1,-1,1035,-1,-1549
1225,14.087465,-1,-1,2,1029,-1,-1539
1226,14.099121,5,0,2,1027,-1,-1544
1227,14.110773,-2,0,0,1026,-1,-1553
1228,14.122447,3,-1,1,1029,0,-1529
1229,14.134089,2,1,0,1036,0,-1550
1230,14.145737,-1,3,2,1031,0,-1550
1231,14.157421,1,4,1,1030,4,-1546
1232,14.169113,1,1,1,1035,2,-1535
1233,14.180671,3,-2,-1,1031,2,-1540
1234,14.192261,2,1,-1,1033,0,-1546
1235,14.203817,1,3,1,1032,0,-1543
1236,14.215392,0,-1,1,1032,-1,-1539
1237,14.226961,4,1,0,1028,0,-1545
1238,14.238514,1,1,-1,1031,0,-1541
1239,14.250056,2,0,0,1032,-5,-1547
1240,14.261609,2,0,-1,1028,-11,-1550
1241,14.273223,-1,-1,2,1031,-3,-1544
1242,14.284871,2,2,-1,1035,-4,-1543
1243,14.296548,1,0,0,1033,-1,-1543
1244,14.3082,1,0,1,1033,3,-1545
1245,14.319863,-1,-1,2,1032,3,-1542
1246,14.331553,1,-2,1,1028,2,-1541
1247,14.343202,0,-1,1,1027,2,-1539
1248,14.35485,2,-1,1,1032,0,-1541
1249,14.366504,0,1,0,1031,-1,-1540
1250,14.378169,2,-1,2,1031,0,-1548
1251,14.389784,0,-1,1,1032,-3,-1542
1252,14.401362,0,1,1,1032,-2,-1538
1253,14.412932,1,2,0,1032,-1,-1540
1254,14.424493,3,0,0,1032,-1,-1539
1255,14.436154,2,1,-2,1032,-3,-1539
1256,14.447729,1,-1,-1,1031,-2,-1546
1257,14.459269,-1,1,0,1029,-2,-1532
1258,14.470818,4,0,-1,1029,-1,-1547
1259,14.482471,-2,1,0,1030,0,-1535
1260,14.494123,6,-2,1,1030,-7,-1545
1261,14.505798,0,0,1,1030,0,-1544
1262,14.517441,0,0,1,1032,-9,-1535
1263,14.529088,4,1,-1,1032,-3,-1543
1264,14.540738,0,-1,0,1030,-5,-1543
1265,14.552414,2,0,-1,1031,-1,-1541
1266,14.564073,0,-2,3,1032,1,-1543
1267,14.575744,1,-1,-1,1031,-1,-1543
1268,14.587445,1,-1,2,1033,0,-1541
1269,14.599097,2,1,-1,1031,1,-1541
1270,14.610759,-1,-1,2,1034,1,-1538
1271,14.622418,5,-2,-1,1032,-2,-1541
1272,14.634077,-1,1,0,1034,1,-1543
1273,14.645721,2,-1,0,1031,-6,-1537
1274,14.657372,2,0,1,1027,0,-1551
1275,14.669048,0,0,-1,1028,0,-1544
1276,14.680711,2,0,-1,1030,0,-1540
1277,14.692379,1,1,1,1035,-2,-1540
1278,14.703939,3,2,1,1033,-1,-1539
1279,14.715514,2,-1,-1,1031,-3,-1544
1280,14.727063,2,1,0,1028,0,-1537
1281,14.738608,1,0,1,1031,-3,-1545
1282,14.75015,2,1,0,1029,-3,-1545
1283,14.761744,2,1,1,1033,0,-1537
1284,14.773294,1,-1,-3,1034,-2,-1535
1285,14.784892,2,1,1,1031,4,-1538
1286,14.796639,2,2,0,1034,-3,-1542
1287,14.808353,0,1,-1,1029,-2,-1539
1288,14.820065,2,2,0,1029,3,-1538
1289,14.831737,2,0,1,1035,-4,-1543
1290,14.843428,1,0,1,1034,0,-1548
1291,14.855089,2,1,1,1030,-3,-1545
1292,14.866753,1,0,1,1033,0,-1539
1293,14.878439,2,-1,1,1032,-3,-1547
1294,14.890101,1,-2,-1,1033,-4,-1540
1295,14.901797,2,3,-1,1028,0,-1541
1296,14.913377,0,1,0,1032,0,-1541
1297,14.924924,2,0,1,1027,4,-1545
1298,14.936478,2,0,1,1028,0,-1542
1299,14.948033,2,2,0,1028,1,-1536
1300,14.959638,0,2,2,1031,0,-1544
1301,14.971203,1,2,1,1029,-1,-1536
1302,14.982763,2,0,0,1033,-1,-1542
1303,14.994323,1,0,1,1031,-1,-1541
1304,15.005943,1,2,0,1032,0,-1542
1305,15.017602,1,1,0,1032,-4,-1542
1306,15.029243,3,0,1,1027,-3,-1544
1307,15.040886,2,0,-1,1029,-1,-1542
1308,15.052576,0,0,0,1031,-1,-1541
1309,15.06423,1,1,2,1031,0,-1545
1310,15.075881,2,0,1,1032,0,-1538
1311,15.087562,1,1,-1,1029,2,-1540
1312,15.099224,0,-1,0,1032,0,-1544
1313,15.110901,2,1,-1,1032,0,-1542
1314,15.122449,1,0,-2,1030,1,-1545
1315,15.134035,1,-2,-3,1031,-6,-1542
1316,15.14562,0,-1,0,1029,-5,-1541
1317,15.157162,0,-1,1,1032,1,-1549
1318,15.168716,-1,1,1,1028,-2,-1541
1319,15.180241,-1,0,2,1028,2,-1533
1320,15.19179,0,-1,0,1028,0,-1544
1321,15.203351,2,1,-1,1031,1,-1539
1322,15.214971,2,3,-1,1032,1,-1544
1323,15.226616,1,0,2,1032,0,-1547
1324,15.238291,0,3,2,1042,-1,-1540
1325,15.249934,1,-1,0,1036,0,-1549
1326,15.261584,0,-1,0,1033,-5,-1542
1327,15.273247,1,2,1,1031,-2,-1544
1328,15.284937,2,1,-2,1032,0,-1544
1329,15.296585,1,-1,0,1029,1,-1544
1330,15.308264,0,3,0,1034,1,-1540
1331,15.319935,1,-2,1,1032,0,-1538
1332,15.33151,1,0,-1,1033,7,-1544
1333,15.343022,-1,1,-2,1029,-1,-1539
1334,15.354571,3,-1,0,1029,-2,-1545
1335,15.36612,1,-1,2,1029,-3,-1544
1336,15.377664,3,1,-1,1031,-5,-1541
1337,15.389244,1,1,-1,1031,-7,-1543
1338,15.400786,2,4,-1,1032,-1,-1546
1339,15.412368,1,2,-1,1032,-4,-1544
1340,15.423993,1,0,0,1036,3,-1545
1341,15.435674,1,2,1,1032,0,-1548
1342,15.447302,2,1,0,1029,0,-1537
1343,15.458957,1,2,0,1030,5,-1555
1344,15.470614,0,-2,1,1032,4,-1535
1345,15.482266,0,0,-1,1033,-4,-1544
1346,15.493921,2,1,-1,1032,1,-1541
1347,15.505597,2,2,0,1028,1,-1551
1348,15.517254,0,4,0,1026,2,-1534
1349,15.528934,2,4,-1,1025,3,-1539
1350,15.540507,0,3,1,1026,3,-1543
1351,15.552055,4,3,1,1024,1,-1538
1352,15.563634,2,4,1,1036,-1,-1532
1353,15.575183,3,1,3,1035,-2,-1542
1354,15.586734,1,-1,-2,1035,-5,-1538
1355,15.598286,4,-1,1,1039,-6,-1543
1356,15.609882,2,4,1,1037,-10,-1550
1357,15.621444,-1,0,0,1030,-13,-1537
1358,15.63306,3,-1,0,1030,-9,-1548
1359,15.644714,-1,-1,1,1029,-1,-1543
1360,15.656391,2,1,0,1034,-6,-1534
1361,15.668056,0,-1,-1,1043,-1,-1541
1362,15.679738,0,-2,-1,1039,0,-1543
1363,15.691425,0,-1,0,1029,2,-1539
1364,15.703036,0,-2,0,1025,6,-1548
1365,15.714692,2,-2,0,1024,2,-1548
1366,15.726359,-1,-1,0,1028,0,-1538
1367,15.738021,-1,-1,-1,1028,7,-1543
1368,15.749646,1,0,1,1030,7,-1545
1369,15.76123,1,0,0,1030,3,-1542
1370,15.772789,2,1,0,1033,1,-1540
1371,15.78437,0,0,0,1034,0,-1548
1372,15.795928,2,0,1,1036,0,-1551
1373,15.807518,-1,4,-1,1029,-2,-1535
1374,15.819113,7,1,-1,1032,1,-1548
1375,15.830687,-2,5,1,1026,-6,-1528
1376,15.842352,11,3,0,1030,-3,-1543
1377,15.854028,-2,-3,1,1031,3,-1560
1378,15.865682,1,-2,1,1034,-20,-1522
1379,15.877369,0,-2,-1,1036,1,-1555
1380,15.88902,3,1,-1,1043,-5,-1536
1381,15.900675,-1,1,1,1039,2,-1550
1382,15.912325,1,-2,-1,1033,0,-1542
1383,15.923996,-1,-1,-3,1025,7,-1541
1384,15.935702,3,-2,-1,1026,-2,-1534
1385,15.947395,0,-3,1,1037,8,-1555
1386,15.959009,0,0,0,1029,6,-1550
1387,15.970552,3,-1,-1,1026,0,-1550
1388,15.982101,3,-1,-2,1032,5,-1557
1389,15.993645,6,1,0,1028,2,-1545
1390,16.005185,1,2,2,1029,-2,-1540
1391,16.016731,1,2,-2,1032,-3,-1539
1392,16.028288,1,-2,-1,1031,-2,-1542
1393,16.039909,1,0,2,1032,-8,-1539
1394,16.051573,2,0,0,1033,-5,-1546
1395,16.06325,-1,2,-1,1032,-6,-1540
1396,16.074914,1,-1,-1,1030,-7,-1543
1397,16.086571,0,1,-1,1029,-2,-1542
1398,16.098229,2,1,0,1032,-5,-1543
1399,16.109884,0,1,1,1033,-2,-1543
1400,16.121553,2,-1,1,1036,2,-1541
1401,16.133211,-1,-1,0,1034,1,-1544
1402,16.144868,1,2,-2,1034,2,-1540
1403,16.156539,0,-1,0,1031,6,-1536
1404,16.168122,1,-2,-2,1028,6,-1541
1405,16.179676,2,0,-1,1032,4,-1545
1406,16.191245,3,0,0,1033,-3,-1545
1407,16.20279,0,0,0,1032,0,-1542
1408,16.214338,2,0,3,1031,-6,-1543
1409,16.225883,1,0,1,1022,-3,-1541
1410,16.237453,3,0,0,1023,-4,-1548
1411,16.249032,3,2,1,1026,-4,-1544
1412,16.260694,1,2,1,1033,-5,-1545
1413,16.27233,3,0,0,1032,-3,-1539
1414,16.284002,2,1,-1,1032,-4,-1541
1415,16.295672,1,0,-1,1031,-2,-1542
1416,16.307299,1,1,-1,1032,0,-1543
1417,16.318955,2,0,1,1031,4,-1538
1418,16.330597,0,-1,0,1033,4,-1543
1419,16.342268,2,0,-1,1030,1,-1539
1420,16.353944,2,-2,0,1030,5,-1535
1421,16.365592,1,-2,-1,1028,2,-1542
1422,16.377242,1,2,1,1028,2,-1544
1423,16.388937,3,0,0,1031,-1,-1542
1424,16.400604,2,-1,0,1029,-2,-1548
1425,16.412278,2,2,0,1029,0,-1542
1426,16.423943,4,1,0,1030,-8,-1544
1427,16.435624,3,0,-1,1031,-4,-1550
1428,16.447299,1,1,2,1032,-7,-1553
1429,16.459016,2,-2,0,1034,-9,-1541
1430,16.470684,0,1,1,1030,-4,-1544
1431,16.482253,1,0,-1,1025,0,-1543
1432,16.493829,0,-1,1,1027,3,-1545
1433,16.505371,0,-2,2,1028,5,-1543
1434,16.516944,0,0,1,1038,3,-1541
1435,16.528496,2,2,0,1032,4,-1540
1436,16.540043,2,-1,1,1033,4,-1540
1437,16.551589,-1,0,0,1032,1,-1543
1438,16.563163,2,2,-2,1034,4,-1546
1439,16.574789,2,1,-2,1032,3,-1540
1440,16.586438,0,1,0,1028,-4,-1540
1441,16.598094,1,0,2,1032,-2,-1543
1442,16.609754,5,-2,1,1035,0,-1537
1443,16.621466,2,1,1,1036,-3,-1540
1444,16.633135,2,-1,-2,1032,-3,-1541
1445,16.644796,1,0,1,1030,-10,-1541
1446,16.656448,2,-2,0,1028,-4,-1547
1447,16.668115,1,-1,-1,1033,-9,-1546
1448,16.679786,1,2,1,1031,-3,-1537
1449,16.691349,0,-1,2,1032,0,-1538
1450,16.702901,3,1,0,1032,-3,-1537
1451,16.71447,-1,0,0,1029,3,-1544
1452,16.726027,2,-3,1,1031,-5,-1533
1453,16.737631,1,0,-1,1029,4,-1544
1454,16.749204,0,-1,-3,1032,2,-1536
1455,16.760776,1,1,0,1032,2,-1545
1456,16.772373,3,1,0,1030,1,-1536
1457,16.784035,2,0,-1,1032,0,-1542
1458,16.795707,2,-1,0,1032,-1,-1544
1459,16.807381,2,0,0,1033,-2,-1541
1460,16.819036,1,1,-1,1033,0,-1541
1461,16.830683,-1,1,-1,1031,-4,-1531
1462,16.842334,1,1,-1,1028,-4,-1544
1463,16.853995,2,0,0,1030,-2,-1546
1464,16.865645,1,0,-2,1029,-4,-1543
1465,16.877313,2,1,0,1033,-1,-1545
1466,16.888968,0,0,1,1032,0,-1542
1467,16.900526,2,-2,1,1032,4,-1540
1468,16.912118,-1,-1,0,1033,4,-1538
1469,16.923681,0,-1,0,1027,-2,-1542
1470,16.935254,2,-1,2,1029,3,-1544
1471,16.946817,1,-2,1,1029,0,-1544
1472,16.958367,0,1,1,1032,1,-1543
1473,16.969905,2,2,0,1030,-1,-1538
1474,16.981478,1,0,1,1032,-2,-1539
1475,16.993096,3,1,0,1029,-3,-1543
1476,17.004743,2,0,0,1033,-3,-1539
1477,17.016406,0,0,-1,1032,-2,-1548
1478,17.028081,2,0,-1,1032,-4,-1537
1479,17.03974,0,-1,-1,1037,-4,-1542
1480,17.051424,0,-1,0,1029,0,-1542
1481,17.063085,0,-1,1,1032,-3,-1543
1482,17.074728,0,0,1,1032,-1,-1547
1483,17.086394,0,1,1,1029,0,-1536
1484,17.098043,0,0,1,1030,0,-1537
1485,17.109606,1,2,1,1030,5,-1544
1486,17.121173,0,2,-1,1030,3,-1537
1487,17.132726,2,2,-2,1029,5,-1551
1488,17.144287,3,1,0,1032,1,-1543
1489,17.155878,1,0,3,1030,-1,-1541
1490,17.167448,0,0,1,1029,-2,-1541
1491,17.179016,1,-1,2,1027,-6,-1534
1492,17.190625,2,-1,1,1030,0,-1545
1493,17.202298,1,0,-2,1033,-2,-1543
1494,17.213958,1,0,0,1029,-1,-1542
1495,17.225609,2,1,-1,1032,-2,-1549
1496,17.237266,3,0,0,1030,-3,-1546
1497,17.248941,1,-1,1,1030,-6,-1539
1498,17.260583,2,-1,1,1032,0,-1538
1499,17.272268,0,0,2,1033,0,-1537
1500,17.283943,2,1,0,1032,2,-1548
1501,17.295613,1,0,-1,1032,1,-1544
1502,17.307289,0,0,0,1026,0,-1540
1503,17.318847,1,1,0,1028,0,-1543
1504,17.3304,2,1,-3,1032,-1,-1538
1505,17.341977,4,-1,0,1031,0,-1546
1506,17.353551,0,0,0,1030,-5,-1542
1507,17.365111,2,1,-1,1034,-1,-1545
1508,17.376652,1,1,1,1029,0,-1547
1509,17.388229,1,1,1,1032,2,-1539
1510,17.399765,1,-1,0,1034,-1,-1541
1511,17.411412,2,0,0,1028,-1,-1539
1512,17.423037,2,-2,0,1033,-1,-1538
1513,17.434686,2,-1,0,1032,-3,-1548
1514,17.446334,1,0,3,1030,0,-1541
1515,17.458013,3,1,-1,1032,-2,-1545
1516,17.469662,0,-2,1,1031,-3,-1546
1517,17.48131,1,-2,0,1029,2,-1541
1518,17.492996,2,2,1,1034,1,-1540
1519,17.50467,0,-2,1,1031,6,-1537
1520,17.516332,1,2,2,1031,4,-1544
1521,17.527899,3,0,-1,1031,1,-1542
1522,17.539502,2,0,0,1031,-3,-1543
1523,17.551082,0,-1,0,1032,1,-1540
1524,17.562623,0,-1,0,1035,-4,-1552
1525,17.574165,4,1,-1,1033,-1,-1540
1526,17.585722,3,1,1,1027,0,-1542
1527,17.597267,-1,1,2,1032,-3,-1546
1528,17.608826,0,1,0,1028,-4,-1538
1529,17.620494,1,-2,1,1033,-2,-1544
1530,17.632192,0,-1,1,1031,-1,-1542
1531,17.643854,1,1,-1,1035,0,-1539
1532,17.65555,1,-2,-1,1033,-4,-1537
1533,17.667201,-1,1,-2,1029,0,-1544
1534,17.678847,2,-2,0,1029,3,-1544
1535,17.690489,2,0,0,1030,0,-1536
1536,17.702145,1,1,-1,1033,1,-1545
1537,17.713809,1,-2,0,1032,4,-1544
1538,17.725491,1,-1,0,1028,0,-1537
1539,17.73708,1,1,0,1028,1,-1541
1540,17.748631,3,1,3,1026,0,-1543
1541,17.760182,3,1,-2,1026,0,-1545
1542,17.771758,2,0,1,1030,-1,-1534
1543,17.78351,2,0,1,1032,-3,-1552
1544,17.795237,2,2,1,1026,-3,-1537
1545,17.806805,0,1,0,1029,-2,-1541
1546,17.818468,3,1,-1,1030,0,-1545
1547,17.830129,2,2,0,1032,1,-1542
1548,17.841815,-1,1,0,1030,2,-1546
1549,17.853465,2,0,2,1032,-4,-1543
1550,17.865167,1,-2,-1,1032,0,-1536
1551,17.876824,0,1,-1,1032,0,-1544
1552,17.88848,-1,1,1,1033,0,-1542
1553,17.90015,2,-1,0,1028,0,-1543
1554,17.911814,0,0,3,1029,-1,-1547
1555,17.923482,0,-2,0,1029,-2,-1539
1556,17.935153,1,0,0,1027,-1,-1539
1557,17.946804,1,0,-1,1031,-4,-1544
1558,17.958459,0,-1,0,1026,-4,-1543
1559,17.970134,1,0,0,1035,0,-1540
1560,17.981788,0,2,-1,1030,0,-1540
1561,17.993435,1,-2,2,1026,0,-1536
1562,18.005087,2,0,2,1032,0,-1536
1563,18.016733,2,-1,-1,1031,-1,-1543
1564,18.028408,3,-1,0,1035,2,-1545
1565,18.040071,1,0,0,1033,-1,-1542
1566,18.05168,2,1,1,1031,0,-1540
1567,18.063275,-1,2,-1,1029,-3,-1542
1568,18.074837,2,-2,1,1034,-4,-1543
1569,18.086393,1,0,1,1031,1,-1544
1570,18.098001,1,2,0,1032,0,-1541
1571,18.109572,0,0,1,1034,-4,-1541
1572,18.121112,2,-2,-1,1027,0,-1536
1573,18.132673,3,1,-1,1029,1,-1546
1574,18.144311,1,0,-1,1031,0,-1540
1575,18.155965,3,-1,-1,1032,-2,-1543
1576,18.167635,1,2,0,1032,-3,-1540
1577,18.181699,1,0,1,1030,0,-1543
1578,18.193405,2,0,0,1032,-1,-1541
1579,18.205066,1,-1,1,1031,0,-1538
1580,18.216714,1,-2,-1,1030,0,-1544
1581,18.228369,3,1,1,1029,-1,-1546
1582,18.240118,2,0,1,1026,2,-1542
1583,18.251703,0,1,1,1030,0,-1544
1584,18.263269,2,-2,0,1031,3,-1540
1585,18.274847,0,1,1,1032,-4,-1541
1586,18.286394,1,1,0,1031,2,-1542
1587,18.297939,0,0,-2,1032,-3,-1543
1588,18.309494,1,2,-1,1035,-1,-1546
1589,18.321042,1,3,1,1026,-3,-1541
1590,18.332596,1,1,0,1031,0,-1542
1591,18.344168,2,-1,0,1032,-3,-1541
1592,18.35581,3,-1,-1,1031,-2,-1538
1593,18.367484,2,1,1,1033,-1,-1547
1594,18.379174,-1,0,1,1032,0,-1542
1595,18.390828,2,-1,1,1028,0,-1540
1596,18.402495,2,0,0,1030,-7,-1548
1597,18.414155,1,0,0,1030,2,-1539
1598,18.425805,1,-2,-2,1029,-2,-1544
1599,18.437463,0,1,-1,1028,3,-1543
1600,18.449137,2,0,0,1032,0,-1541
1601,18.460792,1,1,-1,1035,0,-1539
1602,18.47249,2,-1,2,1033,-1,-1545
1603,18.484153,1,-1,1,1029,0,-1545
1604,18.495809,1,0,1,1032,-2,-1538
1605,18.507457,1,1,1,1033,-3,-1541
1606,18.519107,2,-1,-2,1032,-1,-1542
1607,18.530779,0,-2,0,1030,-2,-1540
1608,18.54245,2,-3,1,1035,0,-1539
1609,18.554121,2,1,2,1034,-4,-1540
1610,18.565673,1,0,-1,1034,0,-1543
1611,18.57722,1,-1,1,1032,0,-1543
1612,18.588766,3,0,1,1030,0,-1535
1613,18.60035,2,0,-1,1031,0,-1541
1614,18.611955,1,-2,-1,1032,-1,-1543
1615,18.623515,3,-1,0,1033,-1,-1548
1616,18.635092,0,1,-1,1029,1,-1538
1617,18.646644,1,0,0,1032,0,-1550
1618,18.65827,2,-1,1,1031,-4,-1545
1619,18.669921,0,1,-1,1033,-5,-1539
1620,18.68157,1,3,2,1029,-1,-1547
1621,18.693241,1,2,0,1028,1,-1541
1622,18.704935,2,0,1,1028,-1,-1547
1623,18.716597,-1,0,1,1028,0,-1539
1624,18.728264,1,1,-2,1032,-1,-1540
1625,18.739933,3,-1,0,1032,-1,-1545
1626,18.751614,1,0,0,1028,1,-1550
1627,18.763264,1,2,-2,1030,1,-1544
1628,18.774829,1,0,0,1032,0,-1539
1629,18.786382,2,-2,-1,1034,3,-1541
1630,18.797962,2,-1,1,1032,-1,-1540
1631,18.809515,2,-2,-1,1024,-2,-1540
1632,18.821086,2,1,2,1031,3,-1536
1633,18.832627,0,-1,0,1032,0,-1544
1634,18.844192,0,-1,2,1032,-3,-1547
1635,18.855763,4,2,0,1031,0,-1542
1636,18.867391,2,0,0,1031,-1,-1539
1637,18.879037,1,1,1,1032,-2,-1543
1638,18.890693,-1,1,1,1031,-3,-1543
1639,18.902358,1,0,1,1031,-1,-1539
1640,18.914056,2,-1,-3,1030,-3,-1542
1641,18.925737,0,1,1,1032,0,-1539
1642,18.937395,2,0,1,1033,0,-1539
1643,18.949054,0,2,-1,1031,-1,-1540
1644,18.960722,2,-2,1,1033,3,-1544
1645,18.97252,1,0,0,1032,1,-1539
1646,18.984111,2,-1,-1,1032,2,-1539
1647,18.995669,2,0,0,1030,-2,-1541
1648,19.007256,-1,-1,-1,1031,0,-1543
1649,19.018847,1,3,-1,1031,-1,-1539
1650,19.030396,0,1,1,1034,0,-1543
1651,19.04197,2,3,2,1035,-3,-1543
1652,19.053517,3,1,-1,1035,1,-1542
1653,19.065032,1,-1,0,1026,1,-1541
1654,19.076667,0,0,-1,1032,0,-1543
1655,19.08833,1,0,-3,1032,-4,-1537
1656,19.100005,0,2,1,1032,-3,-1544
1657,19.111674,1,0,1,1031,-2,-1540
1658,19.123298,2,-2,0,1030,-3,-1542
1659,19.134949,0,-1,-1,1029,0,-1544
1660,19.146615,3,0,0,1025,1,-1543
1661,19.158276,1,0,0,1032,0,-1541
1662,19.169937,3,0,0,1031,-3,-1542
1663,19.181611,0,-1,2,1030,0,-1544
1664,19.193263,2,-1,0,1035,2,-1539
1665,19.20494,-1,-1,0,1032,1,-1537
1666,19.216649,2,2,1,1032,0,-1542
1667,19.228325,0,1,1,1034,1,-1548
1668,19.239998,2,0,1,1029,-2,-1543
1669,19.251667,0,0,-1,1028,-3,-1549
1670,19.263294,1,1,0,1032,0,-1544
1671,19.274967,1,0,0,1030,-1,-1543
1672,19.286624,2,-2,-1,1035,0,-1543
1673,19.298277,1,-1,-1,1032,0,-1548
1674,19.309922,0,1,-1,1029,1,-1542
1675,19.321569,1,1,0,1029,-1,-1541
1676,19.333245,1,1,-1,1029,0,-1550
1677,19.34495,1,0,1,1036,-4,-1548
1678,19.356599,1,0,0,1029,0,-1543
1679,19.368267,-1,2,0,1032,-4,-1539
1680,19.380003,1,-1,2,1031,0,-1539
1681,19.391675,3,0,2,1032,0,-1546
1682,19.40325,2,0,0,1034,0,-1551
1683,19.414803,2,1,0,1033,0,-1541
1684,19.426358,0,1,1,1028,-1,-1540
1685,19.43791,0,0,-1,1031,0,-1549
1686,19.44947,-1,1,-1,1032,1,-1550
1687,19.461028,5,1,1,1026,-9,-1558
1688,19.472597,-4,4,0,1031,-1,-1550
1689,19.484161,7,0,0,1027,-1,-1539
1690,19.495808,-2,0,1,1034,2,-1546
1691,19.507488,0,0,-1,1032,-1,-1546
1692,19.519168,0,-2,1,1041,-3,-1541
1693,19.530812,2,-1,-1,1035,-2,-1536
1694,19.542467,-1,0,-3,1039,1,-1541
1695,19.55415,3,-2,0,1032,-1,-1543
1696,19.565812,0,0,1,1030,-4,-1542
1697,19.577455,1,-1,0,1030,-3,-1536
1698,19.589151,2,1,-1,1028,-5,-1545
1699,19.600817,1,0,1,1029,-4,-1549
1700,19.61239,2,-1,2,1031,-4,-1544
1701,19.623964,5,1,0,1032,3,-1555
1702,19.635521,-1,0,-1,1035,-2,-1535
1703,19.647095,4,1,2,1029,4,-1537
1704,19.658649,-1,-2,1,1032,2,-1546
1705,19.670216,1,-1,2,1032,-7,-1538
1706,19.681757,0,-1,-1,1032,2,-1545
1707,19.693313,1,2,0,1032,1,-1545
1708,19.704966,0,-1,-1,1026,2,-1546
1709,19.716652,3,1,0,1028,0,-1537
1710,19.728338,-1,-1,0,1033,0,-1546
1711,19.740041,2,-1,-1,1035,-5,-1540
1712,19.751777,0,-1,-2,1032,-1,-1553
1713,19.76354,1,0,-1,1035,0,-1538
1714,19.775255,2,-1,0,1032,-2,-1542
1715,19.786933,1,0,0,1031,-2,-1546
1716,19.798612,1,1,-2,1033,0,-1550
1717,19.810287,0,1,0,1031,1,-1538
1718,19.821938,2,0,1,1034,0,-1544
1719,19.833587,2,-1,0,1032,0,-1540
1720,19.845258,2,-1,0,1031,1,-1540
1721,19.85694,2,-1,1,1032,0,-1548
1722,19.868592,0,0,1,1034,1,-1548
1723,19.880266,-1,1,2,1031,0,-1544
1724,19.891942,0,2,2,1030,0,-1549
1725,19.903703,2,-1,0,1030,0,-1541
1726,19.915368,2,1,-1,1027,-1,-1537
1727,19.926956,1,2,-2,1030,5,-1537
1728,19.938496,1,0,2,1034,0,-1541
1729,19.950033,1,1,-2,1031,-1,-1537
1730,19.961621,3,0,-1,1032,-1,-1535
1731,19.973164,3,0,0,1031,1,-1547
1732,19.98471,0,-1,0,1033,-2,-1544
1733,19.996224,1,0,-1,1036,-5,-1539
1734,20.007749,2,0,-2,1029,-1,-1544
1735,20.019371,0,0,-1,1030,0,-1542
1736,20.031037,3,1,1,1029,4,-1540
1737,20.042684,2,0,1,1032,0,-1542
1738,20.054357,1,0,2,1030,-1,-1540
1739,20.066008,0,3,0,1029,-2,-1545
1740,20.077687,0,1,1,1031,-2,-1540
1741,20.089362,1,-1,1,1033,-2,-1543
1742,20.101017,-1,-1,1,1033,-3,-1544
1743,20.112676,2,0,1,1030,0,-1538
1744,20.124348,4,0,2,1031,0,-1539
1745,20.135908,1,1,-3,1029,-2,-1541
1746,20.147484,0,3,-1,1031,-4,-1547
1747,20.159026,2,1,2,1032,0,-1539
1748,20.17057,1,0,-3,1028,-3,-1544
1749,20.182117,1,1,1,1030,-1,-1545
1750,20.193695,2,2,-2,1031,-5,-1541
1751,20.205247,1,1,1,1032,0,-1542
1752,20.216837,2,0,2,1031,0,-1546
1753,20.228499,2,-1,0,1034,-1,-1539
1754,20.240191,0,-3,1,1030,-2,-1540
1755,20.251864,2,0,-1,1030,-1,-1537
1756,20.263548,-1,-2,-1,1032,0,-1540
1757,20.275224,3,2,0,1029,-2,-1547
1758,20.286886,-1,0,0,1031,-3,-1539
1759,20.298536,1,1,0,1034,2,-1545
1760,20.310195,2,-2,0,1028,-1,-1536
1761,20.321864,1,-2,-2,1032,0,-1545
1762,20.333547,3,0,-1,1030,1,-1543
1763,20.345095,1,-1,-1,1030,-5,-1548
1764,20.356644,0,0,1,1029,-1,-1538
1765,20.368223,2,0,-2,1031,-3,-1540
1766,20.379751,2,0,-1,1029,1,-1541
1767,20.391267,0,-1,0,1030,2,-1541
1768,20.402815,-1,0,-1,1029,2,-1541
1769,20.414365,2,1,-1,1033,-1,-1544
1770,20.425954,0,-1,0,1033,0,-1543
1771,20.437589,1,-1,1,1034,-1,-1545
1772,20.449281,1,-1,1,1030,0,-1539
1773,20.460934,1,0,2,1030,2,-1544
1774,20.472582,3,0,0,1035,-2,-1539
1775,20.484263,0,0,2,1031,0,-1544
1776,20.495936,2,0,0,1032,-5,-1540
1777,20.507608,1,3,1,1030,-1,-1544
1778,20.519283,1,0,0,1033,0,-1542
1779,20.530943,0,-2,1,1033,-3,-1545
1780,20.542613,1,0,1,1032,-1,-1549
1781,20.554195,1,0,-1,1030,-3,-1543
1782,20.565752,3,-1,0,1032,-1,-1539
1783,20.577328,3,2,0,1031,1,-1551
1784,20.588885,3,-1,0,1031,0,-1538
1785,20.600463,0,0,0,1031,0,-1542
1786,20.612012,2,1,-1,1032,0,-1547
1787,20.623605,1,0,2,1032,-2,-1542
1788,20.635194,2,0,-2,1033,-5,-1538
1789,20.646813,2,1,0,1032,0,-1536
1790,20.658482,2,1,0,1036,-1,-1548
1791,20.670136,1,0,0,1032,0,-1543
1792,20.681788,2,-1,-1,1032,-2,-1538
1793,20.693439,3,-1,1,1030,-4,-1537
1794,20.705106,2,-1,0,1031,-2,-1542
1795,20.71677,2,1,1,1028,-3,-1536
1796,20.72845,1,0,2,1029,0,-1547
1797,20.740122,2,0,0,1032,2,-1544
1798,20.751806,1,0,-1,1029,1,-1545
1799,20.763479,3,1,0,1031,-2,-1540
1800,20.775165,0,0,-1,1031,2,-1550
1801,20.786806,2,2,-1,1030,0,-1541
1802,20.798458,0,-1,0,1030,-2,-1543
1803,20.810132,3,0,2,1033,-2,-1537
1804,20.821793,1,0,2,1028,0,-1541
1805,20.833461,2,-1,0,1030,0,-1541
1806,20.845196,1,-1,-1,1031,2,-1540
1807,20.856874,2,1,-1,1032,-3,-1542
1808,20.868474,0,2,-2,1029,4,-1540
1809,20.880069,2,1,0,1033,-2,-1542
1810,20.891634,2,1,0,1032,0,-1539
1811,20.903184,3,1,1,1031,-4,-1541
1812,20.914728,3,1,0,1029,-1,-1544
1813,20.92627,3,1,1,1030,0,-1542
1814,20.937819,1,-2,-1,1030,-1,-1542
1815,20.949381,1,1,-2,1031,-3,-1538
1816,20.961006,0,0,0,1032,-1,-1545
1817,20.972654,1,-1,-1,1032,-2,-1547
1818,20.984338,1,-1,-1,1031,-3,-1543
1819,20.996003,3,0,0,1028,0,-1545
1820,21.007677,1,1,-1,1028,0,-1547
1821,21.019329,1,0,2,1034,-3,-1548
1822,21.031025,0,-2,1,1029,0,-1547
1823,21.042669,2,-1,0,1038,-5,-1526
1824,21.054328,3,3,2,1028,0,-1541
1825,21.065994,-1,4,0,1032,-3,-1532
1826,21.077602,3,-1,0,1032,-7,-1536
1827,21.089146,1,0,0,1031,0,-1550
1828,21.100697,0,0,1,1026,-2,-1534
1829,21.112235,4,1,1,1029,-1,-1542
1830,21.12375,-2,3,1,1026,2,-1542
1831,21.135267,4,3,0,1036,-5,-1534
1832,21.146812,0,0,-1,1032,4,-1547
1833,21.158375,0,2,-2,1034,0,-1534
1834,21.170005,2,-1,-3,1036,1,-1537
1835,21.18166,0,-4,-3,1038,0,-1541
1836,21.193346,2,-2,1,1034,0,-1541
1837,21.205014,3,0,-1,1028,0,-1532
1838,21.216657,3,1,0,1026,-2,-1544
1839,21.228336,-1,0,0,1027,2,-1531
1840,21.239999,4,0,0,1033,-3,-1534
1841,21.251671,-1,0,-2,1030,4,-1547
1842,21.263365,-1,0,-1,1028,-5,-1536
1843,21.275036,2,0,-1,1032,0,-1538
1844,21.286686,4,-2,-1,1034,0,-1544
1845,21.298337,0,0,1,1029,0,-1546
1846,21.310004,1,-3,2,1028,-1,-1545
1847,21.321646,2,0,2,1030,1,-1546
1848,21.333293,2,0,0,1031,-5,-1541
1849,21.344961,1,0,1,1032,0,-1539
1850,21.356624,0,1,-1,1028,-2,-1544
1851,21.368336,1,0,-1,1034,0,-1542
1852,21.380009,1,0,0,1035,3,-1547
1853,21.39168,1,1,1,1030,0,-1546
1854,21.403337,1,1,1,1032,-1,-1539
1855,21.415027,0,2,-1,1029,3,-1546
1856,21.426673,0,-2,0,1031,0,-1543
1857,21.438342,1,-2,0,1033,-2,-1541
1858,21.450008,3,-1,1,1028,-2,-1543
1859,21.461656,2,-1,-1,1030,-2,-1541
1860,21.473373,2,1,-1,1029,-2,-1547
1861,21.485032,1,1,0,1030,-5,-1543
1862,21.496577,2,2,2,1030,0,-1542
1863,21.50815,1,1,0,1031,1,-1545
1864,21.519705,0,0,-1,1030,-3,-1538
1865,21.531269,-1,1,0,1030,-2,-1542
1866,21.542814,0,-1,-2,1031,0,-1544
1867,21.554363,0,0,0,1030,-2,-1538
1868,21.565945,1,1,0,1032,-2,-1540
1869,21.57751,1,2,-1,1031,1,-1545
1870,21.589124,0,1,0,1029,0,-1542
1871,21.600789,3,-2,0,1034,-6,-1548
1872,21.612503,1,-1,1,1034,0,-1546
1873,21.624195,2,1,-1,1034,1,-1536
1874,21.635884,-1,1,-1,1035,0,-1539
1875,21.647549,3,-1,-1,1032,-1,-1539
1876,21.659202,1,0,-4,1030,3,-1540
1877,21.670891,0,1,0,1028,0,-1537
1878,21.682549,4,0,2,1030,1,-1538
1879,21.694232,0,0,0,1036,-2,-1545
1880,21.705821,0,2,-1,1029,-1,-1543
1881,21.717368,4,2,0,1032,-3,-1559
1882,21.728939,-1,1,-2,1032,2,-1550
1883,21.740488,2,-3,1,1032,-6,-1534
1884,21.752039,3,-1,2,1032,3,-1562
1885,21.763595,-1,1,-1,1033,-5,-1544
1886,21.775172,2,0,0,1031,-3,-1516
1887,21.786739,6,-1,-3,1030,4,-1549
1888,21.798386,-3,1,0,1030,0,-1548
1889,21.810085,5,-1,-3,1034,6,-1549
1890,21.821739,-1,0,1,1037,0,-1555
1891,21.833394,0,0,0,1035,0,-1537
1892,21.845049,3,-1,-1,1034,-1,-1548
1893,21.85672,0,0,2,1028,0,-1542
1894,21.868383,2,-1,2,1031,-7,-1531
1895,21.880074,2,-4,0,1028,0,-1519
1896,21.89175,2,-2,0,1029,-3,-1545
1897,21.90341,1,1,-3,1031,0,-1541
1898,21.914977,3,0,-1,1031,-1,-1539
1899,21.92657,0,0,0,1027,1,-1537
1900,21.938112,1,-1,0,1034,1,-1539
1901,21.949653,1,0,1,1035,0,-1541
1902,21.961197,2,1,-1,1033,-1,-1549
1903,21.972739,0,1,1,1032,-1,-1543
1904,21.984291,0,0,1,1030,-1,-1543
1905,21.995875,2,0,1,1032,-6,-1546
1906,22.007569,0,1,-1,1033,-7,-1548
1907,22.019268,1,-3,1,1034,-7,-1544
1908,22.030912,1,5,-1,1033,-4,-1545
1909,22.042571,-1,1,0,1031,-1,-1539
1910,22.054233,2,1,0,1033,0,-1542
1911,22.065876,2,0,1,1029,0,-1541
1912,22.077526,1,-1,1,1033,0,-1546
1913,22.089166,1,-1,0,1035,2,-1539
1914,22.100823,1,-1,0,1035,1,-1537
1915,22.112496,1,-1,1,1030,4,-1542
1916,22.124144,0,0,0,1029,-3,-1540
1917,22.13581,0,0,-1,1031,-5,-1538
1918,22.147486,2,-1,0,1029,-2,-1546
1919,22.159158,2,0,-1,1030,-1,-1543
1920,22.170809,2,0,-1,1034,3,-1541
1921,22.182498,1,-1,1,1032,5,-1543
1922,22.194143,1,0,1,1030,1,-1546
1923,22.205817,2,-2,1,1030,-2,-1542
1924,22.217496,-1,1,-2,1034,-4,-1543
1925,22.22914,1,0,0,1033,-2,-1542
1926,22.24079,1,-1,0,1031,0,-1544
1927,22.252476,0,0,0,1032,0,-1543
1928,22.264132,2,0,0,1032,-3,-1538
1929,22.275801,0,1,1,1032,0,-1539
1930,22.287492,1,0,0,1032,0,-1543
1931,22.29916,3,0,-1,1031,-1,-1545
1932,22.310851,-1,0,-2,1031,4,-1542
1933,22.32251,1,2,1,1032,2,-1545
1934,22.334161,2,0,0,1032,-4,-1545
1935,22.345833,1,-2,0,1027,-7,-1549
1936,22.357485,1,2,-1,1032,-6,-1533
1937,22.369132,1,-1,1,1028,0,-1542
1938,22.380783,0,2,1,1030,-5,-1542
1939,22.392452,2,1,1,1034,0,-1547
1940,22.404119,0,0,1,1032,-1,-1540
1941,22.415831,1,2,0,1035,3,-1539
1942,22.427492,0,0,-1,1034,-8,-1542
1943,22.439163,1,-3,1,1035,0,-1540
1944,22.450826,5,0,1,1032,0,-1548
1945,22.462484,1,4,-1,1030,-5,-1543
1946,22.474128,0,0,-1,1032,-3,-1535
1947,22.485779,-1,-2,1,1032,0,-1553
1948,22.497418,-1,3,1,1032,-4,-1541
1949,22.509061,5,0,-1,1036,1,-1548
1950,22.52076,-2,1,1,1037,-5,-1533
1951,22.532437,3,1,0,1032,-1,-1546
1952,22.544065,2,1,-1,1032,0,-1542
1953,22.555739,0,0,0,1028,0,-1546
1954,22.567412,1,0,1,1025,0,-1538
1955,22.579077,2,-1,0,1032,-1,-1541
1956,22.590737,2,1,-1,1029,2,-1541
1957,22.602381,2,0,0,1028,0,-1539
1958,22.614037,3,-1,1,1029,-1,-1554
1959,22.625703,0,0,1,1028,4,-1545
1960,22.637383,3,0,-2,1027,-5,-1543
1961,22.648969,3,0,-1,1032,0,-1540
1962,22.660523,0,-1,-1,1029,0,-1548
1963,22.67207,3,1,0,1032,2,-1542
1964,22.683634,-1,1,0,1030,3,-1538
1965,22.695196,1,1,-2,1026,-4,-1539
1966,22.706744,-1,1,0,1028,-3,-1547
1967,22.71831,2,0,-1,1030,2,-1543
1968,22.729866,1,2,-2,1030,2,-1545
1969,22.741494,3,0,1,1035,0,-1540
1970,22.753138,2,1,-1,1030,-5,-1543
1971,22.764786,3,2,-1,1031,-6,-1541
1972,22.776472,1,-1,-2,1032,-2,-1545
1973,22.78813,2,-2,1,1032,-2,-1546
1974,22.799797,2,1,1,1031,4,-1540
1975,22.811455,-1,0,0,1032,0,-1540
1976,22.823108,1,-1,0,1032,3,-1544
1977,22.834771,1,0,-2,1032,1,-1540
1978,22.84642,3,0,-1,1032,0,-1544
1979,22.857985,0,1,-1,1030,2,-1537
1980,22.869579,2,0,1,1029,0,-1543
1981,22.881147,1,0,1,1032,0,-1541
1982,22.89269,2,0,-1,1031,1,-1538
1983,22.904228,-1,0,-2,1032,-1,-1540
1984,22.915735,2,-2,0,1031,-1,-1538
1985,22.927289,5,-1,1,1036,-2,-1541
1986,22.93885,2,0,-1,1030,1,-1545
1987,22.950485,0,1,0,1030,-5,-1537
1988,22.962139,1,1,-2,1031,-5,-1551
1989,22.973803,1,0,-1,1032,0,-1544
1990,22.985472,2,0,0,1032,-4,-1540
1991,22.997122,1,1,1,1028,0,-1542
1992,23.008772,1,0,1,1032,-3,-1539
1993,23.020473,1,-1,-2,1028,-2,-1533
1994,23.032132,3,1,1,1032,0,-1539
1995,23.043853,1,0,-1,1033,2,-1537
1996,23.055503,3,1,0,1028,2,-1542
1997,23.067026,1,1,1,1028,-3,-1551
1998,23.078571,1,2,0,1033,-1,-1546
1999,23.090139,3,-1,0,1030,2,-1549
