sample,t_s,gyro_x,gyro_y,gyro_z,accel_x,accel_y,accel_z
0,1.1e-05,3,11,9,26,11,-1030
1,0.011321,2,6,10,20,13,-1023
2,0.022525,2,6,10,26,9,-1026
3,0.03371,1,4,8,24,11,-1030
4,0.044917,2,6,9,22,13,-1029
5,0.0561,2,8,9,21,10,-1023
6,0.067282,2,8,9,25,12,-1024
7,0.078463,1,6,9,26,13,-1021
8,0.089644,2,6,9,24,15,-1015
9,0.100836,2,5,8,22,14,-1027
10,0.112018,2,5,8,25,11,-1020
11,0.123197,2,6,8,25,9,-1026
12,0.134378,1,4,9,25,10,-1022
13,0.145571,1,5,9,22,16,-1022
14,0.156727,1,4,9,26,10,-1030
15,0.167909,2,6,8,21,7,-1022
16,0.179091,1,6,8,23,10,-1027
17,0.190273,1,4,9,22,9,-1021
18,0.201464,2,5,9,26,9,-1026
19,0.212654,1,5,8,22,10,-1023
20,0.223834,2,6,9,24,10,-1021
21,0.235014,1,6,9,28,10,-1024
22,0.246195,1,4,9,23,14,-1025
23,0.257395,1,6,9,25,13,-1023
24,0.26854,2,6,9,29,11,-1020
25,0.279723,2,7,9,24,8,-1023
26,0.290906,2,4,8,24,10,-1020
27,0.302088,0,4,9,26,13,-1023
28,0.313283,1,4,9,19,16,-1022
29,0.324463,1,4,9,19,10,-1028
30,0.33565,1,6,9,23,10,-1026
31,0.34683,2,4,9,26,7,-1023
32,0.358011,1,5,9,19,10,-1024
33,0.369204,1,5,9,23,12,-1023
34,0.380382,3,5,9,25,13,-1019
35,0.391565,1,6,10,23,14,-1020
36,0.402747,2,7,10,22,7,-1021
37,0.413941,1,6,9,21,9,-1022
38,0.425105,2,6,9,22,9,-1025
39,0.436291,2,6,9,20,9,-1029
40,0.447483,2,7,9,17,9,-1025
41,0.458678,2,8,9,21,12,-1026
42,0.469862,2,6,9,21,8,-1022
43,0.481049,2,6,9,21,11,-1020
44,0.49223,2,5,9,25,8,-1024
45,0.503413,3,8,9,24,12,-1027
46,0.514607,2,9,8,25,10,-1025
47,0.525789,2,7,9,21,10,-1021
48,0.536981,2,6,9,23,10,-1020
49,0.548163,2,5,9,19,12,-1021
50,0.559352,1,6,10,22,10,-1019
51,0.570536,2,6,10,23,12,-1028
52,0.58172,2,6,10,21,14,-1025
53,0.592912,2,6,9,22,13,-1022
54,0.604096,1,6,10,21,7,-1023
55,0.615276,2,6,9,21,8,-1017
56,0.626477,1,7,10,20,9,-1022
57,0.637667,1,6,9,27,12,-1028
58,0.648854,2,3,10,21,11,-1019
59,0.660036,1,5,8,21,10,-1028
60,0.671222,1,5,10,25,12,-1020
61,0.682404,1,4,9,25,10,-1026
62,0.693587,1,4,10,19,12,-1016
63,0.704775,1,4,10,22,14,-1026
64,0.715955,1,4,10,23,12,-1026
65,0.727146,2,5,10,26,15,-1025
66,0.73833,2,6,9,19,13,-1025
67,0.749523,2,4,9,23,12,-1023
68,0.760718,2,5,9,22,11,-1027
69,0.771933,2,6,9,23,11,-1028
70,0.783115,2,4,9,28,10,-1027
71,0.794295,1,3,10,24,10,-1024
72,0.805462,2,7,9,24,11,-1021
73,0.816653,2,6,9,22,11,-1026
74,0.827835,1,6,9,19,10,-1022
75,0.839021,2,6,9,23,11,-1034
76,0.850204,3,8,8,20,9,-1023
77,0.861398,2,7,8,26,13,-1023
78,0.87254,2,6,9,21,11,-1020
79,0.88372,2,6,9,24,11,-1024
80,0.894903,1,5,10,22,13,-1023
81,0.906085,2,6,8,24,10,-1024
82,0.917278,2,6,8,25,12,-1023
83,0.928465,2,5,8,20,10,-1032
84,0.939647,2,6,9,23,9,-1026
85,0.950832,2,7,7,23,16,-1022
86,0.962018,2,6,8,21,11,-1023
87,0.973218,2,6,9,19,15,-1032
88,0.9844,1,5,9,23,8,-1024
89,0.995581,2,6,10,20,10,-1032
90,1.006764,2,6,8,22,9,-1025
91,1.017944,2,6,8,25,11,-1023
92,1.029094,2,5,9,21,12,-1028
93,1.040276,2,6,9,26,8,-1033
94,1.051457,1,5,9,21,11,-1026
95,1.062637,1,4,9,25,9,-1022
96,1.073819,1,6,8,23,13,-1028
97,1.085018,2,5,9,25,13,-1026
98,1.096236,1,5,9,20,10,-1025
99,1.107443,2,7,9,20,9,-1023
100,1.118631,2,7,9,20,12,-1020
101,1.129834,2,8,9,22,13,-1029
102,1.141026,1,6,9,26,14,-1024
103,1.152207,2,5,8,24,13,-1023
104,1.163389,1,4,8,21,14,-1026
105,1.174573,1,4,8,25,13,-1025
106,1.185755,1,5,9,26,11,-1021
107,1.196908,2,5,9,25,10,-1030
108,1.208093,2,4,9,23,9,-1025
109,1.219279,0,5,10,19,10,-1021
110,1.230474,1,4,9,21,13,-1034
111,1.241657,2,5,8,25,10,-1023
112,1.252844,2,5,9,20,16,-1030
113,1.264022,2,4,9,21,12,-1024
114,1.275204,1,5,10,24,8,-1021
115,1.286386,1,6,9,22,9,-1022
116,1.297575,2,5,10,21,11,-1026
117,1.308725,1,4,10,24,8,-1026
118,1.319909,1,4,10,19,14,-1024
119,1.331093,2,5,9,26,9,-1018
120,1.342277,1,6,10,22,9,-1017
121,1.353461,1,6,9,23,13,-1027
122,1.364651,1,7,9,27,12,-1025
123,1.375833,2,5,9,23,13,-1024
124,1.387014,2,6,9,20,12,-1022
125,1.398194,2,6,9,26,14,-1022
126,1.409389,1,7,9,22,14,-1027
127,1.420543,2,7,9,25,12,-1023
128,1.431724,1,5,9,24,10,-1025
129,1.442912,2,6,10,23,11,-1026
130,1.454104,2,6,9,24,14,-1021
131,1.465281,2,4,8,25,12,-1024
132,1.476466,1,5,10,24,10,-1018
133,1.487666,2,6,8,26,9,-1022
134,1.498852,1,6,10,19,12,-1019
135,1.510033,2,5,9,25,9,-1033
136,1.521226,2,4,9,23,10,-1025
137,1.532405,2,5,8,22,10,-1021
138,1.54359,2,6,9,22,9,-1025
139,1.554773,2,5,9,25,16,-1025
140,1.565955,2,5,9,23,11,-1018
141,1.577142,2,5,9,25,7,-1024
142,1.588333,1,5,8,20,12,-1019
143,1.599518,1,5,9,19,11,-1021
144,1.610708,1,4,9,24,13,-1021
145,1.621895,2,4,9,20,11,-1028
146,1.633099,2,5,9,23,12,-1018
147,1.644281,1,5,8,21,7,-1022
148,1.655469,1,6,9,22,12,-1029
149,1.666654,2,7,9,21,11,-1022
150,1.677849,2,4,10,22,12,-1025
151,1.689038,1,6,9,24,11,-1030
152,1.70022,2,6,9,24,14,-1026
153,1.711402,2,5,9,22,15,-1017
154,1.722594,2,6,9,25,15,-1025
155,1.733776,1,5,10,26,13,-1034
156,1.744968,1,5,9,26,15,-1030
157,1.75615,1,5,8,23,12,-1026
158,1.767339,1,4,10,26,11,-1024
159,1.778523,1,4,10,26,10,-1026
160,1.789706,1,5,9,25,14,-1022
161,1.800909,1,6,9,25,10,-1023
162,1.812091,2,6,9,22,9,-1026
163,1.823273,1,4,9,21,11,-1020
164,1.834466,1,4,9,18,13,-1025
165,1.845661,2,5,8,24,9,-1025
166,1.856846,2,6,9,26,15,-1026
167,1.868026,2,8,9,26,10,-1024
168,1.879209,2,7,9,26,13,-1015
169,1.890388,1,5,9,21,11,-1022
170,1.901578,2,5,9,20,7,-1022
171,1.912725,2,5,8,24,15,-1023
172,1.923904,1,5,9,24,14,-1017
173,1.935087,1,3,9,20,11,-1023
174,1.946269,2,5,9,21,11,-1027
175,1.95746,1,6,9,22,14,-1019
176,1.968651,1,5,9,26,12,-1022
177,1.979831,1,4,9,22,15,-1023
178,1.991013,1,5,10,26,12,-1025
179,2.002196,2,5,9,20,12,-1022
180,2.013389,2,6,9,24,14,-1020
181,2.024541,1,4,9,22,15,-1015
182,2.035723,1,4,9,26,8,-1027
183,2.046902,1,5,9,21,14,-1021
184,2.058083,2,6,9,22,12,-1027
185,2.069277,1,4,9,25,10,-1022
186,2.080467,1,5,9,18,15,-1022
187,2.091697,2,5,9,21,14,-1022
188,2.102888,2,5,9,23,11,-1025
189,2.114072,1,6,9,23,14,-1026
190,2.125271,2,6,9,23,10,-1026
191,2.136452,2,6,9,20,11,-1022
192,2.147631,2,6,9,23,11,-1027
193,2.158818,1,7,9,23,13,-1030
194,2.169997,2,5,10,22,10,-1027
195,2.181185,2,6,9,23,15,-1022
196,2.19237,2,5,9,26,10,-1026
197,2.203572,2,5,9,23,9,-1030
198,2.214754,1,5,8,24,12,-1024
199,2.225933,2,6,9,24,7,-1018
200,2.237092,1,6,9,20,11,-1018
201,2.248278,2,6,10,25,7,-1025
202,2.259456,2,6,10,23,10,-1021
203,2.270637,2,7,8,23,14,-1025
204,2.281821,2,6,8,22,12,-1024
205,2.29306,2,7,8,23,10,-1020
206,2.304341,2,6,9,26,14,-1025
207,2.315544,2,5,9,25,11,-1025
208,2.326734,1,5,10,21,10,-1025
209,2.337919,1,4,9,23,10,-1032
210,2.349094,2,5,9,24,11,-1030
211,2.360278,2,5,9,22,11,-1027
212,2.371476,2,7,9,19,12,-1023
213,2.383024,2,6,9,20,12,-1026
214,2.394637,2,6,9,23,9,-1029
215,2.406186,2,5,8,24,8,-1028
216,2.417775,2,6,8,21,15,-1035
217,2.429342,2,6,10,23,9,-1030
218,2.440899,2,5,9,26,11,-1024
219,2.452482,2,6,9,19,14,-1027
220,2.464049,1,5,9,23,14,-1018
221,2.475688,2,6,9,23,13,-1033
222,2.487345,2,6,8,21,12,-1022
223,2.499012,2,5,9,23,12,-1023
224,2.510675,2,6,9,18,13,-1026
225,2.522326,1,6,9,23,8,-1027
226,2.533987,1,6,9,26,12,-1033
227,2.545615,2,5,8,20,12,-1020
228,2.557343,2,6,8,22,13,-1022
229,2.569038,1,6,8,21,12,-1027
230,2.580744,2,5,9,20,11,-1021
231,2.592392,2,5,8,25,10,-1028
232,2.603961,2,6,9,25,9,-1021
233,2.615532,1,6,10,20,11,-1022
234,2.627102,2,6,9,19,10,-1030
235,2.638657,1,5,9,24,12,-1024
236,2.650232,2,5,8,23,7,-1023
237,2.661787,1,6,8,19,5,-1024
238,2.673388,2,5,9,22,9,-1026
239,2.685111,1,6,9,24,14,-1024
240,2.696826,1,6,9,25,13,-1027
241,2.708471,2,5,9,21,9,-1026
242,2.720119,2,6,8,21,16,-1028
243,2.731805,2,5,9,22,13,-1018
244,2.74344,2,6,9,24,10,-1028
245,2.755081,1,5,9,20,12,-1024
246,2.766781,2,6,9,20,14,-1017
247,2.778487,1,6,9,24,11,-1022
248,2.790181,1,6,10,22,11,-1029
249,2.801784,2,5,9,25,13,-1015
250,2.813302,1,5,9,24,10,-1022
251,2.824867,1,5,9,23,12,-1026
252,2.836414,1,5,9,20,10,-1026
253,2.847974,2,6,9,23,10,-1022
254,2.859514,2,6,10,22,14,-1025
255,2.871055,1,5,10,22,10,-1024
256,2.882628,2,6,9,24,10,-1025
257,2.894295,2,6,9,20,13,-1026
258,2.905956,1,6,9,22,9,-1031
259,2.917635,1,6,8,25,10,-1018
260,2.929297,2,6,8,22,12,-1020
261,2.941028,2,6,9,24,10,-1025
262,2.952709,1,5,9,22,9,-1023
263,2.964379,2,6,9,23,12,-1035
264,2.976046,1,5,9,19,9,-1026
265,2.987699,2,6,9,26,13,-1021
266,2.999373,2,6,8,24,9,-1022
267,3.010962,2,4,8,23,12,-1026
268,3.022514,2,5,9,25,12,-1025
269,3.034094,2,5,9,24,9,-1020
270,3.045663,2,5,9,24,9,-1025
271,3.057232,2,6,9,25,9,-1027
272,3.068797,1,6,8,20,12,-1020
273,3.080346,2,5,8,19,4,-1024
274,3.091905,1,5,9,25,12,-1022
275,3.103538,2,6,9,22,14,-1024
276,3.115349,1,6,9,24,8,-1025
277,3.12717,2,6,9,26,11,-1028
278,3.138834,3,6,9,19,12,-1017
279,3.150491,2,6,9,26,8,-1025
280,3.162147,2,6,8,19,12,-1029
281,3.173805,1,7,9,21,12,-1025
282,3.185479,1,6,9,21,15,-1025
283,3.197244,2,6,9,22,14,-1024
284,3.208919,2,6,9,20,9,-1030
285,3.220483,2,6,9,24,13,-1029
286,3.232023,2,6,9,18,11,-1023
287,3.243578,2,6,9,23,11,-1020
288,3.25512,2,6,9,22,14,-1026
289,3.266662,2,6,9,24,10,-1026
290,3.278205,1,6,9,20,10,-1023
291,3.289777,2,6,9,26,8,-1021
292,3.301349,1,6,10,20,11,-1019
293,3.313006,2,5,10,25,13,-1023
294,3.324656,1,5,8,21,12,-1027
295,3.336312,3,6,8,24,13,-1029
296,3.347993,2,6,9,26,8,-1025
297,3.359638,1,6,9,21,14,-1024
298,3.371289,2,5,9,21,13,-1028
299,3.382969,2,6,9,23,12,-1023
300,3.394622,2,6,9,22,13,-1024
301,3.406286,2,6,9,21,10,-1024
302,3.417986,2,6,9,26,15,-1027
303,3.429571,1,6,9,18,10,-1022
304,3.441128,1,5,8,25,10,-1022
305,3.452702,1,6,9,22,10,-1030
306,3.464244,2,5,9,20,12,-1029
307,3.475786,1,6,8,19,10,-1026
308,3.487333,2,6,9,18,12,-1022
309,3.498886,2,6,9,22,15,-1025
310,3.510485,2,5,8,25,12,-1025
311,3.522116,2,5,9,21,11,-1026
312,3.533775,2,6,9,23,10,-1022
313,3.54544,1,6,9,19,13,-1027
314,3.557104,1,6,9,21,12,-1026
315,3.568756,2,6,9,22,10,-1026
316,3.580405,2,6,9,21,12,-1022
317,3.592043,2,5,9,22,12,-1026
318,3.603688,1,6,9,22,11,-1028
319,3.615369,1,6,9,26,13,-1024
320,3.627023,1,5,9,22,14,-1025
321,3.638593,2,5,9,24,13,-1027
322,3.650172,1,6,9,20,11,-1025
323,3.661724,2,5,9,20,9,-1034
324,3.673332,1,6,9,20,11,-1024
325,3.684875,2,6,8,22,14,-1026
326,3.696425,2,6,9,22,11,-1025
327,3.707962,2,5,9,21,12,-1027
328,3.71957,2,6,9,24,14,-1025
329,3.731468,2,4,10,22,10,-1022
330,3.743265,2,5,9,25,12,-1016
331,3.754928,1,6,9,21,9,-1021
332,3.766586,2,7,9,23,9,-1025
333,3.778238,1,6,8,23,10,-1029
334,3.789878,2,6,8,18,12,-1025
335,3.801551,1,5,8,22,11,-1024
336,3.813243,1,5,9,22,12,-1026
337,3.824917,1,6,10,22,10,-1022
338,3.836589,2,6,9,23,12,-1040
339,3.848171,1,7,9,21,6,-1023
340,3.859725,2,6,9,22,14,-1023
341,3.8713,2,5,9,23,13,-1024
342,3.882887,2,6,8,23,13,-1020
343,3.894575,2,6,9,22,12,-1023
344,3.906123,2,6,9,19,10,-1030
345,3.917704,2,6,9,25,11,-1026
346,3.92937,2,6,9,18,10,-1027
347,3.941107,2,5,9,23,10,-1025
348,3.952707,2,5,10,21,14,-1025
349,3.964284,2,6,9,21,8,-1029
350,3.975844,1,6,9,23,12,-1021
351,3.987417,1,5,8,21,9,-1029
352,3.998969,2,6,9,15,9,-1024
353,4.010549,1,6,9,24,13,-1025
354,4.022087,2,7,9,20,9,-1028
355,4.03366,2,6,9,24,12,-1015
356,4.045311,2,5,9,21,11,-1031
357,4.056864,1,6,9,19,11,-1030
358,4.068414,3,6,9,18,14,-1021
359,4.079951,2,6,8,21,9,-1028
360,4.091514,2,6,9,24,10,-1024
361,4.103061,2,5,9,24,11,-1030
362,4.114642,1,6,9,24,11,-1022
363,4.126201,3,5,9,21,10,-1018
364,4.139477,1,6,9,24,11,-1025
365,4.151221,2,6,9,23,11,-1021
366,4.162872,1,6,9,23,11,-1017
367,4.174529,2,5,9,23,10,-1025
368,4.186184,2,6,9,22,9,-1021
369,4.197876,2,6,9,26,14,-1023
370,4.20953,2,6,9,23,13,-1022
371,4.221216,1,5,9,26,12,-1020
372,4.232844,2,5,9,26,11,-1024
373,4.244398,2,5,8,22,9,-1024
374,4.255949,2,6,9,21,8,-1024
375,4.267514,2,6,9,27,12,-1032
376,4.279054,1,6,9,22,13,-1022
377,4.290631,1,5,8,21,12,-1029
378,4.302167,1,5,9,22,11,-1026
379,4.313744,1,6,9,19,8,-1028
380,4.3253,2,6,9,27,14,-1021
381,4.336939,2,6,9,22,15,-1029
382,4.348594,1,6,10,24,13,-1026
383,4.36025,2,6,9,24,12,-1026
384,4.371895,2,5,9,21,7,-1025
385,4.383566,2,5,9,20,15,-1026
386,4.395219,2,5,9,24,14,-1023
387,4.406863,2,5,10,22,8,-1029
388,4.418571,2,6,9,25,11,-1022
389,4.430232,1,6,10,25,14,-1030
390,4.441884,2,6,9,23,10,-1024
391,4.453565,1,5,10,22,14,-1031
392,4.465241,2,6,9,18,11,-1019
393,4.476895,2,6,9,23,11,-1021
394,4.488577,2,6,9,25,7,-1027
395,4.500216,1,7,9,23,11,-1020
396,4.511864,1,5,9,21,11,-1025
397,4.523535,2,5,9,20,9,-1024
398,4.535274,2,6,9,22,12,-1025
399,4.54694,1,6,9,23,14,-1026
400,4.558512,1,6,9,22,13,-1026
401,4.570096,2,5,8,24,13,-1023
402,4.581664,2,5,9,20,12,-1021
403,4.593253,2,6,9,22,10,-1026
404,4.604815,2,6,9,23,10,-1026
405,4.616367,1,6,9,21,13,-1023
406,4.627909,1,6,9,19,11,-1025
407,4.639479,2,5,9,22,13,-1021
408,4.651107,2,5,9,22,11,-1023
409,4.662792,1,6,10,20,12,-1025
410,4.674438,3,6,9,21,11,-1030
411,4.686114,2,6,10,22,10,-1025
412,4.697784,3,6,9,17,12,-1023
413,4.709429,2,6,8,24,9,-1026
414,4.721099,1,5,8,19,13,-1027
415,4.732777,1,6,9,21,13,-1030
416,4.744439,1,6,10,20,12,-1026
417,4.756059,1,6,9,22,13,-1026
418,4.767606,1,5,9,25,7,-1029
419,4.779151,2,5,9,24,13,-1022
420,4.790734,2,5,9,21,14,-1031
421,4.802294,2,6,8,20,11,-1022
422,4.813865,2,6,9,22,7,-1025
423,4.825422,1,6,9,25,13,-1029
424,4.836983,1,6,9,22,9,-1025
425,4.848545,2,6,8,20,11,-1030
426,4.860117,1,6,9,24,10,-1025
427,4.871664,2,6,9,24,12,-1021
428,4.883228,2,5,9,25,13,-1029
429,4.894764,2,5,9,25,12,-1021
430,4.9063,2,5,9,24,10,-1024
431,4.917851,2,6,10,21,13,-1022
432,4.929421,2,5,9,23,11,-1021
433,4.941045,2,6,8,24,10,-1025
434,4.952659,2,6,10,26,11,-1025
435,4.964315,2,6,9,28,14,-1027
436,4.975962,3,6,9,25,15,-1025
437,4.987638,2,5,10,22,14,-1026
438,4.99928,1,5,9,25,8,-1028
439,5.010928,1,6,9,21,4,-1027
440,5.022575,2,5,9,24,11,-1019
441,5.034265,2,5,8,25,12,-1028
442,5.045932,1,6,8,19,9,-1014
443,5.057627,2,6,9,24,13,-1023
444,5.069283,2,7,9,24,15,-1023
445,5.080983,2,5,9,21,14,-1027
446,5.092642,1,6,9,24,13,-1028
447,5.104296,1,6,9,24,11,-1029
448,5.115947,1,6,9,23,10,-1030
449,5.127591,2,6,9,22,11,-1020
450,5.139262,2,5,8,24,15,-1026
451,5.15092,2,5,9,23,11,-1026
452,5.162545,1,6,9,22,12,-1021
453,5.174103,2,5,9,20,13,-1026
454,5.185699,2,6,9,23,12,-1023
455,5.197286,2,6,9,25,8,-1025
456,5.208832,3,6,9,26,11,-1026
457,5.220464,2,6,9,24,12,-1021
458,5.232012,1,6,10,26,10,-1026
459,5.243561,2,6,9,21,11,-1020
460,5.255116,1,6,9,24,14,-1020
461,5.266761,2,6,9,18,8,-1029
462,5.278412,1,5,9,24,8,-1025
463,5.290076,1,6,9,22,11,-1027
464,5.301745,2,6,8,23,9,-1030
465,5.313403,2,6,9,19,11,-1024
466,5.325108,2,6,9,21,7,-1025
467,5.336769,2,6,8,21,9,-1021
468,5.348426,2,5,8,24,13,-1026
469,5.360103,2,6,9,23,10,-1024
470,5.37183,3,6,11,24,9,-1023
471,5.383403,2,6,9,22,13,-1025
472,5.394959,2,6,9,24,12,-1027
473,5.406512,2,5,9,25,8,-1022
474,5.418071,1,5,9,17,11,-1019
475,5.429614,2,6,9,22,12,-1022
476,5.44119,2,5,10,21,11,-1028
477,5.452761,1,5,9,20,11,-1025
478,5.464319,2,5,8,22,10,-1024
479,5.475868,2,6,9,23,11,-1019
480,5.487436,1,6,8,23,12,-1039
481,5.498977,1,5,10,21,11,-1029
482,5.510555,1,6,9,22,12,-1024
483,5.522092,2,6,9,23,14,-1022
484,5.533706,1,5,10,20,11,-1024
485,5.545289,1,6,10,22,12,-1023
486,5.556908,2,6,10,21,14,-1022
487,5.568615,1,6,9,25,15,-1026
488,5.580286,1,6,9,24,15,-1028
489,5.591958,1,5,8,23,11,-1031
490,5.603609,1,5,9,24,14,-1024
491,5.615257,1,6,9,22,9,-1025
492,5.626905,2,6,10,23,9,-1027
493,5.638569,2,6,9,25,14,-1032
494,5.650218,2,5,8,19,12,-1026
495,5.66189,2,6,9,25,12,-1024
496,5.673556,2,6,9,23,9,-1028
497,5.685246,1,6,9,20,12,-1019
498,5.696902,1,5,9,23,12,-1026
499,5.708578,1,5,10,24,11,-1018
500,5.720221,1,5,9,23,10,-1026
501,5.731868,2,5,9,22,10,-1026
502,5.74352,1,6,8,24,12,-1023
503,5.755163,1,6,9,25,15,-1022
504,5.766806,1,6,10,23,8,-1025
505,5.77835,1,5,9,24,8,-1025
506,5.789909,1,5,8,22,15,-1024
507,5.80146,2,6,10,20,11,-1029
508,5.812999,2,5,9,19,8,-1024
509,5.824573,1,6,9,23,11,-1024
510,5.836148,2,5,9,28,16,-1022
511,5.84769,2,6,9,22,9,-1027
512,5.859231,1,6,10,24,13,-1022
513,5.87079,2,5,9,21,12,-1026
514,5.882447,2,5,9,21,7,-1023
515,5.894125,2,6,9,22,12,-1024
516,5.905846,1,5,9,25,12,-1019
517,5.917512,2,6,9,25,10,-1024
518,5.92917,1,6,9,24,8,-1019
519,5.940854,1,5,9,20,8,-1022
520,5.952504,2,6,8,26,8,-1024
521,5.964163,2,6,9,23,11,-1023
522,5.975812,2,6,9,23,14,-1027
523,5.987471,2,6,9,25,12,-1020
524,5.99911,2,5,9,23,10,-1024
525,6.010756,1,5,9,27,13,-1025
526,6.022443,2,5,9,22,11,-1024
527,6.034119,2,5,9,22,12,-1024
528,6.045771,2,6,9,23,15,-1027
529,6.057445,2,5,9,24,13,-1020
530,6.069082,1,6,9,24,10,-1024
531,6.080655,1,5,9,20,12,-1026
532,6.092202,2,6,9,22,8,-1027
533,6.103744,2,6,9,22,14,-1028
534,6.115285,2,6,9,20,11,-1024
535,6.126838,1,6,9,21,13,-1020
536,6.1384,1,5,8,25,7,-1022
537,6.14995,1,5,9,22,9,-1024
538,6.161529,1,6,9,29,11,-1028
539,6.173064,1,6,9,23,11,-1024
540,6.184717,1,5,9,19,12,-1027
541,6.196362,1,6,9,21,10,-1023
542,6.208009,2,6,8,23,10,-1027
543,6.21968,2,6,8,26,11,-1021
544,6.231332,2,6,9,19,12,-1028
545,6.242977,1,5,10,26,9,-1030
546,6.254624,2,6,9,24,17,-1031
547,6.26631,1,6,9,24,11,-1023
548,6.278012,1,6,10,22,11,-1015
549,6.28969,2,6,9,21,13,-1026
550,6.301354,1,5,9,24,13,-1027
551,6.313012,1,6,9,24,9,-1028
552,6.324706,1,5,10,20,12,-1027
553,6.336345,2,6,9,22,9,-1024
554,6.347986,2,5,9,24,10,-1027
555,6.359626,2,6,9,26,12,-1020
556,6.371304,2,6,9,23,10,-1024
557,6.382955,2,5,9,22,10,-1024
558,6.394598,2,6,9,21,10,-1022
559,6.406243,2,5,9,19,16,-1019
560,6.417889,2,6,9,23,11,-1022
561,6.429581,1,5,9,23,16,-1027
562,6.441236,1,6,9,22,11,-1024
563,6.452907,1,6,9,17,9,-1020
564,6.464581,2,6,8,22,10,-1023
565,6.476247,2,6,9,22,8,-1025
566,6.487921,2,5,8,20,10,-1022
567,6.499477,2,5,8,23,8,-1028
568,6.511052,1,6,8,24,7,-1024
569,6.52262,2,6,10,22,13,-1026
570,6.534185,1,5,9,21,9,-1026
571,6.545766,1,5,9,19,11,-1026
572,6.557303,1,6,10,22,10,-1026
573,6.568883,2,6,8,23,1,-1029
574,6.580459,2,6,9,24,12,-1029
575,6.592079,2,6,9,23,10,-1023
576,6.603733,2,6,8,22,13,-1025
577,6.615382,1,6,9,21,12,-1024
578,6.62706,2,6,9,25,8,-1025
579,6.638719,2,6,10,24,14,-1026
580,6.650388,2,6,9,22,12,-1025
581,6.662058,1,6,9,24,9,-1022
582,6.67373,1,5,10,23,10,-1026
583,6.685371,2,5,8,25,13,-1023
584,6.697055,2,6,9,25,12,-1024
585,6.708636,2,6,9,21,10,-1030
586,6.720193,2,6,10,22,11,-1024
587,6.731747,2,6,10,25,12,-1023
588,6.74329,1,5,9,22,10,-1023
589,6.754845,2,5,9,23,10,-1027
590,6.766386,1,6,9,22,10,-1024
591,6.777937,1,6,9,24,13,-1022
592,6.789485,1,6,8,24,13,-1021
593,6.801155,1,7,9,23,12,-1032
594,6.812835,2,6,8,25,12,-1028
595,6.824506,1,5,9,21,10,-1023
596,6.83615,2,6,9,18,9,-1026
597,6.847799,2,6,9,22,11,-1022
598,6.859447,2,6,9,23,8,-1030
599,6.871114,2,6,9,22,13,-1018
600,6.882785,2,5,9,21,13,-1027
601,6.894428,1,6,8,18,12,-1019
602,6.905995,1,6,9,24,16,-1025
603,6.917535,2,5,9,22,13,-1030
604,6.929093,2,5,9,23,13,-1021
605,6.940641,1,5,9,25,10,-1022
606,6.952182,1,6,9,21,12,-1028
607,6.963721,2,5,9,24,8,-1024
608,6.975265,1,5,9,21,7,-1030
609,6.986841,2,5,9,24,12,-1031
610,6.998493,1,6,9,20,13,-1026
611,7.010239,2,5,9,24,12,-1026
612,7.021871,2,6,9,24,11,-1020
613,7.033589,2,7,9,21,8,-1023
614,7.04526,1,6,9,21,11,-1031
615,7.056919,2,5,9,22,12,-1028
616,7.068582,1,6,9,23,14,-1026
617,7.080235,1,6,9,22,12,-1023
618,7.091916,2,6,9,21,10,-1023
619,7.103563,2,5,9,26,10,-1018
620,7.115219,2,5,9,20,14,-1021
621,7.126916,2,6,9,25,12,-1024
622,7.138568,2,6,9,21,10,-1028
623,7.150236,2,5,9,22,10,-1027
624,7.161872,1,5,9,21,7,-1019
625,7.173536,2,6,9,22,11,-1021
626,7.185242,2,5,9,25,13,-1021
627,7.196922,2,5,9,20,8,-1018
628,7.208579,2,5,9,22,7,-1022
629,7.220141,2,6,9,19,13,-1020
630,7.231708,1,5,9,25,8,-1023
631,7.24325,2,6,10,23,14,-1027
632,7.254791,2,6,9,25,9,-1026
633,7.26635,2,5,10,18,10,-1023
634,7.27791,1,6,9,23,11,-1022
635,7.28946,2,6,9,23,12,-1028
636,7.301026,2,6,9,25,10,-1022
637,7.312704,1,5,9,24,11,-1027
638,7.324375,1,5,10,23,13,-1032
639,7.336022,1,6,9,24,6,-1025
640,7.347674,1,6,9,20,10,-1022
641,7.359333,1,6,10,24,13,-1021
642,7.371003,2,5,9,26,10,-1023
643,7.382686,2,6,9,24,13,-1023
644,7.394342,2,6,9,27,14,-1026
645,7.406017,1,5,9,20,12,-1025
646,7.417677,2,6,8,23,12,-1018
647,7.429346,1,6,10,24,13,-1025
648,7.441015,2,6,10,21,13,-1028
649,7.45267,1,5,9,22,9,-1028
650,7.464314,2,5,9,19,12,-1026
651,7.475961,2,6,10,24,11,-1018
652,7.487622,2,6,8,20,10,-1026
653,7.499264,1,5,8,20,12,-1024
654,7.510959,2,5,8,21,11,-1026
655,7.522627,2,6,9,21,11,-1023
656,7.53427,2,6,8,22,9,-1025
657,7.545924,2,5,8,21,7,-1023
658,7.557613,2,5,8,19,10,-1021
659,7.569269,2,6,9,25,12,-1020
660,7.580915,1,6,8,23,10,-1021
661,7.592593,2,6,9,23,10,-1021
662,7.604239,2,6,8,24,9,-1026
663,7.61595,2,6,9,22,7,-1024
664,7.62762,2,5,9,21,11,-1025
665,7.639174,2,5,9,22,12,-1023
666,7.65072,2,6,9,24,12,-1026
667,7.662296,2,6,10,23,10,-1017
668,7.673852,2,5,9,24,12,-1021
669,7.685437,2,6,9,18,10,-1030
670,7.696984,2,6,8,24,12,-1021
671,7.708559,1,5,10,24,12,-1028
672,7.72012,1,6,9,23,9,-1024
673,7.731757,1,6,10,26,10,-1028
674,7.743402,1,5,10,27,10,-1022
675,7.75508,1,7,9,23,9,-1025
676,7.766744,2,5,10,21,12,-1028
677,7.778383,1,5,9,20,12,-1025
678,7.790036,2,6,9,21,14,-1022
679,7.80171,1,6,9,17,8,-1025
680,7.813356,2,5,9,25,11,-1025
681,7.82503,1,5,9,23,14,-1020
682,7.836722,1,5,9,26,15,-1030
683,7.84831,2,6,9,23,13,-1026
684,7.859854,1,6,9,23,13,-1020
685,7.871403,2,6,9,20,14,-1023
686,7.882951,1,6,9,24,11,-1025
687,7.894524,2,5,9,23,12,-1028
688,7.906065,1,7,10,24,9,-1023
689,7.91761,1,6,9,20,10,-1023
690,7.929189,2,5,9,21,12,-1024
691,7.940859,1,6,9,23,13,-1025
692,7.952514,2,5,9,24,10,-1020
693,7.964211,1,6,9,18,13,-1026
694,7.975855,2,6,9,27,12,-1022
695,7.987508,2,6,9,22,10,-1020
696,7.999221,2,5,9,18,14,-1028
697,8.010862,1,5,10,27,11,-1028
698,8.022516,1,5,9,24,12,-1029
699,8.034216,2,6,9,26,9,-1030
700,8.04587,2,5,9,20,12,-1018
701,8.05744,1,6,9,19,9,-1026
702,8.069044,3,6,10,22,10,-1019
703,8.080625,1,5,10,21,11,-1019
704,8.092189,2,5,9,23,10,-1026
705,8.103772,2,6,10,21,14,-1023
706,8.115314,1,6,9,22,8,-1023
707,8.126882,2,5,9,21,10,-1021
708,8.138445,2,5,9,24,11,-1023
709,8.15009,2,6,9,24,13,-1023
710,8.161748,2,6,8,23,11,-1024
711,8.173399,1,5,8,22,11,-1024
712,8.185094,1,6,9,22,13,-1023
713,8.196749,2,5,9,24,14,-1027
714,8.208394,2,6,9,20,12,-1028
715,8.22006,2,5,10,24,16,-1019
716,8.231726,2,6,10,21,15,-1023
717,8.243384,2,5,8,24,12,-1024
718,8.255059,2,5,9,26,10,-1026
719,8.266663,2,5,9,22,8,-1022
720,8.278216,2,6,9,22,9,-1025
721,8.289783,2,5,9,22,9,-1028
722,8.301313,2,5,9,24,7,-1021
723,8.31287,1,6,8,24,13,-1028
724,8.324419,3,6,8,23,11,-1022
725,8.335966,2,6,9,24,12,-1023
726,8.347523,2,6,9,27,13,-1017
727,8.359177,1,6,9,20,5,-1024
728,8.370833,2,5,9,23,12,-1027
729,8.38249,2,6,8,21,11,-1026
730,8.394141,2,6,8,20,13,-1024
731,8.405808,2,6,9,24,12,-1029
732,8.417486,1,5,9,22,12,-1020
733,8.429164,2,5,9,17,10,-1023
734,8.440839,2,5,8,23,9,-1026
735,8.452488,2,5,9,23,13,-1025
736,8.464041,2,5,10,24,13,-1029
737,8.475583,1,6,10,24,6,-1019
738,8.487148,2,5,9,22,13,-1024
739,8.498737,2,6,9,19,10,-1020
740,8.510285,2,6,9,21,10,-1024
741,8.521854,2,6,10,22,14,-1019
742,8.533413,2,5,9,21,9,-1028
743,8.544965,1,5,10,25,10,-1032
744,8.556527,1,7,10,20,8,-1022
745,8.568148,2,6,10,24,8,-1027
746,8.579796,1,5,10,20,12,-1026
747,8.59145,2,6,10,25,9,-1021
748,8.603098,2,5,9,22,12,-1021
749,8.614736,1,6,9,23,15,-1020
750,8.6264,2,5,8,23,11,-1024
751,8.638044,2,6,9,25,10,-1028
752,8.649696,2,5,9,23,13,-1029
753,8.66137,2,6,9,21,11,-1021
754,8.673033,1,6,9,26,9,-1024
755,8.684631,1,6,9,25,9,-1029
756,8.696176,2,6,9,22,12,-1027
757,8.707724,1,6,9,23,10,-1028
758,8.719269,2,6,9,23,11,-1025
759,8.730809,1,6,9,23,14,-1023
760,8.742355,1,5,8,19,11,-1017
761,8.753936,2,5,9,20,6,-1029
762,8.765508,2,5,8,22,14,-1032
763,8.777226,2,5,9,25,6,-1022
764,8.788921,2,6,9,22,10,-1027
765,8.800582,1,6,8,25,13,-1025
766,8.812249,2,6,9,22,11,-1030
767,8.823919,1,5,9,23,12,-1023
768,8.835561,1,6,9,25,14,-1028
769,8.847219,2,6,9,22,9,-1022
770,8.858918,1,7,9,20,11,-1023
771,8.870616,2,6,9,20,8,-1023
772,8.882166,2,6,9,21,14,-1024
773,8.893714,2,5,9,22,13,-1029
774,8.905292,1,6,9,19,13,-1021
775,8.916868,2,5,9,23,12,-1024
776,8.928405,2,6,9,21,10,-1023
777,8.939935,2,5,9,23,9,-1029
778,8.951491,1,6,8,28,13,-1025
779,8.963035,2,6,10,22,13,-1021
780,8.974589,2,6,9,24,11,-1026
781,8.986305,2,6,9,23,12,-1031
782,8.998002,2,5,9,25,10,-1026
783,9.009669,2,6,9,21,6,-1025
784,9.021353,2,5,9,24,10,-1024
785,9.033018,2,6,10,21,12,-1019
786,9.044675,2,6,10,23,7,-1026
787,9.056367,1,5,9,24,9,-1021
788,9.068043,1,5,9,19,13,-1027
789,9.079676,1,6,9,22,9,-1024
790,9.091233,1,6,9,22,9,-1026
791,9.1028,2,7,9,21,9,-1028
792,9.114383,1,6,9,23,14,-1023
793,9.126048,1,6,8,21,14,-1026
794,9.137613,1,6,9,23,12,-1022
795,9.149184,1,6,9,25,8,-1024
796,9.160742,2,6,9,19,12,-1023
797,9.172292,1,5,9,21,10,-1023
798,9.183854,1,5,9,23,10,-1025
799,9.195553,1,6,9,22,12,-1017
800,9.207206,2,5,9,23,11,-1022
801,9.218854,1,6,8,21,10,-1022
802,9.230557,2,6,9,23,11,-1024
803,9.242202,2,6,9,22,6,-1025
804,9.253867,2,6,9,21,12,-1028
805,9.265536,2,7,10,21,11,-1025
806,9.27722,2,6,9,21,12,-1018
807,9.288904,1,5,9,22,14,-1026
808,9.30056,2,5,9,26,12,-1020
809,9.312112,1,6,9,24,11,-1021
810,9.323653,1,5,9,21,9,-1025
811,9.335198,2,6,8,20,11,-1028
812,9.346741,2,6,9,22,10,-1023
813,9.358281,2,6,9,22,8,-1020
814,9.369831,2,6,9,27,8,-1027
815,9.381381,2,6,9,24,12,-1025
816,9.392958,2,6,10,21,9,-1025
817,9.404574,2,5,9,24,8,-1024
818,9.416243,1,5,9,21,12,-1023
819,9.427894,1,6,9,19,14,-1024
820,9.439544,2,6,9,24,11,-1025
821,9.451185,2,6,9,22,7,-1027
822,9.462829,2,6,9,20,8,-1025
823,9.4745,2,6,9,24,9,-1026
824,9.486235,2,6,9,23,14,-1026
825,9.497891,2,5,9,23,13,-1028
826,9.50954,2,6,8,24,10,-1030
827,9.521217,2,5,10,20,9,-1024
828,9.532848,2,6,9,25,12,-1022
829,9.544506,1,5,8,19,9,-1023
830,9.556143,2,6,9,20,14,-1027
831,9.567784,2,5,9,21,10,-1025
832,9.579443,2,7,9,22,11,-1029
833,9.591103,2,6,9,23,9,-1021
834,9.602801,2,6,9,20,12,-1027
835,9.614479,2,5,8,21,11,-1026
836,9.626123,2,5,9,21,10,-1022
837,9.637775,1,7,8,22,12,-1021
838,9.649423,2,5,9,18,12,-1023
839,9.661089,2,6,9,21,10,-1023
840,9.672754,1,6,10,19,11,-1024
841,9.684398,2,6,9,20,8,-1026
842,9.696045,2,6,9,26,11,-1032
843,9.707709,2,5,9,16,8,-1025
844,9.719369,1,5,9,27,9,-1021
845,9.731018,2,5,9,22,10,-1024
846,9.742658,2,5,9,26,9,-1019
847,9.754309,2,6,9,22,12,-1027
848,9.765999,2,5,9,24,17,-1021
849,9.777663,1,6,10,24,8,-1018
850,9.789356,2,5,9,21,12,-1023
851,9.801,2,6,9,22,9,-1022
852,9.81267,2,6,9,24,12,-1021
853,9.824344,2,6,9,23,13,-1024
854,9.835928,2,6,9,20,9,-1028
855,9.84747,2,6,9,19,13,-1024
856,9.85901,2,6,9,23,12,-1031
857,9.870574,2,6,9,21,12,-1024
858,9.882159,3,6,9,22,9,-1019
859,9.893714,2,6,9,23,11,-1025
860,9.905295,2,6,9,16,11,-1032
861,9.916842,1,5,8,20,13,-1033
862,9.928492,2,6,9,23,7,-1029
863,9.940148,1,5,9,23,10,-1022
864,9.951819,2,6,9,22,8,-1025
865,9.963473,2,6,9,19,11,-1020
866,9.975174,1,6,9,23,9,-1027
867,9.986857,1,6,10,24,7,-1021
868,9.9985,2,6,10,24,12,-1022
869,10.010147,2,5,9,23,8,-1023
870,10.021832,2,6,8,24,12,-1021
871,10.033503,2,6,9,17,14,-1031
872,10.045059,1,6,9,22,11,-1026
873,10.056577,2,6,9,23,11,-1023
874,10.068122,1,6,9,21,10,-1027
875,10.079665,2,5,9,19,10,-1031
876,10.091217,2,5,9,23,9,-1029
877,10.1028,2,5,9,20,14,-1029
878,10.114345,1,5,9,22,12,-1023
879,10.125928,1,6,9,20,14,-1017
880,10.137539,1,5,8,21,8,-1025
881,10.149227,2,5,8,24,12,-1030
882,10.160885,2,6,9,25,15,-1029
883,10.172579,2,6,9,26,9,-1027
884,10.184222,1,5,9,21,11,-1031
885,10.195871,2,6,9,22,11,-1024
886,10.207507,2,5,9,19,9,-1019
887,10.219151,2,6,9,21,9,-1024
888,10.230854,1,6,9,23,9,-1028
889,10.242502,2,5,9,22,15,-1024
890,10.25406,2,6,9,26,8,-1018
891,10.265612,1,6,9,25,12,-1022
892,10.277179,2,5,8,20,10,-1025
893,10.288811,1,6,9,22,12,-1027
894,10.300381,2,5,9,22,5,-1018
895,10.31192,2,5,9,22,13,-1024
896,10.323463,2,6,9,25,10,-1026
897,10.335013,2,6,9,22,12,-1026
898,10.346677,2,6,9,22,10,-1027
899,10.358341,2,5,9,23,16,-1023
900,10.370005,2,4,9,25,12,-1022
901,10.381679,2,6,9,21,9,-1027
902,10.393357,2,6,9,23,12,-1024
903,10.405031,1,6,9,25,12,-1026
904,10.416725,2,5,9,20,11,-1024
905,10.428381,2,6,9,24,11,-1024
906,10.440075,1,6,9,23,12,-1029
907,10.451728,2,5,9,21,7,-1027
908,10.463309,1,6,9,22,13,-1029
909,10.474899,2,6,9,19,12,-1024
910,10.486445,1,6,10,17,12,-1029
911,10.498023,1,6,9,23,9,-1020
912,10.509594,2,6,9,20,10,-1022
913,10.521164,1,5,9,21,7,-1027
914,10.532729,1,6,8,21,8,-1026
915,10.544285,1,6,10,20,13,-1026
916,10.5559,2,5,9,22,11,-1020
917,10.567556,2,6,9,23,13,-1028
918,10.579215,2,5,9,20,10,-1023
919,10.59086,1,5,9,22,12,-1028
920,10.602535,2,5,9,24,13,-1029
921,10.614188,2,7,10,22,12,-1025
922,10.625867,2,6,9,21,10,-1018
923,10.637529,1,5,10,24,14,-1021
924,10.649228,1,6,9,24,14,-1021
925,10.6609,1,6,9,24,10,-1024
926,10.672577,2,6,9,26,10,-1023
927,10.68424,2,6,9,24,13,-1030
928,10.695948,2,6,9,24,9,-1029
929,10.707608,2,5,9,23,10,-1025
930,10.719287,2,5,9,17,10,-1032
931,10.730947,2,5,9,21,11,-1025
932,10.742604,2,6,9,21,6,-1032
933,10.754275,2,5,9,22,10,-1023
934,10.766011,1,6,9,23,12,-1025
935,10.777594,2,6,8,22,8,-1026
936,10.789146,1,5,9,22,14,-1025
937,10.800732,2,6,9,20,10,-1028
938,10.812286,1,6,9,21,12,-1023
939,10.823863,2,6,9,21,13,-1026
940,10.835413,2,5,9,20,10,-1018
941,10.846992,1,6,9,20,7,-1028
942,10.858548,1,6,9,22,12,-1025
943,10.870106,2,6,8,21,12,-1021
944,10.88166,2,5,9,21,10,-1025
945,10.893255,1,6,10,19,8,-1028
946,10.904818,2,6,9,21,6,-1021
947,10.916371,2,5,9,25,15,-1024
948,10.927912,2,6,9,20,15,-1033
949,10.939454,2,6,9,24,13,-1025
950,10.950991,2,6,9,24,11,-1022
951,10.9626,1,6,9,21,10,-1025
952,10.974259,1,5,9,21,10,-1021
953,10.985933,2,5,9,20,11,-1024
954,10.997601,1,6,9,21,9,-1031
955,11.009261,2,5,9,22,14,-1021
956,11.02093,2,6,10,22,11,-1022
957,11.032588,2,5,9,21,11,-1021
958,11.044233,2,6,9,21,10,-1026
959,11.055901,1,5,9,24,13,-1024
960,11.06755,2,6,9,26,15,-1027
961,11.079198,2,6,9,23,12,-1032
962,11.090884,2,6,9,24,11,-1025
963,11.10255,2,6,9,21,8,-1019
964,11.114199,2,6,9,21,11,-1024
965,11.125905,1,5,9,25,12,-1025
966,11.137553,2,6,9,26,9,-1020
967,11.14923,1,5,9,25,9,-1025
968,11.160908,2,6,9,23,7,-1028
969,11.172594,1,5,9,24,9,-1029
970,11.184279,1,6,9,23,8,-1027
971,11.195854,2,6,8,24,9,-1029
972,11.207404,1,7,9,21,11,-1018
973,11.21901,1,6,9,22,7,-1020
974,11.23059,1,6,8,25,10,-1031
975,11.242137,1,6,8,24,8,-1025
976,11.253721,1,5,8,22,14,-1023
977,11.265291,1,5,10,23,11,-1030
978,11.27683,1,7,9,17,9,-1022
979,11.288492,2,6,9,21,9,-1025
980,11.300154,2,6,9,20,12,-1025
981,11.311799,1,5,9,23,12,-1026
982,11.323445,2,5,9,21,14,-1024
983,11.335116,2,5,9,21,9,-1018
984,11.346772,2,5,9,21,14,-1029
985,11.358424,2,5,9,18,11,-1022
986,11.370105,2,5,9,26,8,-1021
987,11.381778,2,5,9,23,14,-1029
988,11.393472,1,6,9,26,10,-1020
989,11.405081,1,6,8,25,14,-1026
990,11.416636,1,6,10,21,9,-1022
991,11.42821,2,6,8,17,12,-1018
992,11.439749,1,6,9,23,13,-1026
993,11.451297,2,6,9,19,9,-1029
994,11.462881,2,5,8,25,12,-1027
995,11.474424,1,6,8,21,13,-1031
996,11.485986,2,6,9,23,10,-1024
997,11.497604,2,5,9,23,14,-1028
998,11.509272,2,5,9,22,12,-1025
999,11.520922,1,6,10,23,9,-1028
1000,11.532594,1,5,9,21,10,-1032
1001,11.544256,2,5,9,23,12,-1025
1002,11.555903,1,5,10,24,9,-1022
1003,11.567552,2,6,9,19,7,-1023
1004,11.579216,1,6,9,21,8,-1026
1005,11.590889,2,6,9,25,11,-1029
1006,11.60254,1,6,9,19,12,-1022
1007,11.614192,2,6,9,23,11,-1025
1008,11.625863,2,6,9,20,11,-1020
1009,11.637523,2,6,10,22,8,-1027
1010,11.649177,1,6,9,22,12,-1027
1011,11.66084,2,6,9,24,7,-1022
1012,11.672494,1,5,9,25,12,-1029
1013,11.68414,2,6,9,21,10,-1025
1014,11.695816,2,5,9,24,14,-1016
1015,11.707494,3,6,9,25,10,-1027
1016,11.719171,2,5,8,23,9,-1021
1017,11.730842,1,6,9,24,14,-1020
1018,11.742497,1,6,9,28,11,-1028
1019,11.754157,1,5,10,22,13,-1023
1020,11.765829,2,6,9,22,9,-1027
1021,11.777497,1,5,9,23,13,-1025
1022,11.789151,2,5,9,22,8,-1023
1023,11.800857,2,5,8,22,11,-1019
1024,11.812576,2,6,9,25,11,-1025
1025,11.82419,3,6,9,19,11,-1024
1026,11.835763,1,6,9,20,13,-1025
1027,11.847313,1,6,9,27,9,-1027
1028,11.858856,1,5,9,25,11,-1028
1029,11.870397,2,5,9,20,12,-1024
1030,11.88195,2,6,9,23,9,-1020
1031,11.893556,1,7,9,22,13,-1025
1032,11.905122,2,5,9,25,12,-1024
1033,11.91673,2,6,9,22,11,-1031
1034,11.928269,2,5,9,28,10,-1025
1035,11.939819,1,6,9,22,13,-1028
1036,11.951378,1,6,8,24,11,-1025
1037,11.96292,2,6,9,21,11,-1027
1038,11.974492,2,6,9,27,13,-1020
1039,11.986056,2,6,10,26,8,-1021
1040,11.997603,2,5,8,21,13,-1027
1041,12.009239,1,5,9,21,8,-1026
1042,12.020887,1,6,9,24,8,-1023
1043,12.032567,1,6,9,24,9,-1027
1044,12.04423,2,5,9,23,4,-1024
1045,12.055884,1,6,9,21,13,-1027
1046,12.067525,1,5,9,25,9,-1033
1047,12.079168,1,5,9,21,10,-1021
1048,12.090835,2,5,9,23,11,-1023
1049,12.102482,1,5,9,26,14,-1024
1050,12.114141,3,6,9,24,7,-1029
1051,12.12582,1,5,9,20,7,-1025
1052,12.137495,2,6,9,24,12,-1019
1053,12.149152,2,7,8,22,12,-1023
1054,12.16084,2,6,8,24,10,-1028
1055,12.172484,2,6,9,23,13,-1022
1056,12.184126,2,5,9,26,11,-1024
1057,12.195798,1,5,9,24,12,-1028
1058,12.207458,2,6,9,21,9,-1024
1059,12.219148,1,6,9,21,13,-1027
1060,12.230825,2,5,9,24,8,-1023
1061,12.242483,2,6,10,25,12,-1023
1062,12.254131,1,6,9,25,11,-1026
1063,12.265775,1,6,8,20,14,-1019
1064,12.277424,2,6,9,22,12,-1024
1065,12.289098,1,6,9,25,13,-1029
1066,12.300751,1,6,9,21,12,-1024
1067,12.312401,2,6,9,21,12,-1027
1068,12.324072,1,6,8,25,9,-1024
1069,12.335615,1,5,9,23,14,-1028
1070,12.347155,2,6,8,26,14,-1022
1071,12.358703,1,6,8,25,9,-1027
1072,12.370276,1,6,9,24,10,-1028
1073,12.381839,2,6,9,25,16,-1027
1074,12.393418,1,6,9,26,16,-1027
1075,12.404965,2,5,9,23,12,-1030
1076,12.416518,1,5,9,24,13,-1023
1077,12.428074,2,6,8,27,13,-1022
1078,12.439721,1,5,9,22,13,-1033
1079,12.451373,2,5,9,22,11,-1022
1080,12.463027,2,5,9,18,10,-1021
1081,12.474688,2,7,9,24,10,-1025
1082,12.486338,1,6,9,21,7,-1020
1083,12.498008,1,6,9,26,10,-1023
1084,12.509681,2,5,9,23,14,-1026
1085,12.521352,2,5,9,23,13,-1025
1086,12.53302,1,6,9,22,12,-1022
1087,12.544694,1,6,10,23,15,-1025
1088,12.55628,1,5,9,24,14,-1022
1089,12.567838,2,6,9,26,10,-1029
1090,12.579383,1,6,9,21,7,-1022
1091,12.590928,1,6,9,22,11,-1021
1092,12.602489,2,6,9,23,9,-1022
1093,12.614034,2,6,9,24,11,-1026
1094,12.625618,2,5,9,24,10,-1022
1095,12.637193,1,6,9,20,14,-1029
1096,12.648851,2,6,9,26,8,-1027
1097,12.660519,1,5,9,21,8,-1020
1098,12.672176,2,6,9,21,12,-1019
1099,12.683838,2,6,9,22,14,-1026
1100,12.695492,2,6,9,22,9,-1023
1101,12.707138,2,6,9,21,14,-1030
1102,12.718803,2,5,9,26,9,-1027
1103,12.730452,1,5,10,23,13,-1023
1104,12.742186,2,6,9,25,10,-1014
1105,12.753843,2,6,9,24,9,-1025
1106,12.765422,2,6,9,18,12,-1022
1107,12.777012,2,6,10,21,12,-1021
1108,12.788572,2,6,9,20,13,-1030
1109,12.800126,2,6,9,25,12,-1023
1110,12.811682,2,6,9,22,9,-1021
1111,12.823232,2,5,9,18,13,-1023
1112,12.83478,1,5,9,20,13,-1023
1113,12.846478,1,6,10,22,14,-1020
1114,12.858094,2,6,9,21,9,-1019
1115,12.869759,2,7,9,22,11,-1023
1116,12.881422,1,6,9,21,10,-1026
1117,12.893098,1,6,9,24,10,-1021
1118,12.904771,1,6,9,21,11,-1029
1119,12.916424,2,5,9,23,13,-1025
1120,12.928074,2,6,9,23,14,-1023
1121,12.939786,1,6,10,23,11,-1026
1122,12.951456,2,5,9,22,10,-1025
1123,12.963121,1,6,10,19,14,-1022
1124,12.974685,1,6,10,23,11,-1029
1125,12.986254,1,5,9,23,13,-1025
1126,12.997774,2,5,9,22,10,-1025
1127,13.009302,2,5,9,22,13,-1029
1128,13.020882,2,6,9,24,11,-1021
1129,13.032432,2,6,9,23,11,-1018
1130,13.044,2,6,9,25,13,-1024
1131,13.055555,2,6,9,23,12,-1027
1132,13.067176,2,5,9,20,12,-1031
1133,13.078818,1,5,9,23,11,-1024
1134,13.090498,1,6,9,25,10,-1024
1135,13.102171,1,7,9,25,11,-1026
1136,13.113838,2,7,8,22,10,-1021
1137,13.125486,2,6,9,22,10,-1024
1138,13.137168,2,5,8,24,15,-1029
1139,13.14883,2,6,9,23,13,-1022
1140,13.160489,2,5,8,22,11,-1025
1141,13.172167,1,6,8,23,8,-1026
1142,13.18374,2,6,9,25,11,-1030
1143,13.19529,1,5,9,21,11,-1028
1144,13.206841,2,6,9,19,9,-1017
1145,13.218389,1,6,9,22,12,-1023
1146,13.229946,1,6,9,21,11,-1032
1147,13.241525,2,6,9,21,9,-1016
1148,13.253118,2,6,9,24,12,-1023
1149,13.264704,1,6,9,24,9,-1021
1150,13.276331,2,6,8,29,11,-1022
1151,13.288005,1,7,9,22,8,-1025
1152,13.299662,2,6,9,20,12,-1021
1153,13.311324,2,6,10,21,12,-1022
1154,13.322972,1,6,9,22,13,-1024
1155,13.334665,1,6,9,21,10,-1027
1156,13.346305,2,6,9,25,12,-1015
1157,13.357958,2,5,9,18,15,-1024
1158,13.369653,2,6,9,19,10,-1022
1159,13.381343,2,6,9,18,13,-1024
1160,13.392895,2,6,9,23,7,-1024
1161,13.404463,2,6,9,23,13,-1022
1162,13.416016,1,6,8,21,6,-1014
1163,13.42759,1,6,10,24,12,-1017
1164,13.439159,1,6,10,20,13,-1021
1165,13.450724,1,6,9,25,12,-1025
1166,13.462261,2,6,9,21,12,-1022
1167,13.47379,2,6,8,24,15,-1022
1168,13.485416,2,6,9,23,13,-1026
1169,13.497097,2,6,9,24,9,-1021
1170,13.508774,1,6,9,20,14,-1027
1171,13.520426,2,6,9,25,12,-1028
1172,13.532088,2,5,10,25,11,-1024
1173,13.543753,2,5,9,20,10,-1026
1174,13.555398,2,6,9,20,9,-1028
1175,13.567043,1,6,9,22,10,-1021
1176,13.578702,2,6,9,24,13,-1029
1177,13.590354,2,6,8,22,16,-1026
1178,13.601916,2,5,9,20,15,-1029
1179,13.613481,2,5,8,21,13,-1021
1180,13.625078,2,5,9,23,14,-1024
1181,13.63664,2,5,9,24,11,-1015
1182,13.648216,1,5,9,23,11,-1024
1183,13.659761,1,6,9,29,8,-1027
1184,13.671301,2,6,9,21,12,-1027
1185,13.682883,2,6,8,20,10,-1025
1186,13.694521,2,6,9,19,9,-1024
1187,13.706175,2,6,10,20,15,-1027
1188,13.717878,2,6,9,22,15,-1027
1189,13.729533,2,6,10,23,10,-1021
1190,13.741238,2,5,8,21,11,-1022
1191,13.752893,2,5,9,21,14,-1025
1192,13.764579,2,5,9,19,10,-1025
1193,13.776258,1,7,9,24,11,-1029
1194,13.787911,1,5,9,23,9,-1019
1195,13.799461,2,6,9,22,9,-1026
1196,13.81105,2,6,9,20,10,-1031
1197,13.822598,1,6,8,22,16,-1025
1198,13.834156,2,7,8,21,13,-1023
1199,13.845707,1,6,9,25,14,-1022
1200,13.857273,1,6,9,23,13,-1019
1201,13.86886,2,6,9,18,13,-1029
1202,13.880442,3,6,10,19,9,-1026
1203,13.892003,1,6,9,25,12,-1023
1204,13.903622,1,5,9,20,12,-1023
1205,13.915278,2,6,8,19,13,-1019
1206,13.926947,2,5,8,23,12,-1022
1207,13.938607,2,6,9,23,10,-1025
1208,13.950265,1,6,9,23,11,-1021
1209,13.961911,1,6,9,22,4,-1027
1210,13.973603,1,5,9,17,12,-1026
1211,13.985261,2,5,8,20,15,-1027
1212,13.996925,2,6,9,21,9,-1021
1213,14.008581,1,6,9,21,9,-1025
1214,14.02018,1,6,8,22,12,-1023
1215,14.031731,2,6,9,24,11,-1020
1216,14.043275,2,5,9,26,8,-1028
1217,14.054838,1,6,9,27,14,-1025
1218,14.066423,1,6,9,23,9,-1021
1219,14.077971,2,6,9,24,13,-1028
1220,14.089558,1,6,9,22,11,-1023
1221,14.101118,2,5,9,22,12,-1023
1222,14.112753,2,5,9,25,13,-1014
1223,14.124425,2,6,9,22,13,-1022
1224,14.136165,1,5,9,23,12,-1021
1225,14.147824,2,5,9,23,14,-1026
1226,14.159487,2,5,9,23,12,-1026
1227,14.17113,2,5,9,20,11,-1028
1228,14.182779,2,6,9,21,13,-1028
1229,14.194453,2,6,9,25,9,-1027
1230,14.206149,2,6,9,20,13,-1023
1231,14.217883,2,5,9,22,14,-1026
1232,14.229446,1,6,9,22,10,-1024
1233,14.240999,2,6,9,23,9,-1026
1234,14.25258,2,6,9,20,9,-1023
1235,14.264131,1,5,8,21,11,-1026
1236,14.275714,2,5,9,24,7,-1027
1237,14.287325,2,6,9,23,11,-1019
1238,14.29892,1,6,9,22,14,-1026
1239,14.310496,1,6,9,23,8,-1027
1240,14.322059,2,6,10,24,8,-1029
1241,14.333679,2,5,9,20,10,-1027
1242,14.345251,2,6,9,23,11,-1023
1243,14.356829,2,6,9,23,12,-1025
1244,14.368421,2,6,9,23,14,-1026
1245,14.379987,2,5,9,18,12,-1022
1246,14.391597,2,5,9,20,8,-1021
1247,14.403166,2,6,8,22,13,-1018
1248,14.414753,2,6,9,21,10,-1024
1249,14.426324,2,6,9,23,12,-1023
1250,14.437915,2,6,9,21,12,-1029
1251,14.449473,2,6,9,21,13,-1031
1252,14.461053,1,6,8,25,8,-1029
1253,14.472627,2,6,9,16,12,-1030
1254,14.484186,2,6,8,21,12,-1022
1255,14.495787,1,6,9,18,13,-1023
1256,14.507327,1,6,10,21,12,-1025
1257,14.51891,2,6,9,22,7,-1024
1258,14.530565,2,7,10,18,8,-1022
1259,14.542222,1,6,9,26,16,-1030
1260,14.553869,1,6,8,23,14,-1031
1261,14.565522,2,5,9,23,9,-1026
1262,14.577198,1,5,9,25,11,-1027
1263,14.588846,2,5,8,23,11,-1019
1264,14.600498,2,6,10,25,9,-1026
1265,14.612158,2,5,9,20,8,-1027
1266,14.623842,1,5,9,23,13,-1026
1267,14.635519,2,5,9,20,7,-1022
1268,14.647076,2,6,9,22,10,-1027
1269,14.658644,2,5,9,23,10,-1021
1270,14.670201,2,6,9,22,11,-1023
1271,14.681804,2,6,9,23,15,-1029
1272,14.693391,2,6,9,19,12,-1025
1273,14.704978,2,6,8,23,9,-1028
1274,14.716596,2,5,8,27,13,-1024
1275,14.728178,1,6,9,23,13,-1032
1276,14.739723,2,6,9,21,8,-1033
1277,14.751278,1,6,9,23,9,-1026
1278,14.762824,2,6,9,27,12,-1024
1279,14.77439,2,6,9,21,8,-1029
1280,14.785942,1,4,9,19,13,-1025
1281,14.797566,2,6,9,27,10,-1018
1282,14.809147,1,5,9,22,13,-1027
1283,14.820702,1,5,9,22,5,-1024
1284,14.832345,1,5,9,20,8,-1029
1285,14.843977,2,5,9,23,10,-1023
1286,14.855654,2,6,9,23,13,-1023
1287,14.867317,1,6,9,20,8,-1023
1288,14.878969,1,5,10,25,12,-1026
1289,14.89063,2,6,8,23,13,-1019
1290,14.902323,2,5,9,25,7,-1020
1291,14.914033,2,6,10,22,12,-1024
1292,14.925699,2,6,9,20,12,-1018
1293,14.937377,2,6,9,25,15,-1021
1294,14.949076,1,6,9,27,10,-1029
1295,14.960631,2,5,9,22,9,-1016
1296,14.972186,2,5,8,24,8,-1020
1297,14.983735,1,5,9,22,11,-1023
1298,14.995285,1,6,9,22,12,-1026
1299,15.00687,2,7,10,19,13,-1018
1300,15.01842,2,6,9,28,7,-1023
1301,15.030003,2,5,9,21,10,-1028
1302,15.041553,1,7,9,22,14,-1024
1303,15.053185,2,6,9,23,13,-1027
1304,15.064849,2,6,9,20,10,-1023
1305,15.076512,2,5,9,19,15,-1024
1306,15.088165,2,5,9,25,12,-1027
1307,15.099815,2,6,9,24,14,-1024
1308,15.111503,2,6,9,24,13,-1022
1309,15.123422,2,6,9,24,8,-1024
1310,15.135236,1,5,9,23,7,-1021
1311,15.146926,1,5,9,22,13,-1030
1312,15.158535,1,7,9,21,9,-1027
1313,15.170109,1,6,9,21,11,-1021
1314,15.181683,1,5,9,25,11,-1025
1315,15.193256,2,5,9,23,10,-1025
1316,15.204825,2,5,9,19,10,-1022
1317,15.216382,1,6,8,20,11,-1032
1318,15.227927,1,6,8,25,10,-1018
1319,15.239479,2,5,10,23,15,-1025
1320,15.251033,2,6,8,24,10,-1025
1321,15.262601,2,6,9,21,10,-1029
1322,15.274158,2,6,9,23,13,-1023
1323,15.285762,2,6,9,22,10,-1023
1324,15.297303,2,6,9,22,11,-1027
1325,15.308873,2,5,9,22,11,-1024
1326,15.320443,1,5,9,23,12,-1020
1327,15.332007,2,5,9,23,12,-1023
1328,15.343559,2,6,8,24,10,-1028
1329,15.355232,2,5,8,21,12,-1018
1330,15.366895,2,6,9,23,15,-1025
1331,15.378572,1,5,9,21,11,-1028
1332,15.390308,2,6,9,25,14,-1029
1333,15.402031,1,6,9,21,13,-1029
1334,15.413769,2,7,8,23,10,-1022
1335,15.425432,1,6,9,25,9,-1026
1336,15.437108,1,6,9,20,14,-1024
1337,15.448831,2,6,9,20,11,-1022
1338,15.460395,2,5,9,23,9,-1025
1339,15.471993,2,6,10,22,11,-1027
1340,15.483546,2,5,9,24,13,-1020
1341,15.495109,2,6,9,24,10,-1020
1342,15.506654,1,5,9,21,8,-1024
1343,15.518204,2,6,8,24,12,-1024
1344,15.529806,2,5,9,19,13,-1022
1345,15.541365,2,5,10,23,14,-1027
1346,15.55301,2,5,10,20,7,-1024
1347,15.564701,1,6,8,21,10,-1028
1348,15.576373,2,5,9,24,12,-1027
1349,15.588031,1,6,9,20,10,-1025
1350,15.599691,2,7,9,23,13,-1017
1351,15.611363,2,6,10,23,10,-1029
1352,15.623027,2,5,9,24,10,-1025
1353,15.634684,1,7,9,23,12,-1029
1354,15.646363,1,6,8,18,14,-1017
1355,15.658029,1,5,9,21,10,-1025
1356,15.669598,2,6,9,22,14,-1025
1357,15.681178,2,5,9,23,14,-1025
1358,15.692736,2,6,10,19,9,-1030
1359,15.704311,2,6,9,21,14,-1024
1360,15.715865,1,5,9,24,10,-1021
1361,15.727431,2,6,9,22,11,-1021
1362,15.738975,2,6,9,20,8,-1024
1363,15.75053,2,6,10,22,12,-1024
1364,15.762153,1,5,10,21,14,-1023
1365,15.773804,1,5,10,23,14,-1027
1366,15.785497,2,5,9,27,12,-1029
1367,15.797245,2,5,8,25,9,-1030
1368,15.808918,1,6,9,24,8,-1025
1369,15.820597,2,6,9,26,12,-1021
1370,15.832259,2,5,9,22,9,-1029
1371,15.843917,1,6,9,21,11,-1028
1372,15.855594,1,5,9,22,14,-1022
1373,15.867286,2,6,10,23,12,-1028
1374,15.878849,2,6,10,20,7,-1027
1375,15.890413,1,5,10,19,10,-1031
1376,15.902037,2,5,9,23,8,-1024
1377,15.913599,2,7,9,24,7,-1022
1378,15.925203,2,6,9,21,14,-1024
1379,15.936747,1,6,9,19,10,-1022
1380,15.94829,2,5,8,24,10,-1024
1381,15.959857,2,5,9,22,13,-1027
1382,15.971541,2,6,9,23,10,-1027
1383,15.983201,1,7,8,21,10,-1025
1384,15.994887,2,5,9,26,10,-1020
1385,16.006545,1,5,9,25,12,-1032
1386,16.018187,1,5,9,23,9,-1024
1387,16.029877,2,6,9,26,13,-1022
1388,16.041535,2,6,9,23,9,-1023
1389,16.053172,2,6,9,20,14,-1020
1390,16.064861,2,5,10,27,12,-1025
1391,16.076528,2,6,9,23,11,-1019
1392,16.088107,1,6,9,25,11,-1018
1393,16.099714,1,5,10,25,10,-1026
1394,16.111285,2,5,10,23,13,-1024
1395,16.122842,1,6,9,21,12,-1017
1396,16.134495,1,6,8,19,13,-1015
1397,16.146077,1,5,9,23,15,-1029
1398,16.15764,2,6,9,24,8,-1024
1399,16.169215,2,5,10,22,9,-1028
1400,16.180889,2,5,9,24,8,-1026
1401,16.192576,1,5,10,21,11,-1025
1402,16.204245,1,5,9,23,10,-1028
1403,16.215896,1,5,8,23,7,-1022
1404,16.227542,2,5,9,27,14,-1026
1405,16.239253,2,5,9,24,11,-1024
1406,16.250908,2,6,9,20,10,-1026
1407,16.262563,2,6,9,22,11,-1023
1408,16.274262,1,6,8,23,10,-1029
1409,16.28592,2,6,9,23,9,-1024
1410,16.297619,1,6,9,17,13,-1023
1411,16.30927,1,6,9,22,14,-1021
1412,16.320923,1,7,9,24,11,-1034
1413,16.332593,2,6,9,20,12,-1031
1414,16.344245,1,6,8,24,12,-1020
1415,16.355899,1,6,10,20,8,-1026
1416,16.367536,1,6,10,24,11,-1027
1417,16.379218,2,5,9,21,13,-1028
1418,16.390894,2,6,9,23,12,-1022
1419,16.402538,2,5,9,27,11,-1026
1420,16.414182,2,6,10,23,10,-1023
1421,16.42587,2,6,9,25,10,-1029
1422,16.43752,2,6,9,24,9,-1031
1423,16.449174,1,6,8,24,11,-1023
1424,16.460853,1,6,8,18,13,-1029
1425,16.472497,2,7,9,21,11,-1021
1426,16.484137,1,6,9,23,11,-1020
1427,16.49569,1,6,9,24,12,-1027
1428,16.507227,2,6,9,19,10,-1025
1429,16.518774,2,6,8,23,13,-1026
1430,16.530329,2,5,9,21,14,-1024
1431,16.541937,1,6,9,21,13,-1021
1432,16.553486,2,6,9,22,9,-1023
1433,16.565052,2,6,9,24,8,-1021
1434,16.576576,1,6,9,25,10,-1025
1435,16.588117,3,6,9,22,12,-1026
1436,16.59977,2,5,9,23,15,-1023
1437,16.61144,2,6,9,21,13,-1029
1438,16.623093,2,6,9,24,9,-1021
1439,16.634738,2,5,9,22,12,-1021
1440,16.646419,2,6,9,25,13,-1023
1441,16.65808,2,7,9,23,9,-1022
1442,16.669742,2,6,9,21,11,-1026
1443,16.681396,1,6,9,25,16,-1025
1444,16.693098,2,5,9,23,11,-1027
1445,16.704757,1,5,9,24,13,-1017
1446,16.716433,2,5,9,21,10,-1023
1447,16.728081,1,6,9,21,11,-1025
1448,16.739729,2,6,9,25,8,-1019
1449,16.751374,2,5,10,23,12,-1030
1450,16.763026,2,6,9,21,12,-1026
1451,16.774732,1,6,9,19,12,-1024
1452,16.786399,1,6,8,22,12,-1029
1453,16.79805,2,6,9,23,11,-1016
1454,16.809604,1,6,9,23,9,-1019
1455,16.821176,3,6,9,23,11,-1017
1456,16.832772,1,5,9,24,9,-1027
1457,16.844324,2,5,9,21,9,-1022
1458,16.855919,2,5,9,22,14,-1022
1459,16.867472,2,6,9,23,9,-1029
1460,16.879031,2,5,9,25,12,-1024
1461,16.890626,2,5,10,23,7,-1026
1462,16.902317,2,5,9,23,11,-1029
1463,16.914003,2,6,9,22,14,-1020
1464,16.92567,2,5,9,21,14,-1024
1465,16.937363,2,6,10,24,11,-1031
1466,16.949028,2,5,9,20,13,-1024
1467,16.960716,1,5,9,17,9,-1020
1468,16.972375,2,6,9,20,14,-1021
1469,16.984022,2,5,10,20,8,-1027
1470,16.995699,2,7,9,17,12,-1021
1471,17.007373,1,5,9,23,12,-1027
1472,17.018966,2,6,9,19,9,-1024
1473,17.030522,2,5,9,22,10,-1023
1474,17.042082,2,6,9,20,12,-1032
1475,17.053671,2,6,9,22,12,-1029
1476,17.065258,2,5,9,25,15,-1023
1477,17.076823,2,6,9,26,10,-1027
1478,17.088372,1,6,9,23,12,-1025
1479,17.099934,1,6,9,17,11,-1020
1480,17.111572,1,6,9,19,11,-1033
1481,17.123234,2,5,9,25,11,-1019
1482,17.134878,2,5,9,22,12,-1023
1483,17.146558,2,5,8,24,9,-1025
1484,17.158212,2,6,9,26,11,-1024
1485,17.169868,2,6,9,23,8,-1025
1486,17.18154,1,6,9,23,9,-1024
1487,17.193234,2,6,9,23,11,-1026
1488,17.204901,2,6,9,22,10,-1024
1489,17.216579,2,7,9,22,10,-1024
1490,17.22814,1,6,9,22,12,-1025
1491,17.23971,1,5,9,20,10,-1018
1492,17.251266,2,6,8,24,7,-1023
1493,17.26281,1,6,9,19,11,-1027
1494,17.274379,2,6,9,24,11,-1021
1495,17.285925,1,5,9,24,10,-1025
1496,17.297468,2,5,9,23,12,-1019
1497,17.309058,2,6,9,20,11,-1020
1498,17.320724,2,6,8,23,9,-1024
1499,17.332377,3,6,9,22,14,-1029
1500,17.344051,1,5,9,20,11,-1025
1501,17.355693,1,5,9,21,10,-1028
1502,17.36734,1,6,9,28,9,-1033
1503,17.378979,1,6,8,19,12,-1022
1504,17.390681,1,5,8,24,10,-1025
1505,17.402327,1,6,9,22,10,-1029
1506,17.414006,1,6,9,21,12,-1020
1507,17.425675,2,6,9,25,11,-1022
1508,17.437253,2,6,9,23,11,-1025
1509,17.448815,2,5,9,18,9,-1024
1510,17.460367,2,6,9,22,16,-1022
1511,17.471914,1,6,9,23,12,-1020
1512,17.48346,2,6,9,21,10,-1023
1513,17.495014,1,6,9,24,12,-1021
1514,17.506618,2,5,9,26,9,-1021
1515,17.518182,2,6,8,23,14,-1023
1516,17.52983,2,6,8,17,8,-1021
1517,17.541496,2,5,9,24,11,-1026
1518,17.553158,2,5,10,19,11,-1025
1519,17.564837,1,5,9,18,10,-1020
1520,17.576501,1,6,10,23,10,-1019
1521,17.588147,2,6,9,27,10,-1023
1522,17.599798,2,5,9,24,11,-1030
1523,17.611444,2,5,9,23,13,-1025
1524,17.623109,2,5,8,22,15,-1033
1525,17.63479,2,5,9,23,12,-1030
1526,17.646364,2,5,8,21,11,-1023
1527,17.657918,1,6,9,24,10,-1027
1528,17.669472,2,6,9,23,12,-1020
1529,17.681045,2,5,8,18,8,-1024
1530,17.692577,2,6,9,20,10,-1030
1531,17.70412,2,7,9,21,12,-1027
1532,17.715692,1,6,9,20,9,-1025
1533,17.727254,1,6,9,17,9,-1021
1534,17.738898,1,5,10,22,12,-1029
1535,17.750554,1,5,9,24,10,-1024
1536,17.762267,1,6,9,27,13,-1027
1537,17.773925,2,5,9,25,15,-1031
1538,17.785628,2,6,9,24,8,-1024
1539,17.797287,2,5,9,20,13,-1022
1540,17.808958,1,5,10,24,10,-1021
1541,17.820626,1,6,9,21,9,-1026
1542,17.832298,2,5,9,24,15,-1024
1543,17.843947,2,6,9,20,11,-1022
1544,17.855503,1,6,8,26,10,-1027
1545,17.867092,2,6,9,24,8,-1024
1546,17.878677,2,6,10,26,11,-1024
1547,17.890225,2,5,10,22,14,-1021
1548,17.901798,1,6,8,26,10,-1026
1549,17.913354,2,5,9,27,9,-1023
1550,17.924928,2,5,9,20,12,-1023
1551,17.936483,2,6,9,18,11,-1027
1552,17.948105,2,6,9,22,9,-1022
1553,17.959765,2,6,10,21,12,-1017
1554,17.97142,1,6,9,22,13,-1028
1555,17.983069,1,6,9,20,10,-1030
1556,17.994736,2,5,9,24,10,-1021
1557,18.00639,2,6,9,20,10,-1024
1558,18.018044,2,6,9,22,15,-1030
1559,18.029692,2,5,9,22,13,-1025
1560,18.041391,1,6,10,25,8,-1027
1561,18.053074,2,6,9,23,11,-1024
1562,18.064642,2,6,10,24,7,-1027
1563,18.076212,1,6,9,21,10,-1027
1564,18.087776,2,5,9,28,9,-1026
1565,18.099338,1,6,9,20,8,-1029
1566,18.110885,2,6,9,28,10,-1022
1567,18.122495,2,6,9,24,10,-1021
1568,18.134093,2,6,9,23,12,-1026
1569,18.145689,2,6,9,22,9,-1027
1570,18.157341,2,6,9,20,12,-1025
1571,18.169015,1,5,9,21,11,-1025
1572,18.180695,2,6,9,19,11,-1026
1573,18.192392,1,5,9,23,12,-1019
1574,18.204029,2,6,10,22,15,-1028
1575,18.215677,1,6,9,20,9,-1028
1576,18.227348,1,6,9,17,12,-1023
1577,18.239003,1,6,8,22,11,-1020
1578,18.250665,1,6,9,23,12,-1030
1579,18.262331,2,5,9,22,11,-1020
1580,18.273899,2,6,9,25,8,-1031
1581,18.285459,1,6,8,21,9,-1021
1582,18.297006,2,6,9,20,7,-1026
1583,18.30857,2,6,9,20,12,-1020
1584,18.320116,2,6,9,24,11,-1021
1585,18.331694,1,5,9,23,14,-1025
1586,18.343239,2,5,9,24,13,-1030
1587,18.354824,2,5,9,24,12,-1031
1588,18.36649,1,6,9,21,8,-1027
1589,18.378145,1,6,10,25,13,-1022
1590,18.389802,2,5,9,25,11,-1022
1591,18.401482,1,6,8,23,13,-1024
1592,18.413106,2,5,9,20,13,-1029
1593,18.424759,2,5,9,25,15,-1020
1594,18.436404,2,6,9,24,12,-1033
1595,18.448048,1,6,9,25,11,-1028
1596,18.459715,1,6,9,23,15,-1022
1597,18.471267,1,6,9,18,11,-1023
1598,18.482813,1,6,9,23,13,-1030
1599,18.494377,1,6,9,23,12,-1020
1600,18.50594,1,5,9,21,13,-1026
1601,18.517496,1,5,8,23,7,-1024
1602,18.529068,1,5,9,20,8,-1028
1603,18.540588,1,6,9,21,11,-1025
1604,18.552161,2,6,9,20,14,-1022
1605,18.563721,2,6,9,21,10,-1024
1606,18.575386,2,6,10,23,10,-1025
1607,18.587055,2,6,9,21,12,-1027
1608,18.598718,1,6,9,24,11,-1027
1609,18.61037,2,5,9,20,12,-1023
1610,18.622033,2,6,9,19,10,-1022
1611,18.633722,2,5,9,24,13,-1025
1612,18.648141,2,5,9,23,14,-1026
1613,18.659858,2,5,9,23,14,-1022
1614,18.671501,2,4,9,21,10,-1025
1615,18.683062,2,6,9,24,12,-1027
1616,18.694612,2,5,9,19,13,-1022
1617,18.706182,2,6,9,20,8,-1029
1618,18.717724,2,6,9,21,9,-1026
1619,18.729291,1,5,10,25,9,-1020
1620,18.740823,2,5,9,22,12,-1024
1621,18.752389,2,6,10,24,13,-1030
1622,18.763958,2,5,9,25,12,-1020
1623,18.775596,1,6,9,19,10,-1029
1624,18.787247,2,6,9,24,12,-1024
1625,18.7989,2,5,9,23,12,-1026
1626,18.81054,2,5,9,21,12,-1030
1627,18.822211,2,5,9,19,11,-1027
1628,18.833877,1,6,9,23,12,-1022
1629,18.845526,2,6,9,24,11,-1028
1630,18.857177,2,5,9,23,15,-1025
1631,18.868863,1,6,9,27,9,-1021
1632,18.880581,2,6,10,22,12,-1027
1633,18.892203,2,6,9,24,16,-1025
1634,18.903808,1,5,9,23,11,-1028
1635,18.915401,2,5,9,20,11,-1022
1636,18.926954,2,5,9,24,13,-1024
1637,18.938538,1,5,9,22,13,-1020
1638,18.950081,1,6,8,21,11,-1026
1639,18.96168,2,6,9,18,13,-1023
1640,18.97325,2,5,9,22,12,-1027
1641,18.984863,1,5,9,28,12,-1023
1642,18.996572,2,6,9,21,12,-1025
1643,19.008232,2,6,8,20,12,-1021
1644,19.019885,1,5,9,22,10,-1022
1645,19.031551,1,6,9,17,12,-1025
1646,19.043201,2,6,9,22,10,-1024
1647,19.054858,2,6,9,24,12,-1024
1648,19.066516,1,5,9,27,14,-1026
1649,19.078161,2,6,9,23,13,-1023
1650,19.08978,1,5,9,21,13,-1023
1651,19.101497,2,4,10,20,11,-1021
1652,19.113072,1,6,9,20,9,-1028
1653,19.124664,2,6,10,22,12,-1026
1654,19.136218,2,6,9,21,13,-1023
1655,19.147771,2,5,10,22,13,-1027
1656,19.159321,1,6,9,20,10,-1022
1657,19.170865,2,6,9,25,12,-1021
1658,19.182417,2,6,9,23,5,-1024
1659,19.193969,2,5,9,22,13,-1023
1660,19.205543,2,6,8,21,13,-1024
1661,19.217137,2,6,9,19,15,-1015
1662,19.228701,2,5,9,19,10,-1020
1663,19.240271,1,5,8,24,12,-1024
1664,19.251817,1,6,9,21,10,-1024
1665,19.263404,1,6,9,24,8,-1023
1666,19.274967,2,6,9,24,12,-1025
1667,19.286645,2,6,9,21,12,-1021
1668,19.298316,1,6,9,24,10,-1027
1669,19.310002,2,6,9,21,9,-1023
1670,19.32168,2,6,9,23,13,-1029
1671,19.333346,1,5,9,23,11,-1026
1672,19.345008,2,6,9,20,8,-1023
1673,19.356706,1,5,9,21,11,-1025
1674,19.368381,2,5,9,22,13,-1030
1675,19.380049,1,5,9,20,13,-1018
1676,19.391778,1,5,10,21,13,-1027
1677,19.403474,2,5,10,21,12,-1027
1678,19.415037,2,6,9,20,10,-1021
1679,19.42661,2,4,9,19,10,-1023
1680,19.438189,2,6,9,23,12,-1027
1681,19.449778,2,6,9,22,13,-1027
1682,19.461373,2,5,9,20,6,-1028
1683,19.472945,2,5,9,25,11,-1022
1684,19.484532,2,6,9,25,10,-1023
1685,19.496077,2,6,10,24,16,-1023
1686,19.50764,2,5,10,23,11,-1027
1687,19.519182,2,6,9,23,8,-1032
1688,19.530731,2,5,9,22,9,-1023
1689,19.542273,2,5,10,23,12,-1024
1690,19.55385,2,5,9,20,10,-1019
1691,19.56545,1,6,9,19,14,-1022
1692,19.577042,2,5,9,24,11,-1020
1693,19.588633,2,6,9,25,11,-1024
1694,19.600352,1,6,8,26,12,-1030
1695,19.612047,1,6,9,18,10,-1014
1696,19.623707,1,6,8,25,12,-1025
1697,19.635428,2,5,9,24,11,-1022
1698,19.647088,2,6,9,19,7,-1026
1699,19.658733,1,6,9,20,15,-1023
1700,19.670403,1,6,9,22,14,-1030
1701,19.682059,2,6,9,27,14,-1025
1702,19.693785,2,6,9,24,10,-1028
1703,19.705348,1,6,9,26,9,-1027
1704,19.716904,2,6,9,20,14,-1029
1705,19.728498,2,5,9,24,13,-1027
1706,19.740052,2,5,9,21,15,-1025
1707,19.751625,2,6,10,25,10,-1021
1708,19.763166,2,5,9,21,11,-1029
1709,19.774718,2,6,9,21,11,-1020
1710,19.786264,2,6,9,19,11,-1025
1711,19.797873,2,5,9,27,10,-1028
1712,19.809629,1,5,9,21,14,-1031
1713,19.821303,2,6,9,22,10,-1025
1714,19.832978,2,5,9,24,10,-1023
1715,19.844657,2,6,9,20,8,-1024
1716,19.856345,1,5,9,26,12,-1019
1717,19.868041,2,6,8,23,11,-1024
1718,19.879685,2,5,8,26,12,-1019
1719,19.891357,2,6,9,21,11,-1024
1720,19.903057,1,5,9,22,14,-1022
1721,19.914631,2,6,9,24,8,-1024
1722,19.926216,2,5,9,21,11,-1021
1723,19.937779,2,6,9,23,9,-1026
1724,19.949303,1,6,8,24,11,-1025
1725,19.960818,1,6,8,23,12,-1029
1726,19.972363,2,6,9,22,12,-1031
1727,19.983905,1,6,9,24,14,-1028
1728,19.995454,1,5,9,24,10,-1027
1729,20.007201,1,5,9,24,11,-1020
1730,20.018966,2,5,9,20,7,-1025
1731,20.030655,2,6,10,19,12,-1025
1732,20.042314,1,5,8,24,9,-1020
1733,20.054007,1,6,9,19,11,-1020
1734,20.06567,2,6,9,22,8,-1024
1735,20.07736,2,5,9,22,12,-1025
1736,20.08902,2,5,9,24,12,-1028
1737,20.100698,1,6,9,23,14,-1022
1738,20.112295,2,6,9,24,11,-1029
1739,20.123858,1,6,9,16,12,-1031
1740,20.135403,1,5,8,25,10,-1025
1741,20.146948,2,5,8,27,8,-1028
1742,20.158493,2,6,9,21,8,-1027
1743,20.170067,2,5,9,24,11,-1026
1744,20.18162,1,5,9,22,9,-1021
1745,20.19318,2,5,9,22,13,-1023
1746,20.204778,2,6,9,22,12,-1024
1747,20.216507,2,5,8,22,8,-1023
1748,20.228161,2,5,9,22,14,-1029
1749,20.239821,2,6,10,24,9,-1026
1750,20.251486,1,6,9,25,10,-1023
1751,20.263154,2,6,9,24,12,-1022
1752,20.274803,1,6,9,23,16,-1025
1753,20.28645,2,6,8,21,12,-1027
1754,20.298171,1,6,9,24,10,-1024
1755,20.309869,1,5,9,20,17,-1027
1756,20.321435,1,6,8,22,13,-1023
1757,20.332997,1,6,9,20,11,-1022
1758,20.344637,2,5,9,23,6,-1027
1759,20.356218,2,7,9,26,11,-1020
1760,20.367772,2,6,9,24,12,-1027
1761,20.37935,1,6,9,19,10,-1028
1762,20.390892,2,6,9,19,14,-1017
1763,20.40245,1,5,9,21,10,-1024
1764,20.414157,2,5,9,27,14,-1027
1765,20.425923,2,6,9,21,12,-1028
1766,20.437631,1,5,10,20,8,-1022
1767,20.449292,2,6,8,23,12,-1028
1768,20.46098,0,6,9,22,8,-1024
1769,20.472652,2,6,9,24,13,-1022
1770,20.48431,2,6,9,20,16,-1017
1771,20.496006,1,5,9,24,13,-1024
1772,20.507672,2,6,9,21,13,-1026
1773,20.519392,1,6,9,23,11,-1023
1774,20.530959,1,6,10,23,11,-1026
1775,20.542507,2,6,9,21,11,-1029
1776,20.554069,2,6,9,27,14,-1031
1777,20.565627,1,6,9,22,12,-1021
1778,20.5772,1,6,9,23,12,-1028
1779,20.588757,2,6,9,23,11,-1030
1780,20.600328,1,6,9,19,12,-1020
1781,20.611875,1,6,9,26,9,-1020
1782,20.623605,1,6,9,21,12,-1022
1783,20.635276,1,5,9,22,14,-1021
1784,20.646938,1,6,9,24,12,-1028
1785,20.658629,2,6,10,24,18,-1021
1786,20.670288,2,5,9,23,11,-1025
1787,20.681947,1,5,9,24,11,-1029
1788,20.693615,1,6,9,19,12,-1030
1789,20.705288,1,6,9,17,13,-1025
1790,20.716969,1,5,10,20,11,-1024
1791,20.72858,2,5,9,24,13,-1021
1792,20.740192,1,6,9,22,12,-1029
1793,20.751779,1,6,9,21,11,-1022
1794,20.763322,1,6,9,20,10,-1026
1795,20.774865,2,6,9,20,9,-1026
1796,20.786409,1,5,8,23,7,-1022
1797,20.797964,1,6,8,24,10,-1016
1798,20.809556,2,5,9,27,10,-1022
1799,20.821127,2,6,10,19,13,-1023
1800,20.832766,2,6,9,22,10,-1020
1801,20.844466,2,6,9,27,11,-1023
1802,20.856115,3,5,10,22,13,-1027
1803,20.867776,2,5,9,26,11,-1025
1804,20.879471,1,5,9,22,12,-1023
1805,20.891121,1,5,9,26,13,-1029
1806,20.902775,1,6,9,20,12,-1021
1807,20.914421,2,6,10,26,16,-1024
1808,20.926133,1,7,9,24,12,-1019
1809,20.937813,1,6,9,22,15,-1024
1810,20.949378,2,6,9,23,16,-1025
1811,20.960938,2,6,9,26,15,-1020
1812,20.972508,2,6,9,21,9,-1023
1813,20.984062,2,6,9,22,8,-1023
1814,20.995608,2,6,9,24,8,-1032
1815,21.007172,1,5,9,21,11,-1027
1816,21.018709,2,4,10,20,13,-1027
1817,21.030259,1,6,10,20,8,-1024
1818,21.041967,2,6,9,23,8,-1024
1819,21.05361,2,7,9,25,9,-1028
1820,21.065269,1,6,8,26,13,-1025
1821,21.076976,1,5,9,22,13,-1027
1822,21.088589,2,6,9,25,11,-1024
1823,21.100247,2,5,9,23,11,-1024
1824,21.111976,2,6,9,20,11,-1022
1825,21.123848,2,5,10,20,10,-1030
1826,21.135591,2,5,9,17,12,-1025
1827,21.147178,1,5,9,23,13,-1024
1828,21.158768,1,6,9,20,10,-1018
1829,21.17032,1,6,9,23,9,-1026
1830,21.181921,1,6,9,21,12,-1023
1831,21.193474,2,5,9,26,11,-1031
1832,21.205056,2,6,9,24,15,-1027
1833,21.216642,1,6,9,24,10,-1024
1834,21.228256,1,5,9,23,15,-1018
1835,21.239911,2,6,9,24,12,-1025
1836,21.251597,2,5,9,24,13,-1025
1837,21.263256,2,6,9,21,12,-1017
1838,21.274938,1,5,9,21,10,-1024
1839,21.286602,1,6,8,24,9,-1026
1840,21.298256,2,6,9,25,15,-1027
1841,21.309962,2,6,9,22,14,-1023
1842,21.321616,2,6,9,21,12,-1026
1843,21.333312,1,5,9,20,13,-1025
1844,21.345035,2,6,10,24,13,-1018
1845,21.356578,1,6,10,24,12,-1016
1846,21.368153,2,7,9,21,10,-1015
1847,21.379695,2,5,9,22,14,-1024
1848,21.391233,1,6,8,23,13,-1026
1849,21.402778,2,6,9,21,13,-1023
1850,21.41432,1,6,9,24,10,-1024
1851,21.425865,2,5,9,24,11,-1029
1852,21.437447,2,5,10,21,11,-1026
1853,21.449169,2,6,9,24,14,-1021
1854,21.460838,2,6,9,27,15,-1026
1855,21.47249,2,6,9,21,12,-1022
1856,21.484208,1,5,9,25,12,-1029
1857,21.495851,2,6,9,23,10,-1024
1858,21.507499,1,5,9,21,11,-1029
1859,21.519168,2,6,9,18,9,-1026
1860,21.530825,2,6,9,24,14,-1024
1861,21.542499,2,6,9,22,10,-1029
1862,21.554049,2,6,9,26,8,-1024
1863,21.5656,1,6,9,24,10,-1022
1864,21.577189,2,6,9,24,13,-1029
1865,21.588744,2,6,9,22,9,-1021
1866,21.600302,1,6,9,24,10,-1019
1867,21.611904,1,6,10,23,10,-1033
1868,21.623458,1,6,8,24,9,-1027
1869,21.635021,2,5,9,21,11,-1020
1870,21.64671,1,5,9,23,12,-1026
1871,21.658486,2,5,9,22,12,-1028
1872,21.670163,2,6,10,21,11,-1026
1873,21.681809,1,6,9,25,9,-1022
1874,21.693488,2,5,9,24,14,-1024
1875,21.705183,2,6,9,24,11,-1030
1876,21.716848,2,5,9,21,13,-1030
1877,21.728509,1,5,9,21,9,-1024
1878,21.740166,1,5,9,25,10,-1022
1879,21.751777,1,6,9,24,13,-1029
1880,21.763317,2,6,9,23,14,-1021
1881,21.774858,1,7,8,26,11,-1024
1882,21.786404,2,7,9,18,10,-1026
1883,21.797949,2,6,9,22,8,-1025
1884,21.809529,2,6,9,22,12,-1025
1885,21.821117,2,6,9,23,14,-1023
1886,21.832714,1,6,8,24,10,-1029
1887,21.844276,1,6,9,25,9,-1024
1888,21.855917,1,6,9,22,14,-1022
1889,21.867567,1,6,8,24,11,-1026
1890,21.879222,2,7,8,24,13,-1028
1891,21.890901,2,5,9,19,10,-1026
1892,21.902564,2,6,9,21,11,-1020
1893,21.914214,2,6,9,21,8,-1026
1894,21.925916,1,6,9,21,7,-1024
1895,21.937602,2,6,9,21,12,-1029
1896,21.949297,2,6,9,22,8,-1023
1897,21.961031,2,5,10,21,6,-1031
1898,21.97258,2,6,9,20,11,-1026
1899,21.98414,2,5,9,22,8,-1025
1900,21.995694,2,6,9,20,12,-1022
1901,22.007261,2,6,10,22,10,-1025
1902,22.018857,2,5,8,26,11,-1023
1903,22.030409,2,6,9,24,10,-1025
1904,22.041997,1,6,9,24,7,-1019
1905,22.053562,1,5,8,22,10,-1027
1906,22.065194,2,6,8,20,13,-1023
1907,22.076755,1,6,9,29,11,-1022
1908,22.088363,1,6,9,24,7,-1021
1909,22.099913,2,6,9,26,6,-1020
1910,22.111482,2,5,8,24,10,-1020
1911,22.123031,1,5,9,20,9,-1023
1912,22.134604,2,6,9,24,10,-1022
1913,22.146143,2,6,9,21,11,-1025
1914,22.157721,2,5,9,20,15,-1022
1915,22.16929,1,5,9,26,10,-1024
1916,22.180816,2,6,9,20,14,-1031
1917,22.192358,2,5,9,27,9,-1030
1918,22.203903,2,5,9,22,14,-1026
1919,22.215477,2,5,8,26,15,-1025
1920,22.227085,2,6,9,21,9,-1020
1921,22.238632,1,6,9,22,9,-1019
1922,22.250207,1,6,9,21,14,-1028
1923,22.261864,2,6,9,25,12,-1020
1924,22.27351,1,6,9,24,11,-1026
1925,22.285185,2,6,8,17,12,-1024
1926,22.296866,2,6,8,24,13,-1029
1927,22.308566,2,5,8,24,11,-1026
1928,22.320246,2,5,9,22,13,-1024
1929,22.33192,2,6,9,22,12,-1022
1930,22.343564,2,6,9,19,12,-1028
1931,22.355214,2,5,9,23,13,-1025
1932,22.366905,1,5,9,23,15,-1020
1933,22.378555,2,5,10,24,12,-1026
1934,22.390105,2,5,9,18,11,-1024
1935,22.401674,2,6,9,24,14,-1023
1936,22.413234,2,5,10,22,11,-1019
1937,22.424816,2,6,9,24,9,-1026
1938,22.43636,2,6,8,23,12,-1029
1939,22.447914,2,5,9,23,13,-1023
1940,22.459473,2,6,8,22,10,-1018
1941,22.471029,1,5,9,20,10,-1025
1942,22.482653,2,5,9,21,10,-1024
1943,22.494306,2,6,9,23,12,-1023
1944,22.50598,1,6,9,21,12,-1017
1945,22.517631,1,5,9,23,10,-1024
1946,22.529289,2,6,9,25,14,-1022
1947,22.540962,2,5,9,23,12,-1022
1948,22.552587,1,5,9,22,9,-1025
1949,22.564254,2,5,10,22,10,-1031
1950,22.575924,2,6,9,23,10,-1021
1951,22.587591,2,6,9,24,10,-1027
1952,22.599221,1,5,8,18,13,-1028
1953,22.610781,1,6,8,24,4,-1028
1954,22.622346,1,5,9,21,14,-1022
1955,22.633915,2,6,9,22,8,-1021
1956,22.645482,1,5,8,23,10,-1023
1957,22.657064,2,6,9,25,12,-1031
1958,22.668583,2,5,9,23,10,-1019
1959,22.680152,2,5,9,22,11,-1022
1960,22.69181,1,5,9,25,12,-1023
1961,22.703472,1,5,9,27,13,-1027
1962,22.715127,2,5,9,24,10,-1019
1963,22.726785,1,6,9,23,7,-1025
1964,22.738429,1,6,10,25,9,-1022
1965,22.750128,2,6,10,17,14,-1026
1966,22.761791,1,6,9,24,9,-1022
1967,22.773493,2,5,8,20,14,-1023
1968,22.785141,2,5,8,23,12,-1019
1969,22.796712,2,5,8,21,12,-1023
1970,22.808261,2,6,10,21,11,-1025
1971,22.819838,2,5,10,23,15,-1034
1972,22.83138,2,6,9,23,13,-1025
1973,22.84292,2,6,9,21,9,-1022
1974,22.854494,1,6,9,24,9,-1025
1975,22.86604,1,6,9,22,14,-1028
1976,22.877606,2,6,9,20,11,-1027
1977,22.889212,1,5,9,21,11,-1024
1978,22.900896,2,6,9,22,9,-1026
1979,22.912585,2,6,9,21,9,-1029
1980,22.924249,2,6,9,24,9,-1022
1981,22.935892,1,6,10,21,7,-1031
1982,22.947543,2,5,9,22,11,-1024
1983,22.959212,2,6,9,18,9,-1024
1984,22.9709,1,6,9,26,11,-1024
1985,22.98256,1,6,9,21,11,-1020
1986,22.994234,2,6,9,20,12,-1022
1987,23.00588,2,6,9,23,13,-1025
1988,23.017543,2,6,9,23,8,-1027
1989,23.029227,1,6,9,20,13,-1026
1990,23.040853,1,6,9,20,12,-1025
1991,23.052505,1,6,9,23,15,-1028
1992,23.064151,1,5,9,26,11,-1024
1993,23.075819,1,6,9,23,13,-1028
1994,23.087609,2,6,9,25,11,-1031
1995,23.099267,2,6,9,20,15,-1025
1996,23.11083,1,6,10,21,13,-1027
1997,23.122414,2,5,9,23,12,-1027
1998,23.133969,2,6,9,22,13,-1030
1999,23.145579,2,6,8,20,9,-1023
