sample,t_s,gyro_x,gyro_y,gyro_z,accel_x,accel_y,accel_z
0,2e-05,0,-1,0,-1,-4,-1025
1,0.011809,-1,-1,-1,2,-3,-1030
2,0.02349,0,0,0,1,-3,-1028
3,0.035186,0,-1,0,-2,-2,-1020
4,0.046866,-1,0,0,2,0,-1027
5,0.058616,0,0,0,0,4,-1029
6,0.070323,0,0,-1,2,-1,-1024
7,0.081973,-1,0,0,2,0,-1022
8,0.093624,-1,-1,-1,0,5,-1021
9,0.105299,-1,0,0,2,0,-1025
10,0.116951,-1,0,-1,2,3,-1027
11,0.128631,-1,-1,0,2,2,-1030
12,0.140339,0,-1,0,2,-4,-1021
13,0.152085,-1,0,0,-2,-3,-1024
14,0.163655,-1,0,-1,2,0,-1026
15,0.175237,-1,-1,1,3,1,-1028
16,0.186786,-1,0,0,4,-3,-1020
17,0.198357,0,-1,1,-1,1,-1026
18,0.209964,-1,-1,0,-2,2,-1023
19,0.22153,-1,-1,0,2,-4,-1022
20,0.233098,0,-1,0,2,3,-1020
21,0.244664,0,0,0,2,-3,-1025
22,0.256217,0,0,0,3,2,-1024
23,0.267765,0,0,-1,3,1,-1026
24,0.279338,1,0,-1,1,4,-1024
25,0.290894,-1,-1,0,0,-3,-1033
26,0.302444,0,0,0,3,0,-1030
27,0.314007,-1,-1,0,-1,4,-1024
28,0.325546,0,-1,0,-2,1,-1021
29,0.337097,1,-1,0,2,2,-1020
30,0.348661,0,-1,1,4,0,-1024
31,0.360373,0,0,0,4,0,-1024
32,0.372064,0,0,-1,1,4,-1025
33,0.383747,0,0,1,2,1,-1027
34,0.395425,0,-1,0,0,-1,-1026
35,0.407134,0,0,0,2,-2,-1028
36,0.418833,0,0,-1,-1,0,-1027
37,0.430507,0,0,0,0,-1,-1027
38,0.442176,-1,0,0,2,0,-1026
39,0.453827,0,0,0,1,2,-1022
40,0.465502,0,-1,0,-2,-1,-1024
41,0.47718,0,0,1,1,1,-1019
42,0.488847,0,-1,0,0,-1,-1028
43,0.500542,0,0,0,2,-1,-1024
44,0.512287,0,-1,1,3,2,-1024
45,0.523943,0,0,0,-1,3,-1018
46,0.535615,0,-1,0,3,-3,-1018
47,0.547307,0,-1,0,1,-1,-1018
48,0.558976,-1,0,0,4,1,-1025
49,0.570678,0,0,0,-2,-1,-1026
50,0.582252,0,0,0,-2,-1,-1032
51,0.593797,-1,0,-1,-3,0,-1019
52,0.605371,-1,0,0,1,3,-1021
53,0.617009,0,1,0,-1,-2,-1026
54,0.628579,0,-1,0,-1,2,-1025
55,0.640136,0,0,0,-4,5,-1027
56,0.651723,1,-1,0,-2,4,-1027
57,0.663499,0,0,-1,2,1,-1029
58,0.675143,0,0,0,1,-3,-1022
59,0.686751,0,-1,0,0,3,-1027
60,0.698307,1,0,1,2,2,-1022
61,0.709855,0,0,0,0,1,-1027
62,0.721402,0,0,1,1,0,-1020
63,0.732983,-1,-1,0,3,-1,-1022
64,0.744552,-1,0,0,0,3,-1024
65,0.756086,0,-1,0,1,2,-1027
66,0.767658,-1,0,0,-5,-1,-1026
67,0.779332,-1,0,1,2,0,-1026
68,0.791015,0,-1,-1,-2,0,-1024
69,0.802667,-1,0,0,-3,0,-1025
70,0.814319,-1,-1,0,-3,2,-1017
71,0.825975,-1,-1,0,3,0,-1023
72,0.83765,0,0,0,-1,-3,-1019
73,0.849297,-1,-1,0,-1,1,-1024
74,0.860947,0,-1,0,-2,-1,-1020
75,0.872651,0,0,0,1,-1,-1029
76,0.884296,-1,0,0,2,1,-1025
77,0.895989,1,0,0,1,0,-1025
78,0.907736,0,-1,0,2,2,-1024
79,0.919335,0,0,0,2,0,-1027
80,0.930885,-1,-1,1,2,3,-1022
81,0.942468,0,0,0,-2,2,-1020
82,0.954007,0,0,0,0,3,-1027
83,0.965562,-1,0,-1,1,4,-1022
84,0.977134,0,0,0,0,0,-1025
85,0.988766,0,-1,1,1,-2,-1028
86,1.000356,-1,0,0,-1,2,-1030
87,1.011911,0,0,-1,0,3,-1032
88,1.02346,0,0,0,-1,1,-1025
89,1.035012,0,0,-1,2,-2,-1026
90,1.04658,0,0,-1,2,2,-1020
91,1.058138,0,-1,0,3,-3,-1026
92,1.06971,-1,0,0,1,1,-1022
93,1.081279,-1,0,0,0,3,-1025
94,1.092941,0,0,0,-2,0,-1028
95,1.104645,0,0,1,2,3,-1019
96,1.116311,-1,0,1,1,4,-1022
97,1.127996,0,0,0,-4,-1,-1020
98,1.139665,0,0,0,2,2,-1022
99,1.151314,0,-1,0,-1,2,-1024
100,1.162987,-1,-1,-1,-5,-2,-1023
101,1.174642,-1,-1,-1,-1,5,-1030
102,1.186362,-1,-1,0,-2,1,-1027
103,1.198022,0,0,0,-2,2,-1032
104,1.209579,0,0,0,1,-1,-1030
105,1.221159,1,0,0,1,1,-1027
106,1.232869,0,0,0,-1,-3,-1026
107,1.244469,0,-1,0,-3,1,-1025
108,1.256087,0,-1,-1,-1,4,-1026
109,1.267699,-1,-1,0,1,3,-1025
110,1.279253,-1,0,1,1,2,-1023
111,1.29085,-1,0,0,0,1,-1021
112,1.302396,0,0,-1,4,2,-1019
113,1.313943,0,-1,0,-3,2,-1023
114,1.32551,0,0,-1,-1,-4,-1024
115,1.337066,0,-1,0,-2,0,-1022
116,1.348625,0,0,0,0,2,-1027
117,1.360227,0,1,0,5,-2,-1028
118,1.371828,1,0,1,-5,1,-1022
119,1.383369,1,0,0,2,-1,-1025
120,1.394931,-1,0,0,0,-1,-1026
121,1.406623,-1,-1,0,2,0,-1019
122,1.418278,0,0,0,-4,4,-1028
123,1.429937,0,1,0,-3,-5,-1028
124,1.441647,0,0,0,-4,-2,-1031
125,1.453312,0,0,0,2,0,-1027
126,1.464977,0,0,0,-2,-1,-1025
127,1.47664,-1,0,0,1,0,-1027
128,1.488288,0,0,1,-1,2,-1029
129,1.499972,0,0,1,2,-1,-1017
130,1.511736,0,-1,0,3,0,-1028
131,1.523307,0,0,0,-2,0,-1022
132,1.534864,-1,-1,-1,2,1,-1031
133,1.546457,-1,-1,-1,-2,-2,-1021
134,1.558008,0,0,-1,1,0,-1028
135,1.569567,0,0,-1,-1,0,-1021
136,1.581107,-1,0,0,3,2,-1028
137,1.59268,-1,0,0,3,-3,-1028
138,1.604248,-1,-1,0,0,-3,-1025
139,1.615877,-1,-1,0,2,-1,-1021
140,1.627549,-1,0,0,3,-5,-1020
141,1.639206,0,0,0,1,0,-1019
142,1.650873,0,-1,-1,-2,2,-1027
143,1.662529,0,0,0,3,4,-1025
144,1.674176,0,0,0,0,0,-1024
145,1.685822,-1,0,-1,0,1,-1022
146,1.697515,0,-1,0,0,5,-1022
147,1.709173,0,-1,0,3,-1,-1026
148,1.720843,0,-1,0,-2,2,-1024
149,1.732465,0,0,0,0,2,-1028
150,1.744017,0,0,0,1,-1,-1028
151,1.755593,0,1,0,1,5,-1025
152,1.767177,-1,-1,0,-2,-2,-1028
153,1.778715,-1,-1,0,-1,1,-1021
154,1.790252,0,0,0,0,-2,-1026
155,1.801794,1,0,-1,-1,2,-1025
156,1.813352,-1,-1,0,-2,1,-1032
157,1.825018,0,-1,0,-1,-4,-1028
158,1.836705,0,0,-1,0,-4,-1030
159,1.848379,0,0,0,-2,0,-1023
160,1.860059,-1,0,0,1,0,-1026
161,1.871746,-1,-1,0,7,2,-1025
162,1.883394,-1,0,0,-1,1,-1027
163,1.895059,0,0,0,1,-4,-1023
164,1.906721,1,0,0,2,-3,-1022
165,1.918371,0,-1,0,2,-1,-1026
166,1.92999,0,0,0,2,6,-1031
167,1.941546,-1,-1,0,-1,-2,-1024
168,1.953093,0,0,-1,0,3,-1029
169,1.964689,0,-1,0,2,-2,-1026
170,1.976278,0,0,0,-2,4,-1027
171,1.987842,0,-1,0,-1,-2,-1023
172,1.999414,0,-1,-1,-2,-4,-1024
173,2.010965,-1,0,-1,-2,0,-1023
174,2.022549,-1,0,0,2,-1,-1024
175,2.034198,0,0,-1,-1,-2,-1022
176,2.045855,0,0,0,1,-2,-1019
177,2.057502,0,-1,-1,2,2,-1027
178,2.069149,0,0,1,4,-3,-1026
179,2.080823,0,0,0,0,-1,-1028
180,2.092504,0,0,0,5,5,-1027
181,2.104127,-1,0,-1,0,5,-1023
182,2.11579,-1,0,0,-1,-1,-1020
183,2.127465,0,0,1,2,0,-1032
184,2.139125,-1,0,1,2,-3,-1025
185,2.150687,-1,0,0,-4,3,-1020
186,2.162241,0,0,0,-2,-2,-1025
187,2.17379,-1,-1,0,-1,0,-1026
188,2.185355,0,-1,1,-3,1,-1026
189,2.196928,0,0,0,0,3,-1028
190,2.208507,0,0,0,2,3,-1024
191,2.220082,0,0,-1,0,4,-1027
192,2.231613,0,0,0,0,1,-1018
193,2.243251,0,0,0,-1,-2,-1024
194,2.254926,-1,0,0,1,0,-1022
195,2.266592,0,0,0,2,-4,-1020
196,2.27824,0,0,0,-2,-1,-1023
197,2.289888,-1,0,0,-1,3,-1021
198,2.301558,-1,-1,0,0,1,-1021
199,2.313206,0,-1,-1,2,3,-1029
200,2.324927,-1,0,0,2,2,-1031
201,2.336621,-1,0,0,1,1,-1022
202,2.348294,-1,0,0,-3,6,-1022
203,2.359979,0,0,-1,-1,-1,-1017
204,2.37161,0,-1,-1,5,-2,-1022
205,2.383262,0,0,-1,-2,-7,-1023
206,2.394956,-1,-1,-1,0,-3,-1028
207,2.406594,0,0,-1,-2,0,-1030
208,2.418242,0,-1,0,-4,0,-1022
209,2.429915,0,-1,1,-2,0,-1029
210,2.441575,0,-1,0,-2,0,-1029
211,2.45315,0,0,0,1,1,-1025
212,2.464711,0,0,0,1,4,-1028
213,2.476281,0,-1,0,3,-2,-1022
214,2.487843,0,0,0,0,-1,-1029
215,2.499396,0,0,0,5,2,-1020
216,2.510956,0,0,0,-7,-2,-1023
217,2.522522,-1,-1,0,3,1,-1031
218,2.534067,0,1,0,2,-2,-1026
219,2.545618,0,-1,0,-2,1,-1027
220,2.557303,-1,-1,0,3,-2,-1028
221,2.568973,0,0,1,0,0,-1027
222,2.580681,-1,0,0,-1,3,-1020
223,2.592359,0,0,-1,-1,-1,-1031
224,2.604031,0,-1,0,-2,1,-1028
225,2.615727,-1,0,1,1,1,-1023
226,2.627375,-1,0,0,2,-4,-1026
227,2.639071,-1,-1,1,2,-2,-1021
228,2.65075,-1,-1,0,1,1,-1033
229,2.66232,0,-1,0,-1,-3,-1025
230,2.67387,-1,-1,0,3,1,-1025
231,2.685422,-1,-1,0,0,3,-1027
232,2.69703,0,-1,0,-1,1,-1027
233,2.708555,-1,0,0,-3,-1,-1028
234,2.720084,0,0,0,-1,-2,-1026
235,2.731641,-1,0,0,5,0,-1022
236,2.743219,-1,0,0,-4,0,-1026
237,2.754837,0,0,-1,1,-1,-1027
238,2.766504,0,-1,-1,2,1,-1027
239,2.778169,0,0,-1,-4,0,-1027
240,2.78982,1,-1,0,3,-4,-1024
241,2.801537,0,0,-1,2,2,-1030
242,2.813318,0,-1,0,3,2,-1026
243,2.825031,0,0,-1,-1,0,-1023
244,2.836688,0,0,-1,1,3,-1026
245,2.848397,0,0,0,7,2,-1028
246,2.860119,0,0,0,-3,1,-1024
247,2.871702,0,0,0,5,-2,-1017
248,2.883256,-1,0,1,1,0,-1021
249,2.894858,0,0,-1,-6,0,-1026
250,2.906411,-1,0,0,0,1,-1024
251,2.917983,0,-1,1,-1,-3,-1026
252,2.929522,0,0,0,1,3,-1023
253,2.941069,-1,0,0,0,0,-1023
254,2.952643,0,-1,0,3,-1,-1029
255,2.964316,0,0,0,2,1,-1024
256,2.976007,-1,0,0,3,0,-1025
257,2.987673,-1,-1,0,0,-1,-1026
258,2.999335,0,0,0,3,-4,-1026
259,3.010979,-1,0,-1,2,-2,-1020
260,3.022628,0,0,-1,5,-1,-1027
261,3.034293,0,0,0,0,-2,-1029
262,3.046,0,0,0,5,1,-1028
263,3.057662,0,-1,0,2,-3,-1029
264,3.06933,0,-1,0,0,0,-1026
265,3.08104,0,0,0,2,-1,-1028
266,3.092695,0,-1,0,0,4,-1021
267,3.10437,-1,-1,0,2,1,-1023
268,3.116049,-1,0,0,-1,-2,-1021
269,3.127695,0,-1,-1,0,-1,-1023
270,3.139343,0,1,0,0,-3,-1026
271,3.151014,0,-1,0,-2,-2,-1023
272,3.162683,-1,-1,0,1,1,-1022
273,3.174367,-1,-1,0,2,2,-1028
274,3.185931,0,-1,0,1,1,-1027
275,3.197509,0,0,-1,1,2,-1021
276,3.209052,-1,0,-1,3,3,-1029
277,3.220608,-1,0,-1,5,1,-1029
278,3.232159,-1,-1,-1,2,3,-1024
279,3.243723,-1,-1,0,3,2,-1024
280,3.255273,0,0,0,-1,0,-1026
281,3.266874,0,0,0,2,1,-1025
282,3.278533,-1,1,0,2,0,-1025
283,3.290189,0,0,0,1,2,-1024
284,3.301854,0,-1,0,3,0,-1024
285,3.313517,-1,-1,0,0,-5,-1024
286,3.325165,-1,0,0,-2,-2,-1022
287,3.336826,-1,0,0,0,-1,-1025
288,3.348515,-1,0,1,1,-1,-1029
289,3.360174,-1,-1,0,4,-3,-1027
290,3.371858,-1,0,1,-1,1,-1025
291,3.383427,0,-1,0,-1,3,-1029
292,3.394979,-1,0,0,-1,4,-1028
293,3.406554,-1,0,0,-4,-1,-1023
294,3.41812,-1,0,-1,1,4,-1021
295,3.429688,-1,0,1,1,-2,-1024
296,3.441257,0,-1,0,0,0,-1023
297,3.452809,0,-1,0,3,-1,-1025
298,3.464329,0,0,0,-2,4,-1028
299,3.475858,0,0,0,2,2,-1019
300,3.4875,0,0,0,-1,0,-1020
301,3.499158,-1,0,1,0,-3,-1025
302,3.51081,0,0,0,-1,4,-1024
303,3.522466,-1,0,0,1,-3,-1020
304,3.534135,0,0,0,5,0,-1024
305,3.545784,0,0,0,-3,-4,-1021
306,3.557437,0,0,0,-1,-1,-1024
307,3.569116,-1,0,-1,-1,2,-1027
308,3.580788,-1,0,1,4,1,-1030
309,3.592497,-1,-1,1,2,4,-1018
310,3.604098,-1,0,0,0,1,-1023
311,3.615641,0,-1,0,-1,-1,-1024
312,3.627185,0,0,-1,-1,2,-1026
313,3.638732,0,-1,0,3,-4,-1024
314,3.650273,-1,0,1,-2,-1,-1026
315,3.661816,0,0,0,2,2,-1026
316,3.673356,0,0,0,3,1,-1029
317,3.684963,-1,0,0,-1,2,-1027
318,3.696629,0,-1,-1,-1,0,-1017
319,3.708293,-1,0,0,1,-3,-1021
320,3.719938,-1,0,1,1,1,-1028
321,3.731602,0,0,0,2,1,-1026
322,3.743265,-1,-1,1,-3,0,-1027
323,3.754913,0,0,0,-2,0,-1023
324,3.766574,0,0,0,5,5,-1031
325,3.778226,0,0,-1,4,-1,-1023
326,3.789871,-1,0,0,2,-2,-1026
327,3.801427,0,0,0,2,0,-1028
328,3.813002,0,0,0,1,-1,-1020
329,3.824577,0,0,0,-1,2,-1024
330,3.836125,0,0,0,2,0,-1027
331,3.847671,-1,-1,0,0,-2,-1027
332,3.859216,0,-1,0,1,0,-1024
333,3.87076,-1,0,0,2,2,-1029
334,3.882319,0,0,0,2,-2,-1019
335,3.893961,0,0,-1,4,1,-1022
336,3.90564,0,0,0,-4,2,-1028
337,3.917301,0,0,0,-2,1,-1031
338,3.928963,0,0,-1,2,0,-1022
339,3.940633,-1,0,0,0,-2,-1026
340,3.952293,0,-1,0,3,7,-1033
341,3.963947,0,0,0,-2,3,-1025
342,3.975617,0,0,0,2,-4,-1020
343,3.987268,0,0,0,-1,3,-1020
344,3.998911,0,0,0,-2,2,-1021
345,4.010466,-1,0,0,-3,0,-1028
346,4.022059,-1,-1,0,0,-3,-1024
347,4.033606,0,0,-1,1,3,-1023
348,4.04516,0,0,0,3,1,-1023
349,4.056711,0,-1,0,1,1,-1026
350,4.068319,0,0,0,1,-1,-1024
351,4.079845,-1,0,0,1,4,-1022
352,4.09144,0,0,0,0,-1,-1029
353,4.103158,-1,-1,0,1,0,-1025
354,4.114854,0,0,0,-2,3,-1023
355,4.126509,-1,0,0,1,-1,-1022
356,4.138151,0,0,0,-1,1,-1030
357,4.149797,-1,0,1,-1,0,-1023
358,4.161468,0,0,0,-1,2,-1023
359,4.173147,-1,-1,-1,-3,0,-1023
360,4.184837,0,-1,0,2,3,-1024
361,4.196527,0,0,1,-1,3,-1024
362,4.208208,0,0,0,0,-5,-1019
363,4.219774,0,0,0,1,1,-1019
364,4.231331,0,0,-1,3,5,-1023
365,4.2429,-1,0,-1,4,-2,-1025
366,4.254458,-1,-1,-1,-2,-2,-1021
367,4.266033,-1,0,0,-1,2,-1027
368,4.277585,0,-1,0,2,-3,-1026
369,4.289215,0,1,1,-6,-2,-1025
370,4.300971,0,0,0,-2,-1,-1029
371,4.312652,0,-1,0,2,-1,-1030
372,4.324386,-1,-1,1,-1,-4,-1021
373,4.336073,0,-1,1,2,0,-1023
374,4.347744,0,0,0,1,2,-1027
375,4.359396,0,0,0,3,-1,-1019
376,4.371064,0,0,0,-1,3,-1028
377,4.382722,-1,-1,0,1,-2,-1023
378,4.394373,-1,-1,0,2,2,-1015
379,4.406044,0,0,0,3,1,-1025
380,4.417698,0,0,0,-2,-3,-1028
381,4.429355,0,-1,1,1,-2,-1024
382,4.441029,0,-1,0,-4,3,-1025
383,4.452703,-1,0,0,3,2,-1026
384,4.464375,-1,0,0,-1,-2,-1022
385,4.476051,-1,0,-1,0,2,-1023
386,4.487732,-1,0,-1,-1,3,-1024
387,4.499483,0,0,0,-1,4,-1030
388,4.511277,0,0,-1,5,1,-1030
389,4.522913,0,0,-1,0,0,-1022
390,4.53447,0,-1,-1,0,2,-1029
391,4.546063,0,0,0,1,3,-1028
392,4.557654,0,0,0,4,3,-1025
393,4.569206,-1,0,0,-2,1,-1022
394,4.580794,0,0,-1,-2,4,-1025
395,4.592327,0,-1,0,1,-2,-1027
396,4.603908,0,-1,-1,3,-4,-1025
397,4.615473,-1,0,0,2,3,-1022
398,4.627159,0,0,0,0,2,-1023
399,4.638832,-1,-1,-1,0,1,-1026
400,4.650488,0,0,-1,3,-1,-1025
401,4.662154,0,0,0,4,2,-1024
402,4.673817,-1,0,0,1,0,-1027
403,4.685512,0,1,0,0,-1,-1025
404,4.697186,-1,-1,0,4,-1,-1030
405,4.709524,0,0,0,3,1,-1025
406,4.721244,0,1,1,-1,-1,-1020
407,4.732818,0,1,0,-1,-2,-1023
408,4.744377,0,0,0,3,-1,-1025
409,4.755954,0,0,-1,-8,2,-1026
410,4.7675,0,0,0,1,3,-1026
411,4.779046,0,-1,0,-1,0,-1026
412,4.79059,-1,-1,0,5,-2,-1029
413,4.802152,-1,0,-1,1,-2,-1033
414,4.813705,-1,0,0,-1,-1,-1030
415,4.825272,0,0,0,0,2,-1034
416,4.83695,0,0,0,0,0,-1024
417,4.848632,-1,0,1,6,0,-1021
418,4.860302,0,0,0,5,0,-1024
419,4.871982,0,0,0,0,4,-1021
420,4.883612,0,0,0,-1,-1,-1025
421,4.895259,0,-1,0,3,3,-1018
422,4.907023,0,0,0,3,-5,-1019
423,4.918983,0,0,0,1,0,-1022
424,4.930719,0,0,0,1,-1,-1019
425,4.942395,0,0,1,0,-1,-1023
426,4.954071,0,0,1,2,-4,-1020
427,4.965727,0,-1,0,3,4,-1025
428,4.97739,0,0,-1,0,-1,-1026
429,4.989062,0,0,-1,2,0,-1022
430,5.000715,-1,1,0,3,-3,-1027
431,5.012408,-1,0,0,1,-3,-1026
432,5.024105,-1,-1,0,3,-1,-1024
433,5.035668,0,-1,0,1,1,-1028
434,5.047254,0,-1,0,2,2,-1023
435,5.058798,0,0,0,-3,1,-1018
436,5.070342,0,1,0,3,-4,-1023
437,5.081895,0,0,0,0,0,-1024
438,5.09346,-1,0,0,1,-3,-1029
439,5.105023,0,0,0,2,-1,-1022
440,5.116682,0,0,0,3,0,-1022
441,5.128371,0,-1,0,3,0,-1021
442,5.140071,-1,0,0,0,1,-1024
443,5.151758,-1,-1,0,0,-1,-1030
444,5.163417,-1,-1,-1,3,3,-1028
445,5.175072,-1,0,-1,3,0,-1024
446,5.186727,1,0,0,-1,-1,-1025
447,5.198374,0,0,0,0,1,-1026
448,5.210041,-1,1,0,-3,2,-1029
449,5.221719,0,0,0,-2,0,-1026
450,5.23337,0,0,0,4,-1,-1026
451,5.245034,0,-1,0,1,0,-1029
452,5.256692,0,0,0,0,-4,-1022
453,5.268371,0,-1,1,1,2,-1026
454,5.280041,-1,0,0,1,-1,-1025
455,5.291757,-1,0,-1,4,-1,-1022
456,5.303417,-1,0,0,3,0,-1021
457,5.315069,0,-1,0,-1,-4,-1025
458,5.326797,0,-1,1,0,0,-1022
459,5.338459,0,-1,0,3,1,-1024
460,5.350011,0,0,0,2,-1,-1024
461,5.36155,0,-1,-1,1,3,-1027
462,5.373095,-1,0,0,4,0,-1026
463,5.384646,0,0,-1,3,2,-1030
464,5.396204,0,0,0,-1,2,-1025
465,5.40776,-1,0,0,2,4,-1023
466,5.419326,0,0,-1,1,1,-1019
467,5.430888,0,-1,-1,2,1,-1021
468,5.442538,0,0,0,0,2,-1029
469,5.454196,0,-1,0,0,2,-1029
470,5.46584,-1,-1,1,-1,0,-1024
471,5.477514,-1,0,0,0,-1,-1029
472,5.489173,0,-1,-1,4,0,-1024
473,5.500884,-1,0,-1,0,2,-1019
474,5.512547,0,-1,0,1,-3,-1023
475,5.524276,-1,-1,0,-1,-1,-1022
476,5.536055,0,-2,0,2,1,-1025
477,5.5476,-1,0,0,2,1,-1027
478,5.559153,-1,-1,-1,1,-2,-1025
479,5.570707,0,0,0,1,2,-1022
480,5.582252,0,0,0,-1,-2,-1022
481,5.593815,0,0,0,4,-1,-1021
482,5.605365,0,0,0,1,3,-1022
483,5.616928,0,0,0,1,-2,-1019
484,5.628494,0,0,-1,-3,1,-1029
485,5.640098,0,-1,0,3,-2,-1022
486,5.651773,-1,-1,0,1,0,-1025
487,5.663462,0,0,0,1,2,-1027
488,5.67511,0,0,0,1,-3,-1021
489,5.686765,0,-1,0,2,-4,-1027
490,5.698416,0,-1,0,0,-2,-1020
491,5.710063,0,0,0,4,3,-1024
492,5.721711,0,0,0,1,-3,-1025
493,5.733538,0,-1,0,3,2,-1027
494,5.745281,0,0,0,-1,-1,-1028
495,5.756949,0,0,0,-2,-2,-1029
496,5.76865,-1,0,0,0,0,-1020
497,5.78031,-1,0,0,4,-1,-1022
498,5.791989,-1,0,0,2,4,-1023
499,5.803612,0,-1,0,1,-1,-1028
500,5.815273,-1,-1,0,1,-2,-1024
501,5.826926,-1,0,0,2,0,-1024
502,5.838601,-1,0,0,-2,4,-1024
503,5.850304,-1,0,0,2,-1,-1026
504,5.861855,0,-1,0,-4,1,-1026
505,5.8734,-1,-1,0,2,-2,-1025
506,5.884957,-1,-1,0,4,1,-1029
507,5.896506,1,-2,-1,1,-3,-1025
508,5.9081,0,-1,-1,0,2,-1026
509,5.919672,-1,0,0,-2,2,-1027
510,5.93123,-1,0,0,0,4,-1021
511,5.942818,-1,0,-1,0,1,-1025
512,5.954467,0,-1,0,-1,1,-1019
513,5.966137,0,-1,1,-2,0,-1022
514,5.977788,0,0,-1,0,0,-1027
515,5.989426,0,-1,0,-3,-2,-1023
516,6.001161,0,0,0,0,-3,-1026
517,6.012823,-1,-1,0,-2,1,-1018
518,6.02451,0,0,0,1,-4,-1030
519,6.036205,0,0,0,4,-1,-1028
520,6.047895,-1,-1,0,2,1,-1025
521,6.059581,-1,0,0,4,-2,-1019
522,6.071159,-1,0,1,1,-1,-1026
523,6.082718,-1,0,1,0,-1,-1022
524,6.09427,0,0,0,-2,-2,-1023
525,6.105814,0,-1,-1,2,-3,-1022
526,6.117365,0,-1,1,-1,-2,-1025
527,6.128961,0,0,0,3,-1,-1023
528,6.140519,0,0,0,1,1,-1024
529,6.15211,0,-1,0,-1,0,-1031
530,6.163743,0,0,0,-2,2,-1022
531,6.175399,-1,0,0,-1,-4,-1019
532,6.18705,0,0,0,0,-2,-1027
533,6.198722,0,-1,-1,-1,-4,-1022
534,6.210374,0,0,0,0,2,-1024
535,6.222025,0,0,0,4,1,-1023
536,6.233675,0,-1,0,2,0,-1020
537,6.245345,0,-1,0,1,2,-1023
538,6.257033,0,0,0,3,-5,-1022
539,6.268715,0,-1,0,5,2,-1024
540,6.280334,0,-1,0,2,3,-1024
541,6.291885,0,0,0,-2,0,-1026
542,6.303438,0,1,0,1,-1,-1022
543,6.314992,0,-1,-1,-2,-4,-1022
544,6.326567,0,0,0,3,0,-1022
545,6.338119,0,0,0,4,0,-1020
546,6.349698,0,0,0,1,-2,-1024
547,6.361247,0,0,0,2,4,-1023
548,6.37291,0,0,-1,-3,-1,-1019
549,6.384604,0,0,0,4,-2,-1029
550,6.39626,0,0,0,1,-4,-1021
551,6.407953,0,0,-1,-2,-3,-1027
552,6.419604,-1,0,0,-3,2,-1023
553,6.431272,0,0,0,-1,-2,-1023
554,6.442916,0,-1,0,0,-2,-1022
555,6.454603,0,-1,0,1,0,-1027
556,6.466259,-1,0,0,4,7,-1026
557,6.477825,-1,-1,0,-2,-1,-1030
558,6.489437,0,0,0,-1,2,-1029
559,6.500992,0,0,0,3,4,-1026
560,6.512569,1,-1,-1,2,-2,-1024
561,6.524083,0,0,-1,2,1,-1027
562,6.535601,-1,-1,0,-4,-2,-1017
563,6.547147,-1,0,-1,4,2,-1035
564,6.55871,-1,-1,-1,1,-4,-1022
565,6.570345,0,0,0,-2,2,-1026
566,6.582003,-1,-1,0,0,0,-1025
567,6.593652,0,0,0,-4,-1,-1023
568,6.60532,0,-1,0,4,3,-1025
569,6.616983,0,0,0,-1,0,-1019
570,6.628635,0,0,0,2,-2,-1022
571,6.640298,0,-1,0,1,1,-1023
572,6.651993,0,1,0,3,2,-1020
573,6.663628,0,0,0,1,0,-1028
574,6.675293,-1,-1,0,2,1,-1021
575,6.686864,-1,-1,0,2,1,-1032
576,6.698438,0,0,0,1,3,-1024
577,6.709989,0,0,0,4,2,-1017
578,6.721523,0,0,0,4,1,-1024
579,6.733067,-1,0,0,-3,4,-1025
580,6.744612,-1,-1,-1,1,-1,-1026
581,6.75623,-1,0,0,-1,-1,-1022
582,6.767874,0,0,0,-2,4,-1024
583,6.77964,0,0,1,3,-1,-1023
584,6.79133,0,0,0,3,2,-1025
585,6.80299,0,0,0,2,-1,-1022
586,6.814677,-1,0,1,-2,-1,-1022
587,6.826346,0,1,-1,1,-1,-1030
588,6.838001,-1,0,0,-3,3,-1026
589,6.849648,0,-1,0,3,-4,-1022
590,6.861302,0,0,0,-2,-3,-1026
591,6.87301,-1,0,0,2,-1,-1020
592,6.884709,0,0,0,1,-1,-1028
593,6.896317,0,0,-1,1,0,-1022
594,6.907851,1,0,0,5,-1,-1029
595,6.919404,-1,0,-1,1,0,-1030
596,6.930954,0,-1,-1,1,1,-1024
597,6.942525,-1,-1,0,-1,0,-1027
598,6.954102,-1,0,-1,-3,4,-1028
599,6.965764,0,0,-1,-1,1,-1023
600,6.97732,-1,-1,-1,0,1,-1021
601,6.988991,-1,0,0,0,-2,-1023
602,7.000642,0,-1,0,-2,1,-1025
603,7.012326,0,-1,0,1,1,-1022
604,7.024002,0,0,0,-3,0,-1020
605,7.035653,0,-1,0,1,2,-1026
606,7.047317,-1,-1,1,2,1,-1023
607,7.058982,-1,0,0,-1,3,-1024
608,7.070632,-1,0,-1,0,0,-1020
609,7.082318,0,0,0,-4,-1,-1024
610,7.093912,0,0,1,3,-1,-1019
611,7.10546,-1,0,0,-1,4,-1028
612,7.11704,-1,-1,0,-1,-1,-1025
613,7.12857,0,0,-1,-5,1,-1028
614,7.140084,-1,0,0,2,-6,-1024
615,7.151625,-1,1,0,1,1,-1031
616,7.163184,-1,0,0,1,2,-1025
617,7.174773,-1,0,0,-1,2,-1022
618,7.186319,-1,-1,-1,1,4,-1031
619,7.197972,0,0,0,-1,1,-1027
620,7.209629,-1,0,0,0,-2,-1026
621,7.221273,-1,0,0,1,-2,-1024
622,7.232899,0,0,0,0,1,-1025
623,7.244579,0,0,-1,-2,0,-1026
624,7.256262,0,0,0,0,3,-1022
625,7.267947,0,0,0,1,4,-1032
626,7.279613,0,0,0,1,3,-1020
627,7.291272,0,0,0,1,-3,-1021
628,7.302957,0,-1,1,2,-1,-1025
629,7.314532,-1,-1,-1,-2,3,-1021
630,7.326077,-1,-1,0,3,-2,-1025
631,7.337624,0,-1,0,-2,0,-1030
632,7.349175,0,-1,-1,-1,2,-1024
633,7.360796,0,0,0,2,-2,-1025
634,7.372604,0,0,0,5,0,-1021
635,7.384215,0,0,0,-2,-2,-1026
636,7.395783,-1,-1,0,2,1,-1019
637,7.407474,0,0,0,2,4,-1023
638,7.419124,-1,-1,0,1,2,-1026
639,7.43081,0,0,0,3,4,-1021
640,7.442472,0,-1,0,4,2,-1024
641,7.454117,0,-1,0,1,-3,-1017
642,7.465776,-1,-1,1,2,-2,-1018
643,7.477522,-1,0,0,3,-4,-1022
644,7.489181,0,-1,0,4,1,-1024
645,7.500835,0,0,0,1,1,-1020
646,7.512398,0,1,0,1,0,-1023
647,7.523986,-1,-1,0,1,2,-1022
648,7.535544,-1,-1,0,0,0,-1029
649,7.547139,0,-1,0,0,1,-1025
650,7.558689,-2,-1,0,0,1,-1034
651,7.570261,0,0,-1,-4,3,-1022
652,7.581807,0,0,0,-4,0,-1025
653,7.593354,0,-1,0,2,-2,-1014
654,7.60503,0,-1,0,1,0,-1025
655,7.616696,0,0,1,-3,1,-1024
656,7.628387,-1,0,0,0,-4,-1022
657,7.640053,-1,0,0,0,0,-1027
658,7.651735,-1,-1,0,0,1,-1029
659,7.663378,0,0,-1,2,-2,-1033
660,7.675058,0,0,-1,-4,-2,-1020
661,7.686712,0,0,0,0,2,-1024
662,7.698362,0,0,0,-3,3,-1024
663,7.710056,0,-1,0,1,-4,-1028
664,7.721629,0,0,-1,1,0,-1024
665,7.733177,0,-1,0,0,2,-1026
666,7.744739,0,0,1,-1,1,-1027
667,7.756314,-1,0,0,3,0,-1020
668,7.767845,-1,0,0,-2,2,-1027
669,7.779394,-1,0,0,-1,-4,-1024
670,7.790973,0,0,0,4,5,-1024
671,7.802535,0,-1,0,0,1,-1026
672,7.814178,0,0,0,-1,-2,-1028
673,7.825843,0,-1,0,2,2,-1025
674,7.83751,-1,0,0,-1,0,-1018
675,7.849161,-1,0,1,0,1,-1027
676,7.860824,0,-1,0,3,-1,-1030
677,7.872538,-1,-1,0,0,0,-1023
678,7.884201,0,0,0,3,1,-1027
679,7.895908,0,-1,-1,-4,2,-1028
680,7.907601,0,0,-1,1,3,-1026
681,7.91929,0,0,-1,4,-1,-1029
682,7.930845,0,-1,0,-1,-1,-1020
683,7.942396,0,0,1,4,1,-1021
684,7.95394,0,0,0,2,1,-1023
685,7.965534,0,-1,0,-2,3,-1019
686,7.977116,0,-1,0,0,0,-1027
687,7.988844,0,0,0,1,-1,-1021
688,8.000412,-1,-1,0,2,-2,-1025
689,8.012014,-1,0,1,1,1,-1024
690,8.023614,0,0,0,1,-1,-1024
691,8.035276,0,0,0,0,4,-1025
692,8.046932,-1,0,0,2,1,-1024
693,8.058591,0,-1,0,0,3,-1025
694,8.070262,-1,-1,1,3,-4,-1022
695,8.081915,0,-1,0,1,3,-1023
696,8.093569,0,0,0,2,-1,-1027
697,8.105228,-1,0,0,-2,1,-1027
698,8.116919,-1,-1,0,2,0,-1021
699,8.128577,0,0,0,-1,-1,-1025
700,8.140268,0,0,0,-2,0,-1031
701,8.151933,0,-1,-1,0,-3,-1026
702,8.163603,0,-1,0,3,0,-1026
703,8.175284,0,0,0,0,3,-1026
704,8.18694,-1,0,0,-2,1,-1024
705,8.198584,-1,0,0,2,0,-1023
706,8.210263,-1,-1,0,4,3,-1025
707,8.221981,0,0,0,0,2,-1030
708,8.233646,0,0,1,0,-1,-1029
709,8.245221,0,0,-1,1,0,-1020
710,8.256822,0,-1,0,4,-1,-1024
711,8.26838,-1,-1,0,3,-3,-1023
712,8.27993,0,0,-1,2,2,-1026
713,8.291475,0,-1,0,5,-2,-1020
714,8.303031,0,0,-1,-2,-4,-1024
715,8.314603,0,0,0,5,-3,-1028
716,8.326159,-1,-1,1,3,0,-1020
717,8.337779,0,-1,0,1,1,-1026
718,8.349428,0,1,0,-1,1,-1028
719,8.361083,0,0,1,2,1,-1031
720,8.372775,-1,0,0,2,1,-1025
721,8.384423,0,0,0,2,-2,-1022
722,8.3961,0,-1,1,2,3,-1022
723,8.407775,0,0,0,1,3,-1023
724,8.419425,0,-1,0,0,1,-1029
725,8.43109,0,0,0,1,0,-1022
726,8.442764,0,-1,0,-3,0,-1027
727,8.454353,-1,0,0,-3,-3,-1022
728,8.465954,0,1,0,-2,-1,-1024
729,8.477506,-1,0,0,-2,-1,-1024
730,8.489058,0,0,1,2,2,-1030
731,8.500619,-1,-1,0,1,-2,-1026
732,8.512216,0,-1,0,3,0,-1026
733,8.523788,0,0,-1,-4,0,-1020
734,8.53536,0,0,0,0,0,-1027
735,8.547014,-1,-1,0,-1,-1,-1025
736,8.558677,0,-1,-1,-1,-5,-1022
737,8.570329,1,-1,-1,-3,0,-1024
738,8.582001,0,0,0,-2,0,-1023
739,8.593693,-1,0,0,1,0,-1020
740,8.605469,-1,0,0,0,1,-1026
741,8.617168,-1,-1,-1,-1,2,-1033
742,8.628984,0,-1,0,-1,2,-1026
743,8.640642,0,0,0,0,-2,-1027
744,8.652221,0,-1,0,4,-1,-1019
745,8.66377,0,0,0,-3,-2,-1026
746,8.675328,0,0,0,-2,-1,-1023
747,8.686871,-1,0,0,3,2,-1028
748,8.698425,0,-1,0,-3,1,-1030
749,8.709972,0,0,0,1,1,-1026
750,8.721516,-1,-1,1,3,-2,-1022
751,8.73306,0,-1,0,2,-2,-1023
752,8.744627,-1,0,1,1,0,-1026
753,8.75626,0,0,0,1,0,-1025
754,8.76792,-1,0,0,4,2,-1031
755,8.779609,0,0,0,3,0,-1022
756,8.791277,0,-1,0,1,0,-1024
757,8.803162,0,-1,-1,3,1,-1025
758,8.814958,-1,-1,-1,0,-2,-1024
759,8.826637,0,0,0,-1,-2,-1029
760,8.838302,0,0,0,-2,-3,-1029
761,8.850099,0,0,0,2,0,-1024
762,8.861773,-1,0,0,2,2,-1025
763,8.873344,0,0,0,0,4,-1025
764,8.884944,0,0,0,1,0,-1023
765,8.896501,0,-1,0,-4,2,-1023
766,8.908083,0,0,0,2,3,-1022
767,8.919677,0,0,0,2,1,-1026
768,8.931226,-1,0,-1,1,1,-1028
769,8.942778,-1,-1,0,2,-2,-1030
770,8.954339,0,0,0,0,-4,-1025
771,8.966008,0,0,0,1,3,-1023
772,8.977671,-1,0,0,2,0,-1022
773,8.989343,0,0,0,2,2,-1029
774,9.001109,-1,0,0,-2,-1,-1028
775,9.013074,-1,0,0,3,0,-1023
776,9.024774,0,-1,-1,6,0,-1018
777,9.036468,0,0,-1,-1,2,-1022
778,9.048137,0,-1,0,1,0,-1019
779,9.059807,0,-1,0,2,-4,-1026
780,9.071503,-1,0,0,3,0,-1025
781,9.083066,0,-1,0,-2,4,-1026
782,9.094614,0,-1,0,2,-2,-1030
783,9.10618,0,-1,0,0,1,-1019
784,9.117731,0,-1,0,0,0,-1026
785,9.129278,0,-1,0,-1,-1,-1024
786,9.140807,-1,0,0,3,1,-1033
787,9.152387,-1,0,0,3,1,-1027
788,9.163977,-1,-1,0,-3,-2,-1027
789,9.175619,0,0,0,-1,1,-1027
790,9.187276,0,0,0,2,-1,-1020
791,9.198938,0,0,0,2,0,-1024
792,9.210654,0,-1,0,1,-2,-1018
793,9.222473,0,0,0,-3,-1,-1023
794,9.23414,0,-1,0,1,-2,-1023
795,9.2458,-1,-1,0,1,1,-1028
796,9.257477,-1,-1,0,6,4,-1024
797,9.269271,-1,0,0,-1,-3,-1021
798,9.280878,0,0,0,1,-1,-1023
799,9.29245,0,0,0,0,1,-1028
800,9.304024,0,0,0,-1,-5,-1029
801,9.315597,0,0,0,0,2,-1018
802,9.327172,0,0,0,-2,3,-1022
803,9.338718,0,0,0,2,1,-1031
804,9.350292,-1,0,0,3,1,-1024
805,9.361836,-1,0,0,-3,-2,-1028
806,9.373424,0,0,0,2,3,-1023
807,9.385113,-1,0,0,2,2,-1020
808,9.396778,-1,0,1,1,1,-1024
809,9.408462,0,0,0,0,4,-1028
810,9.420132,0,0,0,1,-2,-1023
811,9.431788,0,0,0,1,0,-1021
812,9.443454,-1,-1,0,3,2,-1020
813,9.455131,0,0,0,0,1,-1018
814,9.466811,0,0,0,2,1,-1026
815,9.478482,-1,-1,0,-1,-3,-1024
816,9.490182,0,0,1,2,-1,-1028
817,9.501782,0,-1,1,1,2,-1023
818,9.513331,0,0,1,3,-4,-1026
819,9.524888,0,0,-1,3,7,-1026
820,9.53645,-1,0,-1,-1,-1,-1022
821,9.548001,-1,1,1,2,1,-1026
822,9.559545,0,0,0,-1,0,-1028
823,9.571104,0,0,-1,1,2,-1021
824,9.582666,-1,0,0,5,3,-1022
825,9.594396,-1,0,0,-1,1,-1029
826,9.606083,0,0,0,-1,0,-1020
827,9.617746,0,0,0,4,1,-1028
828,9.629466,-1,0,0,-1,1,-1019
829,9.641186,0,0,-1,1,0,-1028
830,9.652862,-1,0,0,-1,-2,-1027
831,9.66453,0,0,0,1,3,-1022
832,9.676235,0,-1,-1,0,-3,-1016
833,9.687894,0,-1,0,2,-2,-1023
834,9.699594,-1,-1,0,4,1,-1026
835,9.711159,0,-1,0,2,3,-1022
836,9.7227,0,0,0,3,0,-1023
837,9.734258,-1,0,-1,3,0,-1018
838,9.745839,0,0,-1,5,-4,-1030
839,9.757388,0,0,0,0,2,-1025
840,9.768957,0,0,0,-1,-2,-1023
841,9.78054,0,0,-1,-3,1,-1028
842,9.792108,-2,0,-1,2,1,-1027
843,9.803798,0,0,-1,0,2,-1016
844,9.815461,0,0,0,3,-1,-1026
845,9.827177,-1,0,0,3,0,-1027
846,9.838852,0,0,0,2,1,-1025
847,9.850524,0,-1,0,0,-3,-1026
848,9.862201,0,-1,0,1,2,-1033
849,9.873848,0,-1,0,2,0,-1031
850,9.885502,0,0,0,-1,1,-1024
851,9.897189,0,0,0,0,1,-1020
852,9.908899,-1,-1,-1,0,0,-1029
853,9.920568,-1,0,1,-1,1,-1022
854,9.932253,-1,-1,0,2,-1,-1027
855,9.943973,0,-1,0,4,0,-1018
856,9.955613,0,-1,0,2,0,-1020
857,9.967276,-1,-1,0,0,-1,-1031
858,9.978941,0,-1,0,-1,3,-1024
859,9.990592,-1,0,0,-1,-2,-1028
860,10.00228,-1,0,-1,2,0,-1028
861,10.013942,-1,-1,0,-2,-2,-1027
862,10.025616,-1,0,0,-2,1,-1028
863,10.037458,0,0,0,-1,-1,-1020
864,10.049168,0,0,0,-3,-2,-1030
865,10.06086,-1,-1,0,2,1,-1019
866,10.072529,0,-1,0,1,-2,-1032
867,10.0842,0,-1,0,3,1,-1024
868,10.095873,0,0,0,2,0,-1028
869,10.107619,0,1,0,-2,-3,-1028
870,10.119336,0,-1,0,-2,-2,-1028
871,10.130908,-1,0,0,5,1,-1023
872,10.142498,0,0,0,0,-3,-1029
873,10.154047,-1,0,0,-1,2,-1028
874,10.165588,0,-1,1,2,-2,-1021
875,10.177138,0,-1,0,-1,-4,-1019
876,10.188685,0,-1,0,-1,0,-1024
877,10.200244,-1,0,0,0,0,-1029
878,10.2118,-1,0,-1,6,1,-1025
879,10.223434,1,0,0,5,-1,-1027
880,10.23508,0,0,-1,-1,0,-1020
881,10.246727,-1,0,0,2,1,-1023
882,10.258399,-1,0,0,1,-1,-1027
883,10.270056,0,0,0,-1,0,-1032
884,10.281708,0,0,0,1,0,-1027
885,10.293389,0,-1,-1,-2,-2,-1024
886,10.305133,0,0,-1,-2,1,-1021
887,10.31682,0,0,0,0,2,-1022
888,10.328548,0,0,0,3,2,-1024
889,10.340089,0,0,0,2,4,-1027
890,10.351603,-1,-1,0,-1,-1,-1030
891,10.363157,0,0,0,-2,1,-1025
892,10.374712,-1,0,0,-1,3,-1025
893,10.386258,0,0,-1,6,-2,-1023
894,10.39784,-1,1,0,-3,1,-1020
895,10.409392,0,0,0,1,0,-1022
896,10.420999,0,0,0,-5,0,-1023
897,10.432726,0,-1,0,-2,1,-1022
898,10.444607,0,-1,0,-1,2,-1027
899,10.456292,0,-1,0,1,4,-1024
900,10.467958,0,-1,0,-1,-1,-1019
901,10.479633,0,0,0,6,3,-1027
902,10.491331,0,0,-1,1,0,-1017
903,10.502982,0,0,0,-1,-1,-1018
904,10.514664,-1,-1,-1,2,0,-1031
905,10.526346,0,0,0,-1,-1,-1026
906,10.538045,0,-1,0,3,-2,-1030
907,10.549617,0,0,1,2,0,-1020
908,10.561177,0,0,1,-3,3,-1027
909,10.572741,0,0,-1,0,2,-1023
910,10.584317,0,0,1,0,0,-1027
911,10.595854,0,0,-1,-1,3,-1026
912,10.607399,0,0,0,-3,0,-1023
913,10.618959,-1,0,0,2,-2,-1022
914,10.63054,0,-1,0,-2,1,-1029
915,10.642188,0,0,0,2,5,-1023
916,10.653885,0,0,-1,4,-1,-1025
917,10.665557,0,0,0,0,-1,-1029
918,10.677229,0,0,0,0,-4,-1021
919,10.688916,-1,0,0,2,1,-1028
920,10.700578,0,0,0,-1,3,-1019
921,10.712287,0,0,0,-1,0,-1021
922,10.723944,0,-1,0,1,4,-1022
923,10.735626,0,0,1,2,1,-1021
924,10.747293,0,-1,0,0,-3,-1025
925,10.758863,-1,-1,0,1,-4,-1022
926,10.770416,0,-1,0,-2,-1,-1017
927,10.781983,-1,-1,0,0,4,-1026
928,10.793548,-1,0,0,0,1,-1022
929,10.805126,0,-1,0,1,1,-1028
930,10.8167,0,0,0,1,-2,-1025
931,10.828265,0,0,0,1,0,-1029
932,10.839866,0,-1,0,-3,4,-1023
933,10.851622,0,-1,0,-1,-3,-1023
934,10.863337,0,-1,0,1,3,-1018
935,10.875029,0,-1,0,1,-3,-1024
936,10.886689,0,-1,0,0,-3,-1022
937,10.898332,0,0,-1,2,-1,-1028
938,10.90999,-1,0,0,1,-1,-1027
939,10.921654,-1,1,0,0,-1,-1022
940,10.933302,-1,-1,0,4,5,-1021
941,10.94501,0,-1,0,-2,-2,-1024
942,10.956651,0,-1,0,-3,-3,-1025
943,10.968309,0,-1,0,-2,-3,-1029
944,10.980008,-1,0,0,2,1,-1026
945,10.991668,-1,0,0,5,4,-1029
946,11.003314,-1,0,0,1,-3,-1019
947,11.01496,-1,0,0,-1,3,-1026
948,11.026629,0,0,0,-3,2,-1029
949,11.038274,-1,0,0,4,2,-1031
950,11.049976,0,-1,1,-2,0,-1023
951,11.061727,0,0,0,-1,1,-1023
952,11.073277,0,0,-1,-1,0,-1029
953,11.084829,0,0,-1,-1,-3,-1022
954,11.096392,0,0,-1,-2,3,-1028
955,11.107986,0,0,-1,-2,3,-1024
956,11.119556,0,-1,0,2,-1,-1026
957,11.131096,-1,-1,-1,-1,0,-1023
958,11.142636,0,0,0,2,3,-1021
959,11.154204,-1,-1,0,1,-1,-1021
960,11.165871,-1,0,1,0,3,-1024
961,11.177529,0,0,0,2,0,-1029
962,11.189184,0,-1,-1,1,2,-1020
963,11.200886,0,-1,0,1,0,-1021
964,11.212545,0,-2,1,0,-1,-1031
965,11.224229,0,-1,-1,-1,0,-1018
966,11.23588,0,-1,0,-1,-3,-1026
967,11.247529,0,-1,1,1,2,-1025
968,11.259192,0,-1,0,-2,0,-1023
969,11.270847,-1,-1,0,2,-1,-1022
970,11.282456,1,0,0,1,-3,-1015
971,11.294011,0,0,1,0,1,-1023
972,11.305573,-1,0,0,4,0,-1027
973,11.317118,0,1,0,-1,1,-1021
974,11.328677,0,-1,-1,-2,0,-1015
975,11.34023,0,-1,0,1,0,-1018
976,11.351777,-1,0,0,1,-1,-1025
977,11.363333,-1,-1,1,1,4,-1020
978,11.375026,0,-1,0,0,2,-1026
979,11.386709,0,0,0,0,-2,-1022
980,11.39837,0,0,0,2,3,-1024
981,11.410024,0,-1,0,-2,0,-1020
982,11.421678,0,-1,0,-2,-2,-1024
983,11.433361,0,-1,0,4,3,-1033
984,11.445031,0,0,0,-3,1,-1026
985,11.456713,0,-1,-1,-2,4,-1021
986,11.468393,-1,0,0,3,-2,-1029
987,11.480094,0,0,0,1,2,-1023
988,11.49165,0,-1,0,-2,3,-1024
989,11.503198,0,0,0,4,0,-1027
990,11.514761,0,0,0,-2,-3,-1030
991,11.526322,0,0,0,0,1,-1022
992,11.53787,0,0,0,-1,2,-1020
993,11.549434,-1,0,-1,2,3,-1026
994,11.560979,0,0,-1,1,-1,-1027
995,11.572571,0,0,0,2,1,-1023
996,11.584197,0,0,0,3,0,-1026
997,11.5959,0,0,1,2,1,-1024
998,11.607597,0,-1,1,2,-6,-1021
999,11.619245,0,0,0,1,3,-1019
1000,11.630899,0,0,0,0,1,-1028
1001,11.642567,0,0,0,-1,2,-1025
1002,11.654233,-1,0,-1,1,-1,-1026
1003,11.665885,0,0,0,-1,3,-1021
1004,11.677562,-1,0,-1,1,1,-1027
1005,11.689227,0,0,-1,1,1,-1018
1006,11.700818,0,0,-1,-1,0,-1027
1007,11.712378,-1,0,0,-2,-2,-1030
1008,11.723969,0,0,1,4,1,-1023
1009,11.735548,-1,0,-1,0,1,-1024
1010,11.747098,-1,0,-1,4,1,-1027
1011,11.758651,0,-1,0,1,-1,-1021
1012,11.770196,-1,0,0,1,0,-1017
1013,11.781791,0,-1,0,2,-1,-1032
1014,11.793415,-1,0,0,-2,3,-1022
1015,11.805099,-1,-1,-1,0,4,-1027
1016,11.816766,0,0,0,-1,-1,-1028
1017,11.828424,0,-1,0,0,2,-1021
1018,11.840118,0,0,0,0,-2,-1032
1019,11.851772,0,0,0,-2,2,-1025
1020,11.863426,0,0,-1,0,3,-1024
1021,11.875102,0,-1,0,-2,1,-1025
1022,11.886762,-1,0,0,2,0,-1018
1023,11.898418,-1,0,0,4,1,-1028
1024,11.909979,-1,0,0,-2,-3,-1024
1025,11.921561,0,0,0,1,-4,-1024
1026,11.933141,-1,0,0,1,-1,-1023
1027,11.944687,0,0,0,2,1,-1027
1028,11.956281,0,-1,0,1,2,-1032
1029,11.967858,0,0,-1,-2,3,-1022
1030,11.97942,-1,0,0,-2,-2,-1019
1031,11.990975,0,0,1,0,0,-1028
1032,12.002603,0,0,0,0,3,-1025
1033,12.014254,0,-1,0,2,-3,-1031
1034,12.025918,0,-1,0,1,-4,-1018
1035,12.037576,0,0,0,-1,1,-1023
1036,12.049226,-1,-1,0,0,-4,-1025
1037,12.060897,-1,-1,-1,-1,0,-1023
1038,12.072556,-1,-1,0,3,-1,-1027
1039,12.084335,0,0,0,2,1,-1022
1040,12.096012,0,0,1,2,-1,-1020
1041,12.107696,0,0,0,-1,-2,-1030
1042,12.119278,-1,0,1,-1,-2,-1020
1043,12.130821,-1,0,0,-5,1,-1024
1044,12.142368,0,0,1,2,5,-1025
1045,12.153917,0,-1,0,1,0,-1020
1046,12.165472,-1,0,0,5,-3,-1026
1047,12.177042,0,-1,-1,-2,-1,-1029
1048,12.188636,0,0,-1,-1,0,-1019
1049,12.200225,0,-1,0,-3,1,-1024
1050,12.211864,1,0,0,-1,0,-1027
1051,12.22352,0,-1,0,2,2,-1027
1052,12.235164,0,0,0,1,-1,-1023
1053,12.246832,0,0,0,-3,1,-1024
1054,12.258486,0,0,0,-2,1,-1024
1055,12.270155,0,0,0,-1,-3,-1020
1056,12.281817,0,-1,0,2,-1,-1024
1057,12.293476,0,0,0,0,-2,-1027
1058,12.305196,0,1,0,-2,1,-1019
1059,12.31685,0,0,0,0,-1,-1027
1060,12.32841,-1,0,0,0,1,-1024
1061,12.340028,0,-1,1,0,0,-1026
1062,12.351599,-1,0,-1,-1,2,-1023
1063,12.36315,-1,-1,0,-4,1,-1023
1064,12.374702,-1,-1,0,1,-2,-1029
1065,12.386268,-1,-1,0,2,0,-1023
1066,12.397821,-1,-1,0,1,-1,-1025
1067,12.409403,0,-1,0,4,-1,-1025
1068,12.421074,-1,-1,0,0,3,-1018
1069,12.432787,-1,-1,0,-4,-1,-1024
1070,12.444453,-1,0,0,-3,4,-1028
1071,12.456127,0,0,0,-1,-2,-1028
1072,12.467802,-1,0,0,0,-2,-1028
1073,12.479472,-1,0,0,-1,2,-1027
1074,12.491184,0,0,-1,0,-2,-1029
1075,12.502845,0,0,0,1,-2,-1027
1076,12.514493,0,0,0,-1,-2,-1031
1077,12.526064,0,-1,0,5,0,-1030
1078,12.537657,0,-1,0,4,-2,-1022
1079,12.549219,0,0,0,-1,3,-1025
1080,12.560797,0,0,0,3,-2,-1020
1081,12.572321,0,0,0,1,-1,-1020
1082,12.583843,0,0,-1,0,2,-1020
1083,12.595406,-1,0,0,0,3,-1026
1084,12.606979,0,0,1,0,-2,-1024
1085,12.618549,0,-1,0,-1,3,-1028
1086,12.630196,0,0,0,3,1,-1024
1087,12.641859,0,0,0,-1,-4,-1024
1088,12.653527,0,-1,0,2,-2,-1023
1089,12.665187,0,0,1,3,-3,-1026
1090,12.676893,0,-1,0,2,-2,-1028
1091,12.688565,-1,-1,0,2,4,-1025
1092,12.700245,-1,-1,0,-3,-1,-1022
1093,12.711972,-1,0,0,-1,2,-1031
1094,12.723626,0,0,0,0,-1,-1028
1095,12.735306,-1,-1,0,3,1,-1024
1096,12.746876,-1,-1,0,1,-2,-1025
1097,12.758427,0,1,0,-2,0,-1024
1098,12.769999,0,0,0,1,-2,-1025
1099,12.781557,0,0,0,-3,-1,-1024
1100,12.793121,0,0,0,1,2,-1021
1101,12.804689,0,-1,0,-4,0,-1021
1102,12.816254,0,0,0,2,-3,-1028
1103,12.82784,0,0,0,2,0,-1029
1104,12.839463,0,0,0,-6,1,-1025
1105,12.851114,0,0,0,2,2,-1033
1106,12.862785,-1,0,1,4,-1,-1025
1107,12.874433,0,1,0,-1,-2,-1023
1108,12.88608,0,-1,0,-1,-1,-1028
1109,12.897722,-1,-1,0,3,0,-1026
1110,12.909411,-1,-1,0,-2,-1,-1022
1111,12.921075,0,0,1,4,2,-1023
1112,12.932787,0,0,0,-3,1,-1021
1113,12.944443,-1,0,0,3,3,-1027
1114,12.956018,-1,-1,0,-1,-3,-1027
1115,12.967604,-1,0,0,-1,2,-1025
1116,12.979159,-1,0,0,0,-2,-1029
1117,12.990717,-1,0,-1,1,-2,-1026
1118,13.002265,0,0,0,1,-2,-1024
1119,13.013844,0,0,-1,-2,-1,-1024
1120,13.025392,0,0,0,-3,1,-1027
1121,13.036975,-1,0,-1,0,-1,-1023
1122,13.04868,0,0,0,1,0,-1033
1123,13.060383,-1,-1,0,2,-3,-1021
1124,13.072053,0,0,0,0,-2,-1022
1125,13.083761,0,0,0,2,-1,-1020
1126,13.095418,0,-1,0,2,1,-1022
1127,13.107071,-1,0,0,0,-1,-1030
1128,13.118727,0,1,0,2,1,-1024
1129,13.130377,0,-1,0,-2,2,-1026
1130,13.142054,-1,0,0,-2,2,-1031
1131,13.153705,0,0,0,-4,0,-1022
1132,13.165353,-1,-1,0,-3,2,-1027
1133,13.177037,-1,0,0,2,3,-1027
1134,13.188691,0,0,0,0,1,-1030
1135,13.200371,-1,0,-1,-4,0,-1026
1136,13.212045,0,-1,0,0,2,-1023
1137,13.223684,-1,-1,0,-1,-2,-1028
1138,13.23533,-1,0,0,3,-2,-1021
1139,13.247066,0,0,1,0,2,-1021
1140,13.258716,0,0,0,-1,-4,-1032
1141,13.270277,0,0,0,-1,1,-1026
1142,13.281832,0,-1,0,2,1,-1023
1143,13.293383,0,0,-1,3,-3,-1026
1144,13.304952,0,0,0,4,-1,-1026
1145,13.316511,0,0,-1,0,-2,-1022
1146,13.328108,-1,-1,0,-4,-4,-1025
1147,13.339665,-1,0,0,6,2,-1025
1148,13.351226,0,0,0,1,-1,-1024
1149,13.362921,-1,0,0,2,0,-1023
1150,13.374565,0,-1,1,-2,1,-1023
1151,13.386215,-1,0,0,-6,3,-1024
1152,13.397936,-1,0,-1,0,1,-1021
1153,13.409582,-1,0,0,1,0,-1022
1154,13.421228,-1,0,-1,-3,2,-1023
1155,13.432915,-1,0,0,2,-5,-1028
1156,13.44456,0,0,0,-5,1,-1024
1157,13.456263,-1,0,0,-2,0,-1028
1158,13.467838,0,-1,0,3,-2,-1027
1159,13.479397,0,0,0,3,2,-1023
1160,13.49095,0,0,0,2,-2,-1023
1161,13.502506,-1,0,0,-1,3,-1023
1162,13.514104,0,0,0,-1,1,-1025
1163,13.525655,-1,0,0,1,-6,-1029
1164,13.537205,0,-1,-1,0,-3,-1023
1165,13.548758,0,-1,0,1,1,-1027
1166,13.560377,0,-1,0,-2,2,-1027
1167,13.572046,0,-1,0,1,-4,-1024
1168,13.583749,0,0,0,1,0,-1023
1169,13.595414,0,0,0,3,2,-1025
1170,13.607067,0,0,-1,0,2,-1019
1171,13.618736,-1,0,-1,3,1,-1026
1172,13.630391,-1,0,0,0,0,-1020
1173,13.642042,0,-1,0,-3,3,-1023
1174,13.653708,-1,-1,1,1,-1,-1021
1175,13.66536,0,-1,1,0,-2,-1021
1176,13.676948,0,0,0,3,-1,-1027
1177,13.688508,-1,-1,0,1,1,-1021
1178,13.700084,-1,0,0,1,-2,-1023
1179,13.7116,-1,0,0,1,4,-1025
1180,13.723179,0,0,0,2,-1,-1029
1181,13.734728,0,0,1,0,-2,-1027
1182,13.746291,0,-1,0,-2,0,-1023
1183,13.757852,-1,0,1,1,3,-1027
1184,13.76947,-1,0,0,0,-1,-1027
1185,13.781154,0,0,0,1,3,-1025
1186,13.792814,0,0,-1,4,-5,-1026
1187,13.804459,0,0,0,1,-1,-1026
1188,13.816131,0,0,0,-3,-1,-1024
1189,13.827813,0,0,0,0,2,-1024
1190,13.839463,1,-1,0,-2,4,-1021
1191,13.851116,0,-1,0,-1,-1,-1022
1192,13.862783,-1,0,0,0,-1,-1032
1193,13.874431,0,0,-1,-4,-2,-1028
1194,13.886014,0,-1,0,3,-1,-1024
1195,13.897601,0,0,0,0,-2,-1020
1196,13.909173,0,-1,0,-1,-3,-1030
1197,13.920733,0,0,0,0,2,-1022
1198,13.932327,0,0,0,-4,0,-1022
1199,13.943891,0,0,0,-2,0,-1021
1200,13.95546,0,-1,0,2,-2,-1026
1201,13.967094,0,0,0,-4,-1,-1027
1202,13.978722,0,0,-1,2,0,-1024
1203,13.990403,-1,0,0,-3,1,-1022
1204,14.002053,0,0,0,1,0,-1026
1205,14.013735,0,-1,-1,3,0,-1029
1206,14.025397,-1,0,0,1,3,-1024
1207,14.037059,0,0,0,0,4,-1021
1208,14.048707,-1,0,0,-1,3,-1025
1209,14.060456,-1,-1,0,0,-1,-1023
1210,14.072145,0,0,-1,-1,-4,-1028
1211,14.083851,0,0,0,1,-3,-1024
1212,14.095503,0,0,-1,-2,-2,-1031
1213,14.107152,1,0,1,-2,-1,-1029
1214,14.118802,0,0,0,1,2,-1023
1215,14.130446,0,-1,0,3,3,-1022
1216,14.142117,0,0,-1,4,0,-1021
1217,14.153772,0,0,0,1,0,-1021
1218,14.165436,0,0,0,2,1,-1025
1219,14.177177,0,0,0,0,1,-1023
1220,14.18887,-1,0,0,3,1,-1020
1221,14.200453,-1,-1,-1,-2,0,-1022
1222,14.212016,-1,-1,0,1,7,-1021
1223,14.223596,-1,0,0,3,0,-1023
1224,14.235137,0,-1,0,-1,-1,-1024
1225,14.246689,0,0,0,2,2,-1025
1226,14.258233,-1,-1,0,1,-3,-1027
1227,14.26978,0,0,0,1,3,-1030
1228,14.281342,0,0,0,6,1,-1022
1229,14.292978,0,-1,-1,3,3,-1026
1230,14.30464,-1,-2,0,-2,-1,-1028
1231,14.316297,-1,0,0,1,3,-1028
1232,14.327994,0,0,-1,0,5,-1024
1233,14.339648,0,-1,0,-2,0,-1025
1234,14.351296,0,0,0,-1,-1,-1021
1235,14.362964,0,1,0,0,1,-1032
1236,14.374613,0,-1,0,1,0,-1026
1237,14.3863,-1,-1,1,7,-2,-1024
1238,14.397956,-1,-1,1,0,-2,-1021
1239,14.409516,-1,0,0,2,5,-1023
1240,14.421064,0,0,-1,-1,-2,-1027
1241,14.432661,0,0,0,1,0,-1023
1242,14.444221,0,-1,0,-3,3,-1027
1243,14.455806,0,0,0,-2,0,-1025
1244,14.467351,0,0,0,-3,-2,-1025
1245,14.478905,0,0,-1,2,-5,-1022
1246,14.490464,0,-1,0,1,1,-1027
1247,14.50209,0,0,0,0,2,-1025
1248,14.513746,0,-1,0,0,-5,-1025
1249,14.525398,-1,0,1,0,1,-1032
1250,14.537073,-1,0,0,3,-2,-1035
1251,14.548755,0,0,0,4,3,-1025
1252,14.560405,0,-1,0,1,-1,-1029
1253,14.572056,0,-1,0,-1,2,-1024
1254,14.583737,-1,0,0,2,0,-1034
1255,14.595393,0,0,0,-3,2,-1020
1256,14.607054,0,0,-1,-1,0,-1022
1257,14.618623,-1,0,0,-3,0,-1020
1258,14.630175,-1,0,0,3,-1,-1025
1259,14.641716,0,0,0,1,-1,-1027
1260,14.653265,-1,1,0,5,3,-1029
1261,14.664813,0,0,0,3,-6,-1021
1262,14.676386,-1,-1,0,-1,-2,-1020
1263,14.687972,-1,-1,0,1,3,-1027
1264,14.699581,0,0,1,0,-1,-1029
1265,14.711243,0,0,0,2,0,-1022
1266,14.722901,0,-1,0,3,4,-1024
1267,14.734552,0,0,0,-1,2,-1017
1268,14.746222,0,0,1,0,3,-1022
1269,14.757879,0,0,0,-4,-2,-1028
1270,14.769529,-1,0,-1,0,2,-1023
1271,14.781172,0,0,0,6,-1,-1035
1272,14.792888,0,-1,0,1,-1,-1027
1273,14.80486,0,-1,0,2,-2,-1026
1274,14.81662,0,0,0,3,-3,-1028
1275,14.828217,0,0,-1,1,1,-1030
1276,14.839794,0,0,0,3,-3,-1025
1277,14.851361,-1,0,0,1,-3,-1018
1278,14.86291,0,-1,0,-2,-4,-1030
1279,14.874494,0,0,0,-1,-1,-1021
1280,14.886049,0,0,0,4,-1,-1021
1281,14.897599,0,0,0,0,2,-1029
1282,14.909146,-1,0,0,6,-1,-1025
1283,14.920712,0,-1,0,-4,-1,-1024
1284,14.932333,-1,0,0,2,2,-1020
1285,14.943909,0,-1,0,1,-2,-1020
1286,14.955455,0,0,0,0,3,-1026
1287,14.967001,-1,0,0,-1,0,-1023
1288,14.978547,0,-1,0,2,-1,-1031
1289,14.990095,0,0,0,2,1,-1020
1290,15.001669,0,1,0,1,-1,-1029
1291,15.013329,-1,0,0,-1,0,-1024
1292,15.025018,0,0,0,-4,-2,-1021
1293,15.036696,0,0,0,2,-2,-1028
1294,15.048374,0,0,0,-2,1,-1025
1295,15.060108,0,0,0,-2,1,-1029
1296,15.071791,0,0,0,2,2,-1014
1297,15.083449,0,0,0,2,2,-1025
1298,15.095098,1,0,1,2,4,-1028
1299,15.106784,0,0,0,-2,0,-1023
1300,15.11844,0,-1,0,0,0,-1023
1301,15.130013,0,0,0,3,0,-1022
1302,15.141653,-1,0,0,2,2,-1025
1303,15.153205,-1,-1,0,-1,-1,-1024
1304,15.164796,0,-1,0,0,-1,-1022
1305,15.176394,-1,-1,0,2,1,-1028
1306,15.187957,-1,-1,0,-3,3,-1024
1307,15.199509,-1,0,0,-1,-3,-1025
1308,15.211068,-1,-1,-1,-3,4,-1022
1309,15.222728,0,0,0,1,-1,-1026
1310,15.234416,0,-1,0,-1,-1,-1025
1311,15.246085,-1,0,0,-3,-4,-1028
1312,15.257756,0,0,1,-2,4,-1023
1313,15.269431,0,0,0,1,0,-1016
1314,15.281087,0,-1,0,-3,0,-1029
1315,15.292788,0,-1,1,2,-3,-1028
1316,15.304481,-1,-1,1,2,-3,-1027
1317,15.316145,0,0,0,-3,-1,-1025
1318,15.327847,0,-1,0,-4,2,-1026
1319,15.339408,0,0,-1,3,0,-1031
1320,15.350997,0,-1,-1,-1,3,-1031
1321,15.36256,-1,0,-1,-1,4,-1021
1322,15.374117,-1,-1,0,2,1,-1021
1323,15.385662,0,0,1,2,-1,-1026
1324,15.397207,0,0,0,0,0,-1026
1325,15.408753,0,-1,0,1,2,-1022
1326,15.420337,0,0,0,-2,1,-1019
1327,15.431986,-1,-1,0,2,-1,-1024
1328,15.443669,0,-1,1,-2,-4,-1024
1329,15.455319,0,-1,1,-1,1,-1026
1330,15.466988,0,-1,0,-1,-1,-1022
1331,15.478699,0,0,0,-1,2,-1024
1332,15.490358,0,0,0,2,-1,-1028
1333,15.502029,-1,-1,1,-3,0,-1018
1334,15.513682,0,0,0,-1,1,-1022
1335,15.525351,0,-1,1,1,-2,-1027
1336,15.537062,0,0,0,2,3,-1027
1337,15.548633,0,0,0,4,1,-1025
1338,15.560204,-1,0,0,-1,-4,-1028
1339,15.571769,0,-1,0,2,-1,-1021
1340,15.583353,0,0,-1,2,4,-1020
1341,15.594896,0,0,0,1,-2,-1030
1342,15.606442,0,0,0,0,0,-1026
1343,15.617993,0,-1,0,-1,0,-1023
1344,15.62956,0,-1,0,3,-4,-1024
1345,15.641195,0,0,0,-2,2,-1022
1346,15.652907,0,-1,0,2,-1,-1020
1347,15.664566,0,0,0,0,2,-1024
1348,15.676297,-1,0,-1,4,-2,-1027
1349,15.687945,0,0,0,1,0,-1023
1350,15.699612,0,0,0,-1,-1,-1029
1351,15.711283,0,0,1,-1,-2,-1024
1352,15.722937,-1,-1,0,-1,-1,-1027
1353,15.734602,0,-1,1,1,1,-1031
1354,15.74628,0,-1,1,0,-1,-1011
1355,15.757867,0,-1,0,1,0,-1020
1356,15.769427,0,0,0,1,-1,-1030
1357,15.780993,-1,0,0,4,3,-1018
1358,15.792557,-1,1,-1,-1,5,-1028
1359,15.804082,0,-1,-1,4,-1,-1027
1360,15.815602,0,0,0,1,2,-1023
1361,15.827147,0,-1,0,2,-1,-1023
1362,15.838741,-1,-1,-1,3,2,-1021
1363,15.85036,0,0,0,-1,3,-1029
1364,15.862046,0,0,-1,2,1,-1025
1365,15.873701,0,0,-1,1,-1,-1028
1366,15.885366,0,0,0,-2,-1,-1021
1367,15.897029,0,0,-1,-1,2,-1028
1368,15.908687,0,-1,0,3,-1,-1026
1369,15.920387,0,0,0,-2,-1,-1021
1370,15.93205,-1,0,0,6,3,-1025
1371,15.943745,-1,0,0,-1,1,-1034
1372,15.955409,-1,0,0,2,1,-1024
1373,15.966967,-1,0,0,0,0,-1029
1374,15.978518,0,-1,0,3,-3,-1017
1375,15.990085,0,0,0,1,2,-1023
1376,16.001641,0,0,0,0,0,-1029
1377,16.013222,-1,0,0,1,3,-1023
1378,16.024805,0,-1,0,0,1,-1025
1379,16.03634,0,0,0,3,0,-1019
1380,16.04792,-1,0,0,-6,0,-1024
1381,16.059544,0,-1,0,-5,0,-1025
1382,16.071199,-1,-1,0,-2,-3,-1026
1383,16.082862,0,-1,-1,-1,1,-1025
1384,16.09454,0,-1,0,5,1,-1024
1385,16.106183,-1,-1,0,-1,0,-1021
1386,16.117837,0,0,0,-1,-1,-1020
1387,16.129513,0,0,0,-2,2,-1033
1388,16.141159,0,0,0,2,-2,-1027
1389,16.152831,-1,0,0,0,4,-1020
1390,16.1645,-1,0,0,-2,-4,-1022
1391,16.176132,-1,-1,-1,-5,2,-1017
1392,16.187745,-1,0,0,1,0,-1020
1393,16.199329,0,0,0,1,-1,-1025
1394,16.210886,-1,0,0,2,1,-1019
1395,16.222463,0,-1,0,3,0,-1021
1396,16.234007,-1,0,0,2,-1,-1025
1397,16.24555,-1,0,0,4,4,-1020
1398,16.257113,-1,0,0,2,1,-1026
1399,16.268789,0,0,0,2,0,-1024
1400,16.280448,-1,-1,1,-2,1,-1022
1401,16.292136,-1,-1,1,1,3,-1024
1402,16.303795,0,0,1,0,0,-1019
1403,16.315436,-1,0,0,1,-1,-1024
1404,16.327084,-1,0,0,-2,-1,-1020
1405,16.338781,0,0,0,0,3,-1028
1406,16.3505,-1,0,-1,-1,4,-1023
1407,16.362164,0,0,0,2,0,-1029
1408,16.373863,-1,0,0,3,3,-1020
1409,16.385463,0,-1,0,-4,0,-1034
1410,16.397042,0,0,0,2,5,-1030
1411,16.408568,-1,-1,0,0,0,-1023
1412,16.420151,-1,-1,-1,-1,2,-1021
1413,16.431728,-1,0,0,1,-3,-1024
1414,16.443295,-1,0,0,-2,2,-1027
1415,16.45484,-1,-1,0,2,-2,-1024
1416,16.466392,-1,0,0,3,-3,-1027
1417,16.478021,-1,0,0,0,0,-1028
1418,16.489673,0,-1,0,3,0,-1027
1419,16.501341,0,-1,0,-4,2,-1018
1420,16.51303,-1,0,0,0,-3,-1020
1421,16.52468,0,-1,1,4,1,-1029
1422,16.536371,0,1,0,0,0,-1017
1423,16.548039,0,-1,0,-1,3,-1029
1424,16.559717,-1,0,-1,-5,3,-1024
1425,16.571397,-1,-1,-1,3,2,-1024
1426,16.58307,0,0,1,1,-1,-1025
1427,16.594628,0,0,1,3,2,-1022
1428,16.606207,-1,-1,-1,0,3,-1028
1429,16.617759,0,-1,1,3,-2,-1024
1430,16.629319,0,-1,0,0,-3,-1032
1431,16.640865,-1,-1,0,2,-2,-1027
1432,16.65244,0,-1,0,-2,1,-1029
1433,16.663993,0,0,0,-1,-1,-1027
1434,16.675588,0,0,0,1,3,-1028
1435,16.687286,0,-1,0,-2,2,-1022
1436,16.698966,0,-1,0,0,-2,-1022
1437,16.71063,0,0,0,2,0,-1025
1438,16.722281,-1,0,0,0,-1,-1020
1439,16.73395,-1,-1,0,0,6,-1025
1440,16.745609,-1,-1,-1,0,2,-1027
1441,16.757263,0,0,0,0,-1,-1027
1442,16.768898,0,-1,0,1,-3,-1019
1443,16.780556,0,-1,0,0,-2,-1024
1444,16.792108,0,0,0,1,3,-1020
1445,16.803717,-1,0,1,0,-1,-1020
1446,16.815286,0,0,0,4,1,-1021
1447,16.826825,0,-1,0,0,-2,-1023
1448,16.838365,-1,-1,-1,3,0,-1028
1449,16.84993,0,0,0,2,-3,-1025
1450,16.861507,0,0,0,-3,0,-1018
1451,16.87307,0,0,0,4,2,-1020
1452,16.88464,0,0,0,2,2,-1029
1453,16.896273,0,0,0,0,-5,-1027
1454,16.907925,-1,0,0,-2,0,-1026
1455,16.919608,0,0,0,-1,-2,-1023
1456,16.931257,0,0,0,-5,0,-1029
1457,16.942891,0,-1,0,2,-2,-1026
1458,16.95454,-1,-1,0,1,-1,-1021
1459,16.966225,0,-1,0,0,-1,-1022
1460,16.977864,0,0,0,2,-2,-1021
1461,16.989525,0,0,0,4,0,-1022
1462,17.001196,-1,0,-1,-1,2,-1028
1463,17.012813,-1,-1,0,-1,0,-1024
1464,17.024366,0,-1,0,2,-1,-1018
1465,17.035923,0,-1,0,5,0,-1022
1466,17.047471,-1,-1,1,-2,0,-1028
1467,17.059018,0,0,0,1,-1,-1026
1468,17.070568,0,0,0,1,1,-1026
1469,17.082113,1,0,0,2,-2,-1027
1470,17.093681,0,0,0,-2,1,-1021
1471,17.105317,-1,0,0,1,0,-1023
1472,17.117021,-1,-1,0,-2,-1,-1019
1473,17.128677,0,0,0,-2,1,-1027
1474,17.140372,-1,0,0,0,-4,-1028
1475,17.15207,-1,0,0,0,-1,-1022
1476,17.163741,-1,-1,0,2,-3,-1024
1477,17.175398,-1,-1,1,0,3,-1020
1478,17.187068,0,1,-1,-2,-1,-1031
1479,17.19873,-1,0,0,0,4,-1025
1480,17.210296,0,-1,1,2,-2,-1026
1481,17.221877,0,1,0,-1,2,-1020
1482,17.233445,1,-1,0,-1,2,-1024
1483,17.245025,0,-1,1,0,0,-1024
1484,17.256562,0,1,0,-1,4,-1026
1485,17.268079,0,0,0,4,-4,-1024
1486,17.279599,0,1,0,-2,-3,-1022
1487,17.291148,0,0,0,4,2,-1025
1488,17.302709,0,0,0,2,0,-1019
1489,17.314355,0,0,-1,0,-1,-1029
1490,17.326018,0,0,0,0,1,-1017
1491,17.337722,-1,0,0,0,-1,-1024
1492,17.349369,0,0,1,-1,2,-1028
1493,17.36103,0,-2,0,-2,-2,-1023
1494,17.372694,-1,-2,-1,0,-1,-1026
1495,17.384376,0,0,0,-5,-1,-1024
1496,17.396055,-1,0,0,-2,0,-1018
1497,17.407743,0,-1,0,0,2,-1026
1498,17.419423,0,-1,0,-2,-2,-1025
1499,17.430998,0,0,1,1,1,-1031
1500,17.442542,-1,0,0,-1,-1,-1029
1501,17.454085,-1,0,0,0,0,-1026
1502,17.465642,0,0,0,1,0,-1025
1503,17.477202,0,0,0,-3,0,-1026
1504,17.488754,0,0,0,0,0,-1024
1505,17.500328,0,0,0,-1,3,-1024
1506,17.511934,-1,1,0,1,-1,-1021
1507,17.523672,0,0,0,4,5,-1021
1508,17.535337,-1,0,-1,5,2,-1022
1509,17.546986,-1,0,0,3,0,-1024
1510,17.558653,0,0,0,2,5,-1032
1511,17.57032,0,0,0,0,0,-1027
1512,17.581971,-1,0,0,0,2,-1032
1513,17.593622,0,0,-1,5,0,-1029
1514,17.605277,0,-1,0,2,3,-1024
1515,17.616952,0,-1,0,-1,-3,-1031
1516,17.628605,-1,0,0,2,1,-1024
1517,17.640194,-1,0,0,-2,1,-1022
1518,17.65177,0,-1,-1,-2,-2,-1019
1519,17.663334,0,-1,0,-1,-1,-1023
1520,17.6749,0,0,0,-3,1,-1026
1521,17.686454,-1,0,-1,-2,2,-1023
1522,17.698028,-1,0,0,1,-1,-1018
1523,17.70957,0,-1,-1,0,-1,-1025
1524,17.721123,0,0,0,1,-1,-1025
1525,17.732798,0,-1,1,1,-3,-1027
1526,17.744461,0,0,0,0,-2,-1021
1527,17.756136,0,0,0,-5,1,-1024
1528,17.767849,-1,0,-1,-1,1,-1018
1529,17.779502,-1,-1,0,1,2,-1020
1530,17.791175,0,0,0,-2,-4,-1025
1531,17.802844,0,0,0,-1,0,-1026
1532,17.815156,0,0,0,7,0,-1025
1533,17.826977,-1,0,0,-1,3,-1034
1534,17.838554,0,0,0,2,-2,-1030
1535,17.850118,-1,0,0,3,2,-1025
1536,17.861672,0,0,0,-4,0,-1027
1537,17.873223,0,0,0,6,-1,-1025
1538,17.884803,-1,0,1,1,0,-1030
1539,17.896341,0,-1,0,-2,-3,-1021
1540,17.907904,0,-1,0,4,1,-1026
1541,17.919471,0,0,0,2,-2,-1028
1542,17.931151,-1,-1,0,1,-2,-1026
1543,17.942823,0,0,0,2,-1,-1020
1544,17.954474,0,-1,0,4,0,-1026
1545,17.966149,0,1,0,1,2,-1021
1546,17.977803,0,0,0,4,0,-1027
1547,17.989457,0,0,1,2,-1,-1020
1548,18.001169,-1,0,0,3,0,-1026
1549,18.012877,0,-1,-1,-1,1,-1018
1550,18.024715,-1,0,0,-2,3,-1026
1551,18.036316,-1,0,0,0,4,-1028
1552,18.047846,0,0,0,-1,-5,-1029
1553,18.0594,0,-1,0,2,2,-1022
1554,18.070937,0,0,0,-3,-1,-1027
1555,18.082489,0,0,0,0,-2,-1027
1556,18.094041,0,0,0,3,0,-1026
1557,18.105623,-1,0,0,-1,0,-1024
1558,18.117162,1,0,0,2,-2,-1028
1559,18.128739,-1,0,-1,-3,3,-1023
1560,18.140399,-1,1,0,-2,1,-1023
1561,18.152071,0,-1,0,0,1,-1019
1562,18.163743,0,-1,-1,0,-1,-1020
1563,18.175399,0,-1,0,0,-1,-1024
1564,18.187057,0,0,1,-2,2,-1022
1565,18.198707,0,0,0,-4,1,-1025
1566,18.210353,-1,0,0,-1,4,-1022
1567,18.222038,-1,-1,-1,-1,-2,-1023
1568,18.233817,0,0,1,-3,-2,-1027
1569,18.245382,-1,0,0,0,-1,-1019
1570,18.256937,-1,0,0,4,0,-1022
1571,18.268537,-1,0,0,-2,0,-1027
1572,18.280131,0,0,0,4,-5,-1023
1573,18.29168,0,-1,0,3,2,-1020
1574,18.303236,-2,0,0,-2,0,-1021
1575,18.314778,0,-1,0,1,0,-1021
1576,18.328361,0,-1,0,-1,1,-1024
1577,18.340012,0,0,-1,-3,-1,-1024
1578,18.351607,-1,0,0,0,2,-1018
1579,18.363159,-1,1,0,0,0,-1017
1580,18.374736,0,0,0,2,-1,-1023
1581,18.386278,0,-1,0,3,0,-1024
1582,18.397874,0,0,0,-2,0,-1026
1583,18.409425,-1,0,0,2,-1,-1019
1584,18.421003,-1,1,0,-1,2,-1022
1585,18.432631,0,0,0,2,1,-1025
1586,18.444247,0,-1,0,4,0,-1025
1587,18.455839,0,0,0,3,-2,-1025
1588,18.467396,-1,1,0,1,-1,-1028
1589,18.478979,0,1,0,1,0,-1028
1590,18.490522,0,0,0,-1,-3,-1019
1591,18.502069,0,-1,0,6,0,-1021
1592,18.513619,0,0,-1,-1,2,-1021
1593,18.525182,0,0,0,1,-3,-1020
1594,18.536752,0,-1,1,2,1,-1026
1595,18.548435,-1,-1,0,-2,7,-1027
1596,18.560084,-1,-1,0,0,-3,-1022
1597,18.571794,0,-1,0,-2,2,-1019
1598,18.58345,0,0,0,-4,2,-1025
1599,18.595106,-1,0,1,4,3,-1025
1600,18.606778,0,0,0,1,2,-1022
1601,18.61843,0,-1,-1,0,-3,-1023
1602,18.630101,0,0,0,3,-1,-1028
1603,18.641872,0,0,0,0,-2,-1024
1604,18.653564,0,0,1,-3,2,-1020
1605,18.665261,-1,-1,0,-4,-1,-1024
1606,18.676849,0,0,0,0,5,-1024
1607,18.688458,0,-1,0,3,1,-1019
1608,18.700006,-1,0,0,-3,-1,-1016
1609,18.711548,0,0,0,2,-2,-1024
1610,18.723107,0,0,-1,1,1,-1019
1611,18.734694,-1,-1,1,-1,1,-1031
1612,18.746272,-1,0,0,-1,0,-1027
1613,18.757879,0,-1,0,-2,-1,-1021
1614,18.76946,1,-1,0,1,1,-1027
1615,18.781029,0,-1,0,-1,1,-1024
1616,18.792565,0,-1,-1,2,0,-1023
1617,18.804174,0,0,-1,0,1,-1026
1618,18.81575,-1,0,0,-2,0,-1024
1619,18.827358,0,-1,0,-2,-2,-1024
1620,18.83901,0,-1,0,0,1,-1019
1621,18.85062,-1,0,0,-1,-2,-1024
1622,18.862219,0,-1,-1,-4,-3,-1028
1623,18.873772,0,-1,-1,0,2,-1026
1624,18.885342,0,-1,1,0,-1,-1030
1625,18.896893,0,0,0,3,-2,-1020
1626,18.908467,0,-1,0,-1,3,-1025
1627,18.920022,0,0,0,4,1,-1032
1628,18.9316,-1,-1,-1,-1,0,-1033
1629,18.943143,1,-1,1,1,3,-1025
1630,18.95469,0,0,0,-3,-1,-1024
1631,18.966253,0,-1,0,3,0,-1026
1632,18.977942,-1,-1,0,2,2,-1033
1633,18.989607,0,-1,0,-1,-1,-1022
1634,19.001278,0,0,0,2,2,-1026
1635,19.012984,0,-1,0,1,-1,-1025
1636,19.024647,0,-1,0,4,-2,-1020
1637,19.036309,0,-1,1,0,-1,-1023
1638,19.047999,0,0,0,2,1,-1030
1639,19.059654,0,-1,0,0,1,-1022
1640,19.071389,-1,0,0,3,-1,-1020
1641,19.083083,0,0,0,1,-1,-1027
1642,19.094636,0,-1,0,-4,1,-1026
1643,19.106209,0,0,0,2,0,-1027
1644,19.117752,0,-1,0,0,0,-1023
1645,19.129345,0,-1,1,5,-1,-1023
1646,19.140949,-1,-1,0,0,3,-1023
1647,19.152503,0,0,0,2,2,-1029
1648,19.164092,-1,-1,0,-2,0,-1033
1649,19.175657,-1,-1,0,2,0,-1025
1650,19.187284,0,-1,0,1,3,-1026
1651,19.198941,0,0,0,1,-2,-1025
1652,19.210595,-1,0,0,1,-1,-1023
1653,19.222269,0,0,0,2,-5,-1019
1654,19.233927,-1,1,0,0,-1,-1023
1655,19.245699,0,-1,0,-3,2,-1025
1656,19.25752,0,-1,0,0,0,-1024
1657,19.269201,0,0,0,2,0,-1027
1658,19.280921,-1,1,0,2,-5,-1028
1659,19.29264,0,0,0,-5,3,-1028
1660,19.304219,0,0,0,-2,-1,-1023
1661,19.315823,-1,-1,-1,-1,0,-1023
1662,19.327374,0,0,0,1,1,-1023
1663,19.338925,0,-1,1,-1,0,-1022
1664,19.350491,-1,0,0,2,-3,-1021
1665,19.36208,-1,-1,-1,0,0,-1026
1666,19.37363,0,0,-1,5,-1,-1021
1667,19.385235,0,0,1,0,-1,-1027
1668,19.396888,-1,-1,-1,0,2,-1027
1669,19.408547,0,0,0,2,1,-1026
1670,19.420241,-1,0,0,0,2,-1026
1671,19.431871,-1,0,0,-1,3,-1020
1672,19.44352,-1,1,0,3,-1,-1018
1673,19.455171,-1,0,0,-2,0,-1024
1674,19.466811,-1,0,0,2,0,-1027
1675,19.478492,-1,-1,0,1,-3,-1030
1676,19.490158,0,-1,0,-1,1,-1026
1677,19.501829,0,0,0,3,-2,-1025
1678,19.513396,-1,0,-1,2,0,-1021
1679,19.524953,-1,0,0,-5,-3,-1019
1680,19.536571,0,0,0,0,4,-1023
1681,19.548129,0,-1,1,-2,-2,-1026
1682,19.559726,0,0,0,-3,-3,-1025
1683,19.571263,0,0,0,1,5,-1030
1684,19.582806,-1,-1,0,0,1,-1019
1685,19.594367,0,0,-1,-1,0,-1024
1686,19.606002,0,0,0,0,0,-1024
1687,19.617669,0,-1,-1,-1,-2,-1028
1688,19.629322,-1,0,0,1,-1,-1026
1689,19.640976,-1,0,0,2,-2,-1024
1690,19.652649,0,0,-1,1,2,-1032
1691,19.664366,-1,-1,0,-1,0,-1025
1692,19.676034,0,-1,0,-4,-4,-1028
1693,19.687737,-1,0,0,-2,-1,-1023
1694,19.699401,0,0,0,2,1,-1024
1695,19.711082,0,0,-1,3,1,-1025
1696,19.722676,0,0,0,0,2,-1025
1697,19.734219,0,0,0,1,0,-1036
1698,19.745767,0,0,0,6,-1,-1024
1699,19.757356,0,-1,0,3,-2,-1026
1700,19.768924,0,0,0,-2,-2,-1020
1701,19.780487,-1,0,0,5,-2,-1022
1702,19.792085,-1,0,0,2,-2,-1030
1703,19.803672,0,0,-1,-1,3,-1020
1704,19.815315,0,0,0,2,4,-1025
1705,19.826971,0,0,0,2,-3,-1029
1706,19.83863,0,0,-1,0,-2,-1027
1707,19.850292,1,0,0,1,3,-1023
1708,19.861971,1,-1,0,-1,0,-1021
1709,19.873623,0,-1,0,-1,-3,-1023
1710,19.885282,0,0,0,2,2,-1020
1711,19.896958,-1,0,0,4,3,-1023
1712,19.908645,-1,0,1,3,1,-1023
1713,19.920316,0,0,0,-3,0,-1025
1714,19.931849,-1,0,0,1,-3,-1027
1715,19.943398,0,0,0,3,3,-1024
1716,19.954944,0,0,0,0,1,-1025
1717,19.966487,0,-1,0,5,-2,-1030
1718,19.978038,0,0,0,5,2,-1021
1719,19.989588,0,0,-1,-1,-2,-1024
1720,20.00116,-1,0,0,-1,-1,-1026
1721,20.012725,0,1,0,-2,0,-1023
1722,20.024374,-1,0,-1,2,0,-1023
1723,20.036047,-1,-1,0,1,0,-1029
1724,20.047731,0,-1,0,2,-4,-1028
1725,20.059379,0,-1,0,2,1,-1023
1726,20.071036,0,-1,0,5,1,-1025
1727,20.082678,-1,0,0,-2,0,-1023
1728,20.094333,0,0,0,0,3,-1028
1729,20.105979,1,-1,0,-2,0,-1028
1730,20.117632,0,0,0,-2,-3,-1026
1731,20.129318,0,0,0,-1,-3,-1021
1732,20.140974,0,0,0,-1,-2,-1022
1733,20.152643,-1,0,0,2,1,-1027
1734,20.164312,0,0,-1,3,-1,-1021
1735,20.175991,0,-1,0,0,1,-1023
1736,20.18761,-1,-1,0,2,8,-1032
1737,20.199256,0,0,0,-1,-1,-1024
1738,20.210927,0,0,0,0,1,-1034
1739,20.22261,-1,-1,0,1,1,-1023
1740,20.23426,-1,1,0,2,5,-1027
1741,20.245934,-1,-1,0,2,-1,-1031
1742,20.257589,-1,0,0,0,-5,-1027
1743,20.269313,0,-1,1,-2,4,-1021
1744,20.281105,0,-1,0,0,-2,-1025
1745,20.292803,0,-1,0,1,-1,-1028
1746,20.304565,0,0,0,3,-1,-1020
1747,20.316253,-1,0,0,1,3,-1026
1748,20.327962,-1,-1,0,2,-3,-1025
1749,20.339612,0,-1,0,-6,0,-1021
1750,20.351266,0,-1,0,0,-3,-1019
1751,20.362941,0,0,0,1,-1,-1018
1752,20.374587,0,0,1,3,-3,-1024
1753,20.386239,0,0,0,-2,3,-1025
1754,20.397899,0,-1,-1,1,0,-1026
1755,20.409569,-1,0,0,-2,3,-1024
1756,20.42122,0,0,-1,1,2,-1025
1757,20.432933,0,0,0,0,-1,-1025
1758,20.444623,0,0,0,-2,2,-1028
1759,20.456203,-1,0,0,-2,4,-1028
1760,20.467779,-1,-1,0,2,2,-1028
1761,20.479323,0,0,-1,0,-1,-1027
1762,20.490869,0,0,-1,2,0,-1022
1763,20.502441,-1,0,0,-3,-2,-1023
1764,20.513993,0,0,0,0,1,-1030
1765,20.525537,-1,-1,0,3,-1,-1026
1766,20.537154,0,-1,-1,2,-1,-1025
1767,20.548916,0,-1,0,-2,-1,-1022
1768,20.560586,0,-1,0,3,1,-1027
1769,20.572275,0,0,0,3,2,-1019
1770,20.583947,-1,-1,0,2,-2,-1025
1771,20.595615,-1,0,0,-2,1,-1025
1772,20.607304,-1,0,-1,0,0,-1025
1773,20.618953,0,-1,-1,-1,1,-1022
1774,20.630605,-1,0,0,1,2,-1023
1775,20.642302,0,1,0,2,-3,-1031
1776,20.653971,-1,0,0,0,0,-1029
1777,20.665544,-1,-1,0,0,2,-1026
1778,20.677098,0,-1,0,3,-4,-1025
1779,20.688684,-1,0,0,-4,2,-1017
1780,20.700247,0,0,0,-2,1,-1024
1781,20.711817,0,-1,0,-3,-3,-1022
1782,20.723383,-1,-1,0,-1,-2,-1024
1783,20.734935,0,0,0,5,1,-1023
1784,20.746524,0,0,0,1,0,-1026
1785,20.758156,0,0,-1,0,3,-1026
1786,20.769823,0,-1,0,0,1,-1022
1787,20.781477,0,1,-1,0,-3,-1025
1788,20.793181,0,-1,0,-2,4,-1032
1789,20.804967,0,0,0,-2,3,-1028
1790,20.816805,-1,0,0,-5,-2,-1027
1791,20.828538,0,-1,0,4,-1,-1020
1792,20.840226,0,-1,0,-1,3,-1024
1793,20.851981,0,-1,1,3,-3,-1028
1794,20.863681,-1,0,0,-1,0,-1024
1795,20.875361,-1,-1,0,-1,-2,-1022
1796,20.888872,0,-2,1,-2,-2,-1024
1797,20.900492,0,-1,0,-3,-1,-1029
1798,20.912095,0,0,0,-1,-2,-1024
1799,20.923666,1,0,0,1,1,-1021
1800,20.935218,0,0,-1,1,-1,-1016
1801,20.946774,0,0,-1,0,1,-1026
1802,20.958382,0,-1,-1,6,1,-1021
1803,20.969936,0,0,0,-2,-3,-1025
1804,20.981495,0,-1,0,0,4,-1024
1805,20.993051,0,-1,0,0,-1,-1028
1806,21.004627,0,0,0,-2,0,-1028
1807,21.016207,0,0,0,0,3,-1026
1808,21.027764,-1,0,1,-1,-4,-1025
1809,21.039309,-1,0,0,-3,-3,-1031
1810,21.050857,0,0,0,2,-5,-1021
1811,21.062419,-1,0,-1,1,1,-1027
1812,21.074094,-1,-1,0,0,1,-1025
1813,21.085782,0,-1,0,1,-1,-1026
1814,21.097444,0,0,0,-2,-2,-1032
1815,21.109108,0,0,0,0,-3,-1028
1816,21.120783,0,0,1,1,-1,-1027
1817,21.132448,0,0,1,1,1,-1026
1818,21.144137,0,-1,0,3,0,-1018
1819,21.155798,0,-1,1,2,1,-1031
1820,21.167462,0,0,0,2,1,-1031
1821,21.179131,0,0,0,-4,1,-1028
1822,21.190699,0,0,0,1,3,-1027
1823,21.202255,-1,-1,0,-1,4,-1022
1824,21.21382,0,0,0,2,-2,-1024
1825,21.225379,0,0,0,4,2,-1019
1826,21.236943,0,0,0,-1,1,-1032
1827,21.248563,0,-1,0,1,4,-1025
1828,21.260085,0,0,0,3,-4,-1022
1829,21.271617,0,0,0,1,1,-1030
1830,21.283271,-1,-1,0,1,2,-1021
1831,21.294957,-1,0,0,-3,3,-1023
1832,21.30664,0,1,0,-1,0,-1024
1833,21.318299,0,0,-1,0,1,-1023
1834,21.329956,1,0,0,-1,3,-1025
1835,21.341629,0,-1,0,-1,0,-1024
1836,21.353283,0,-1,1,4,4,-1020
1837,21.364938,-1,-1,0,1,-1,-1025
1838,21.376655,-1,0,0,-3,-1,-1024
1839,21.388371,0,0,0,-2,-3,-1019
1840,21.399996,0,0,0,3,2,-1024
1841,21.411584,-1,-1,0,-1,5,-1029
1842,21.423125,0,-1,0,-3,-2,-1023
1843,21.43467,-1,0,0,-4,1,-1021
1844,21.446215,-1,0,-1,0,-4,-1025
1845,21.45776,-1,0,0,-2,1,-1024
1846,21.469338,-1,0,0,4,-4,-1021
1847,21.480899,-1,0,0,0,1,-1025
1848,21.492542,-1,-1,0,1,-1,-1023
1849,21.5042,-1,0,0,-2,-1,-1032
1850,21.515882,0,0,0,-6,-2,-1022
1851,21.527536,0,-1,1,5,2,-1023
1852,21.539176,0,-1,-1,1,0,-1020
1853,21.550821,0,-1,0,2,1,-1020
1854,21.562493,-1,-1,-1,-1,1,-1024
1855,21.574152,-1,0,0,3,-1,-1024
1856,21.58581,-1,1,0,-2,1,-1021
1857,21.597471,-1,0,0,0,-1,-1026
1858,21.609123,-1,0,0,3,0,-1023
1859,21.620717,-1,0,0,3,0,-1028
1860,21.63226,-1,0,0,-1,-1,-1026
1861,21.643833,0,-1,0,1,-2,-1023
1862,21.655382,1,0,0,-3,-3,-1028
1863,21.666928,0,0,1,2,-4,-1021
1864,21.67847,-1,0,0,1,-1,-1020
1865,21.690038,0,0,0,2,3,-1027
1866,21.70166,0,0,0,0,-1,-1025
1867,21.713311,0,1,0,1,0,-1024
1868,21.724961,0,0,0,1,-2,-1023
1869,21.736644,0,0,0,-2,-2,-1029
1870,21.748299,0,0,-1,5,1,-1026
1871,21.759961,1,0,0,3,2,-1024
1872,21.771615,0,0,0,0,-3,-1027
1873,21.78329,0,0,0,-1,-1,-1026
1874,21.794954,-1,0,0,-1,-1,-1026
1875,21.806632,0,-1,0,1,-1,-1022
1876,21.81819,0,0,0,-3,2,-1027
1877,21.82974,-1,0,0,4,0,-1026
1878,21.841284,0,0,0,1,2,-1023
1879,21.852805,0,-1,0,-2,3,-1029
1880,21.864324,-1,0,0,-1,5,-1021
1881,21.875845,-1,0,0,-2,-3,-1026
1882,21.887422,0,-1,0,4,-4,-1028
1883,21.898971,0,0,0,-1,-2,-1025
1884,21.910635,0,-1,0,2,-2,-1022
1885,21.922292,-1,0,0,3,1,-1019
1886,21.93393,0,-1,1,-1,0,-1026
1887,21.945604,-1,0,0,0,-1,-1025
1888,21.957265,-1,0,0,1,-4,-1018
1889,21.968896,0,-1,0,0,1,-1023
1890,21.980587,-1,-1,0,-3,0,-1024
1891,21.992263,-1,-1,1,1,1,-1030
1892,22.00393,-1,-1,0,-1,2,-1020
1893,22.015611,-1,-1,0,4,1,-1026
1894,22.027207,-1,-1,-1,2,1,-1023
1895,22.038755,0,-1,0,0,0,-1026
1896,22.050311,-1,-1,-1,-1,-2,-1023
1897,22.061862,0,0,0,4,2,-1027
1898,22.073407,0,0,-1,0,1,-1023
1899,22.084962,-1,-1,0,-1,5,-1025
1900,22.096573,0,-1,-1,2,-2,-1028
1901,22.108159,0,0,0,-2,-1,-1026
1902,22.119935,0,0,0,1,-7,-1024
1903,22.131631,0,-1,0,-4,1,-1026
1904,22.143288,0,-1,0,-2,2,-1022
1905,22.154941,-1,1,-1,1,0,-1019
1906,22.166602,0,-1,1,3,1,-1022
1907,22.178265,0,-1,0,-2,1,-1026
1908,22.189916,0,0,0,0,5,-1029
1909,22.201597,0,0,0,2,0,-1030
1910,22.213248,0,0,0,-1,-1,-1021
1911,22.224822,0,-1,0,-3,-1,-1026
1912,22.236388,0,0,-1,0,-1,-1028
1913,22.247964,-1,0,0,-1,-3,-1023
1914,22.259529,0,0,0,3,2,-1021
1915,22.271112,0,-1,0,-1,-2,-1027
1916,22.282656,-1,0,0,-1,-2,-1027
1917,22.294203,0,0,-1,2,2,-1024
1918,22.305762,0,0,0,-1,0,-1020
1919,22.317376,-1,1,1,2,3,-1020
1920,22.329071,0,0,1,4,0,-1027
1921,22.340759,-1,0,0,3,1,-1024
1922,22.352443,0,0,1,0,-3,-1024
1923,22.364128,0,0,0,3,-1,-1024
1924,22.375777,0,0,1,0,4,-1018
1925,22.387425,0,0,0,-4,-5,-1025
1926,22.399101,0,0,0,0,3,-1022
1927,22.410743,-1,0,0,1,-3,-1027
1928,22.422313,-1,0,1,-1,-2,-1023
1929,22.43386,-1,-1,1,-2,1,-1020
1930,22.445431,0,-1,0,0,-1,-1018
1931,22.456999,-1,0,0,-2,3,-1020
1932,22.468565,0,1,-1,-1,2,-1023
1933,22.48016,0,-1,0,4,0,-1022
1934,22.491726,0,-1,0,0,-2,-1030
1935,22.503293,-1,-1,0,-3,3,-1019
1936,22.514899,-1,0,-1,4,2,-1025
1937,22.526738,0,0,1,2,-4,-1029
1938,22.538443,0,0,0,2,-3,-1021
1939,22.550109,-1,-1,0,6,2,-1029
1940,22.561757,0,0,0,-2,-2,-1026
1941,22.573414,0,0,-1,3,1,-1024
1942,22.585102,0,0,0,2,-4,-1020
1943,22.596771,0,0,-1,-3,0,-1025
1944,22.608426,0,0,-1,2,-2,-1025
1945,22.620114,0,0,0,3,-1,-1034
1946,22.631675,0,-1,-1,1,-1,-1030
1947,22.643231,0,1,0,0,3,-1021
1948,22.654798,0,0,1,-2,-2,-1021
1949,22.666347,0,-1,1,1,-1,-1023
1950,22.677921,0,-1,0,-3,1,-1030
1951,22.689464,0,0,0,0,-4,-1031
1952,22.701048,-1,-1,0,1,0,-1026
1953,22.712562,0,0,-1,1,4,-1024
1954,22.724142,-1,0,0,1,-2,-1022
1955,22.735796,-1,0,0,-1,0,-1025
1956,22.747467,-1,0,1,1,2,-1024
1957,22.75912,0,0,0,-2,1,-1024
1958,22.770808,0,0,0,2,1,-1023
1959,22.782467,0,0,0,3,-2,-1026
1960,22.794129,0,0,0,0,-2,-1021
1961,22.805817,0,-1,0,2,-1,-1015
1962,22.817476,-1,-1,1,1,2,-1023
1963,22.829067,-1,-1,0,1,-3,-1025
1964,22.840659,0,0,0,4,0,-1023
1965,22.852214,0,0,0,4,-1,-1028
1966,22.863782,0,0,0,1,4,-1026
1967,22.875329,-1,0,-1,0,-2,-1026
1968,22.886877,-1,0,0,0,3,-1027
1969,22.898424,-1,0,0,2,-1,-1032
1970,22.91001,0,0,0,1,2,-1019
1971,22.921569,0,0,0,1,0,-1019
1972,22.933228,0,0,0,0,1,-1024
1973,22.94491,0,0,0,-1,1,-1022
1974,22.95657,-1,0,0,3,1,-1026
1975,22.968247,0,0,0,0,0,-1025
1976,22.97987,-1,-1,0,0,-2,-1028
1977,22.991511,0,0,0,5,-2,-1022
1978,23.003183,-1,0,0,0,5,-1026
1979,23.014851,-1,-1,0,-2,2,-1024
1980,23.026507,0,-1,0,1,1,-1019
1981,23.038177,-1,0,0,3,6,-1028
1982,23.049841,-1,-1,0,1,-4,-1028
1983,23.061521,0,-1,0,0,-4,-1027
1984,23.073191,-1,0,0,1,3,-1026
1985,23.08487,0,0,1,-1,-3,-1026
1986,23.096583,0,0,0,-4,-2,-1026
1987,23.10826,0,0,0,6,-2,-1037
1988,23.119986,0,-1,0,-1,1,-1026
1989,23.131713,0,-2,0,-2,2,-1021
1990,23.143419,0,1,0,0,1,-1026
1991,23.154974,0,0,0,0,3,-1025
1992,23.166528,0,0,0,1,3,-1023
1993,23.178073,0,0,-1,-2,-1,-1022
1994,23.189624,-1,-1,0,0,2,-1023
1995,23.201174,0,-1,-1,4,2,-1017
1996,23.212728,-1,0,0,-3,3,-1018
1997,23.224329,-1,0,1,4,-1,-1026
1998,23.235888,0,0,0,0,-2,-1025
1999,23.247438,0,0,0,3,2,-1027
