sample,t_s,gyro_x,gyro_y,gyro_z,accel_x,accel_y,accel_z
0,1.5e-05,-14,15,-56,1019,-3,-1531
1,0.011258,-4,4,1,1013,0,-1546
2,0.022445,19,-4,7,1008,2,-1531
3,0.033639,-4,-6,-10,1014,3,-1532
4,0.044882,-13,-15,-17,1024,-6,-1532
5,0.056078,-2,10,-21,1019,-3,-1521
6,0.067266,-8,-18,30,1016,-1,-1531
7,0.07845,1,-21,6,1023,-4,-1516
8,0.08964,10,-17,6,1025,-1,-1525
9,0.100829,6,-3,-7,1019,1,-1535
10,0.112019,11,-28,-8,1016,3,-1541
11,0.123204,-4,-2,8,1020,-8,-1530
12,0.134417,7,-13,9,1023,7,-1519
13,0.1456,18,-18,-51,1027,-4,-1529
14,0.156785,-21,-2,21,1010,-4,-1536
15,0.167958,-5,-7,82,1020,6,-1540
16,0.179143,-26,-8,8,1021,-3,-1537
17,0.190333,-40,-20,-40,1015,8,-1532
18,0.201519,22,17,26,1016,0,-1537
19,0.212707,-4,-19,-40,1018,3,-1533
20,0.223899,18,-8,53,1015,15,-1524
21,0.235087,-13,19,-53,1024,-5,-1544
22,0.246279,-2,0,7,1025,-7,-1536
23,0.257466,-22,24,-77,1028,-4,-1526
24,0.268654,11,6,37,1024,-7,-1539
25,0.279849,3,-4,3,1020,-7,-1536
26,0.291033,3,16,9,1022,3,-1535
27,0.302221,-2,0,-1,1020,0,-1535
28,0.313406,16,-15,16,1023,0,-1526
29,0.324593,4,12,-29,1015,-3,-1531
30,0.335771,-20,-2,38,1023,-7,-1546
31,0.346962,-1,10,0,1016,-7,-1528
32,0.358156,-24,8,13,1014,-10,-1529
33,0.369353,19,-8,-10,1018,-10,-1531
34,0.380512,5,-12,-22,1016,7,-1534
35,0.391707,-13,21,51,1017,6,-1520
36,0.402896,-14,0,62,1020,3,-1539
37,0.414095,-15,2,-59,1023,-1,-1536
38,0.425289,-3,22,-57,1022,1,-1543
39,0.436482,10,-24,-7,1018,-5,-1531
40,0.447674,-20,-17,-43,1019,0,-1530
41,0.458875,-9,16,12,1021,1,-1532
42,0.470062,0,2,21,1017,-1,-1535
43,0.481246,-20,12,-32,1030,6,-1545
44,0.492436,1,-2,39,1025,0,-1529
45,0.503585,12,-13,36,1020,-5,-1525
46,0.514769,-2,8,22,1015,-4,-1543
47,0.525953,-3,-12,23,1013,2,-1525
48,0.537137,1,-6,-5,1023,3,-1534
49,0.548324,-15,-15,5,1012,-4,-1548
50,0.559509,-15,-7,10,1017,-3,-1540
51,0.570695,7,-11,21,1020,-5,-1530
52,0.581879,9,-11,-31,1021,-5,-1542
53,0.593064,-12,2,41,1012,-3,-1530
54,0.604253,10,-4,-3,1018,-3,-1529
55,0.615443,-23,0,11,1017,0,-1535
56,0.626628,17,-8,-23,1016,7,-1527
57,0.637814,-12,13,33,1019,5,-1529
58,0.649001,14,-6,-82,1020,-5,-1531
59,0.660191,-12,15,-75,1018,4,-1541
60,0.671382,-3,-24,-39,1025,5,-1525
61,0.682566,10,32,36,1018,6,-1531
62,0.693755,18,-9,4,1026,-6,-1524
63,0.704941,2,-7,-37,1012,-6,-1530
64,0.716137,-28,-3,-46,1025,0,-1554
65,0.727325,-19,3,-47,1016,-2,-1534
66,0.738509,14,-1,9,1011,-2,-1514
67,0.749692,2,15,7,1015,-6,-1534
68,0.760878,7,-3,-4,1023,-5,-1527
69,0.772065,-17,9,21,1020,-5,-1529
70,0.783251,3,19,-11,1023,0,-1525
71,0.794432,5,12,-4,1015,10,-1546
72,0.805622,5,5,-21,1021,2,-1527
73,0.816811,-12,-4,16,1013,-6,-1548
74,0.828001,19,-9,-28,1019,-3,-1517
75,0.839188,-3,-5,-16,1017,0,-1535
76,0.850374,-9,1,-13,1018,3,-1537
77,0.861569,-7,4,-10,1028,4,-1535
78,0.872757,-15,16,25,1016,-1,-1537
79,0.883953,-17,4,34,1017,-5,-1537
80,0.895141,6,-11,51,1015,0,-1529
81,0.906329,-11,2,22,1025,7,-1534
82,0.91752,-24,-32,-32,1019,-3,-1541
83,0.928707,-12,-18,-31,1017,2,-1534
84,0.939903,-21,-12,-16,1026,-6,-1532
85,0.951088,10,4,35,1028,-9,-1537
86,0.962273,18,2,49,1014,7,-1539
87,0.973459,-11,8,14,1020,2,-1540
88,0.984647,-8,0,-14,1016,3,-1517
89,0.995835,1,-30,0,1017,-4,-1532
90,1.007019,21,14,-21,1015,-2,-1524
91,1.018208,-5,-14,34,1022,0,-1529
92,1.029392,-6,13,-27,1019,-4,-1548
93,1.040582,5,8,-16,1018,4,-1532
94,1.051773,-17,-5,19,1024,-5,-1538
95,1.062957,18,3,-6,1020,-3,-1520
96,1.074151,7,-5,-12,1028,-1,-1529
97,1.085335,-23,2,18,1024,0,-1537
98,1.096513,19,-3,-23,1013,-3,-1541
99,1.107718,-28,9,-42,1017,-5,-1531
100,1.118903,7,-32,67,1020,-2,-1543
101,1.130087,-26,6,-44,1015,5,-1524
102,1.141274,-17,-6,-60,1021,5,-1517
103,1.152461,16,-13,48,1022,-5,-1529
104,1.163653,-5,10,-50,1017,0,-1534
105,1.174844,-5,-1,-2,1022,0,-1543
106,1.186027,3,5,-34,1008,4,-1530
107,1.197215,2,-1,-9,1024,-2,-1531
108,1.208406,-12,1,6,1018,-7,-1534
109,1.219585,9,10,44,1015,-5,-1532
110,1.230776,-5,-14,22,1018,4,-1527
111,1.241973,20,23,-17,1015,-3,-1539
112,1.253159,-21,-25,-1,1027,-3,-1530
113,1.264323,-14,19,48,1015,-1,-1540
114,1.275507,-7,-16,-45,1020,-1,-1532
115,1.28669,-29,6,-43,1020,-1,-1515
116,1.297874,30,-2,58,1020,0,-1524
117,1.309058,18,8,42,1023,-2,-1535
118,1.320252,1,-27,18,1025,0,-1539
119,1.331436,-23,-11,-24,1012,-1,-1522
120,1.342619,16,12,4,1022,-1,-1533
121,1.353802,19,16,25,1016,4,-1553
122,1.364985,-6,-19,2,1027,-2,-1534
123,1.37614,-16,14,23,1021,6,-1531
124,1.387325,-16,-11,33,1022,0,-1542
125,1.398507,20,3,-22,1026,0,-1535
126,1.409693,-4,-6,-2,1024,2,-1535
127,1.420877,3,-4,-12,1011,1,-1531
128,1.432066,2,15,-65,1010,-3,-1540
129,1.44325,-22,-11,26,1021,0,-1539
130,1.454436,17,-6,62,1022,5,-1543
131,1.465626,20,-1,56,1019,-1,-1537
132,1.476807,-10,-11,6,1020,-2,-1548
133,1.487957,-6,8,-54,1025,-5,-1522
134,1.499143,-1,-1,-12,1016,2,-1522
135,1.510329,-9,3,-30,1020,-7,-1532
136,1.521514,13,2,-35,1014,5,-1530
137,1.532699,-14,2,13,1020,0,-1535
138,1.543887,-12,6,38,1020,-1,-1535
139,1.555071,-21,3,36,1030,-4,-1552
140,1.566253,-6,-24,34,1023,-6,-1522
141,1.577437,26,27,-6,1025,3,-1545
142,1.588628,-33,-18,-8,1017,6,-1527
143,1.599771,-1,35,68,1020,2,-1536
144,1.610954,9,-14,6,1019,-2,-1550
145,1.622136,-29,6,-39,1018,-13,-1537
146,1.633321,35,24,50,1023,-1,-1541
147,1.644509,-32,-29,-12,1020,0,-1539
148,1.655699,24,25,8,1018,7,-1526
149,1.666885,-28,-5,-12,1018,0,-1532
150,1.678071,15,-20,1,1028,-5,-1540
151,1.689255,-13,19,23,1020,0,-1528
152,1.700444,7,-14,0,1018,2,-1539
153,1.711634,16,13,-31,1021,0,-1539
154,1.722819,-14,-4,10,1019,3,-1550
155,1.734007,9,4,-3,1010,-7,-1537
156,1.745193,17,-6,-35,1021,-2,-1540
157,1.756384,-26,5,1,1018,7,-1520
158,1.767602,-23,12,-13,1028,-7,-1532
159,1.778858,-25,-7,-39,1018,-1,-1525
160,1.790052,-24,-1,-56,1026,-2,-1530
161,1.801243,-11,20,-25,1021,-10,-1536
162,1.812447,5,-1,57,1010,4,-1536
163,1.823635,4,3,47,1019,-8,-1536
164,1.834824,3,10,15,1012,-4,-1529
165,1.846014,2,4,21,1020,-1,-1525
166,1.8572,-6,11,17,1020,-5,-1530
167,1.86839,-10,-10,10,1016,-4,-1534
168,1.87962,20,3,-29,1017,-3,-1530
169,1.890814,-11,17,-7,1023,3,-1538
170,1.902003,14,0,21,1009,-9,-1547
171,1.91319,11,5,-24,1011,0,-1544
172,1.92438,-28,5,34,1017,-1,-1543
173,1.935585,19,-11,77,1026,0,-1529
174,1.94677,1,21,-12,1023,-3,-1537
175,1.957954,-32,-16,-33,1018,-6,-1529
176,1.969142,-28,-19,-24,1023,4,-1536
177,1.980331,-4,22,0,1019,2,-1520
178,1.991521,16,-5,37,1018,4,-1535
179,2.002771,-7,35,-20,1019,-3,-1532
180,2.013964,1,-12,-53,1024,1,-1526
181,2.02515,3,13,4,1016,2,-1530
182,2.03633,-9,0,-15,1014,8,-1522
183,2.047521,9,9,-1,1023,-5,-1531
184,2.058707,-14,-2,42,1023,-7,-1527
185,2.069899,10,-6,-26,1013,0,-1540
186,2.081086,-12,30,54,1016,-3,-1531
187,2.092298,3,21,10,1028,0,-1536
188,2.103485,32,-1,80,1014,-1,-1538
189,2.114694,-20,3,-40,1022,3,-1537
190,2.125881,-8,8,-1,1025,-5,-1529
191,2.137066,17,-4,71,1020,-5,-1531
192,2.148257,-14,8,-23,1019,-1,-1525
193,2.159441,3,-3,-5,1018,0,-1525
194,2.170624,-4,1,11,1019,2,-1538
195,2.181805,-16,25,31,1019,0,-1534
196,2.192988,9,-11,0,1023,3,-1531
197,2.204138,5,8,-15,1022,-3,-1530
198,2.215325,-21,-5,47,1014,5,-1538
199,2.226517,21,-9,-19,1028,-1,-1527
200,2.237704,-22,-20,0,1019,-4,-1527
201,2.248894,-10,13,-28,1013,0,-1523
202,2.260089,-19,-8,58,1020,-3,-1535
203,2.271273,1,-13,42,1013,2,-1534
204,2.282471,26,11,34,1021,-2,-1539
205,2.293666,-32,-19,-48,1016,-4,-1527
206,2.304852,27,37,36,1027,-8,-1530
207,2.316049,-25,-41,0,1020,-1,-1541
208,2.327232,20,32,-2,1020,-11,-1531
209,2.338417,4,-7,8,1026,0,-1525
210,2.349606,-7,9,21,1014,-2,-1541
211,2.360792,-6,0,11,1021,-7,-1532
212,2.371954,13,-4,-40,1024,0,-1544
213,2.383142,18,15,-36,1020,0,-1525
214,2.394326,-19,-5,13,1020,-2,-1534
215,2.405509,14,-18,25,1016,0,-1527
216,2.416693,17,-18,-37,1026,-5,-1539
217,2.427887,-14,18,3,1018,1,-1543
218,2.43907,13,-1,15,1025,7,-1529
219,2.450268,-18,7,-33,1022,-1,-1522
220,2.461452,5,4,52,1013,0,-1530
221,2.472636,10,-7,58,1022,0,-1516
222,2.483821,-9,15,10,1020,3,-1535
223,2.495004,-7,19,-35,1023,1,-1537
224,2.506186,14,-27,-17,1023,0,-1532
225,2.517373,-19,17,28,1019,-7,-1520
226,2.528561,11,-12,-16,1020,-5,-1539
227,2.53976,10,-6,-34,1010,9,-1551
228,2.550943,-25,3,11,1020,0,-1535
229,2.562127,-13,-26,39,1019,0,-1541
230,2.573312,-8,12,54,1014,-4,-1538
231,2.584524,16,30,22,1017,-8,-1534
232,2.595772,12,-20,52,1012,-5,-1536
233,2.606968,38,6,45,1025,3,-1548
234,2.618159,22,9,12,1018,8,-1527
235,2.629349,-11,-24,-28,1016,-4,-1532
236,2.640509,-15,3,49,1023,1,-1532
237,2.651699,-6,-6,4,1025,-9,-1536
238,2.662886,9,-4,10,1020,-1,-1517
239,2.674071,-10,9,40,1018,-7,-1539
240,2.685257,-12,-8,15,1020,-5,-1527
241,2.696447,19,17,-4,1022,7,-1539
242,2.707641,-8,-3,25,1016,-9,-1533
243,2.718827,-15,4,35,1024,-4,-1535
244,2.730015,-18,-9,32,1018,-4,-1536
245,2.741199,25,11,-30,1017,-14,-1541
246,2.752389,-29,-15,-37,1016,-2,-1526
247,2.763584,9,11,57,1018,-8,-1525
248,2.774795,23,11,47,1020,9,-1542
249,2.785982,3,2,25,1010,0,-1524
250,2.797166,7,-12,55,1014,-3,-1525
251,2.808325,25,16,36,1019,-4,-1541
252,2.819511,-21,-24,3,1022,-1,-1539
253,2.830695,-2,37,-30,1025,0,-1523
254,2.84188,14,-23,-3,1017,3,-1526
255,2.853065,-13,-1,-8,1021,-3,-1525
256,2.864253,-7,12,22,1019,-3,-1537
257,2.875447,10,1,-37,1017,3,-1535
258,2.886633,21,10,-1,1017,0,-1525
259,2.897824,-8,-9,0,1023,-5,-1536
260,2.909012,0,0,32,1015,4,-1526
261,2.920204,26,-1,-27,1022,2,-1532
262,2.931391,-38,8,-55,1026,0,-1543
263,2.942592,-15,-16,6,1018,0,-1528
264,2.953777,24,15,38,1013,8,-1535
265,2.964962,8,-6,45,1023,-4,-1532
266,2.976145,6,0,29,1019,2,-1547
267,2.987331,-9,6,-20,1015,-3,-1534
268,2.998519,-5,12,19,1019,0,-1530
269,3.009709,-2,-8,-45,1023,11,-1537
270,3.020896,6,-12,-10,1012,1,-1538
271,3.032093,-12,5,23,1022,0,-1531
272,3.043278,-26,-19,50,1016,3,-1536
273,3.054462,22,27,-18,1019,-4,-1531
274,3.06565,-23,-25,-2,1023,-2,-1540
275,3.076844,4,33,41,1022,-6,-1528
276,3.088032,1,-21,-42,1023,-9,-1537
277,3.099217,-14,16,12,1017,7,-1529
278,3.110404,26,-2,42,1014,-3,-1530
279,3.121598,21,26,48,1020,2,-1533
280,3.132783,-13,-27,-16,1014,-3,-1538
281,3.143961,-13,5,-16,1017,5,-1526
282,3.15515,7,21,-10,1013,-2,-1546
283,3.16634,18,-19,30,1027,-3,-1551
284,3.17753,-22,6,25,1027,-3,-1526
285,3.188716,-10,-1,9,1018,11,-1530
286,3.199904,-10,-2,41,1019,0,-1530
287,3.211088,-2,2,1,1018,-4,-1539
288,3.222273,22,0,-7,1016,-1,-1530
289,3.23346,-10,-1,2,1020,-2,-1547
290,3.24465,17,-6,-17,1020,-6,-1525
291,3.25584,8,8,-64,1020,2,-1531
292,3.267023,-35,-17,-17,1028,0,-1536
293,3.278219,2,5,23,1014,-2,-1535
294,3.289407,10,-9,73,1027,-11,-1528
295,3.300619,0,-11,28,1019,2,-1528
296,3.311774,2,9,-42,1019,-7,-1527
297,3.322958,-11,4,5,1021,1,-1540
298,3.334148,3,-6,-36,1020,2,-1531
299,3.345349,1,18,18,1020,-4,-1539
300,3.356506,-7,14,22,1016,2,-1526
301,3.367698,12,-16,-28,1013,-6,-1532
302,3.378882,0,3,-42,1016,2,-1540
303,3.390064,-2,-5,28,1017,-3,-1524
304,3.401251,4,18,-34,1018,1,-1535
305,3.412454,12,30,-29,1024,4,-1522
306,3.423643,6,-24,-16,1016,-3,-1524
307,3.43483,-15,-24,-70,1017,2,-1525
308,3.446014,38,30,61,1025,3,-1529
309,3.457204,-35,-22,-59,1020,-1,-1541
310,3.46839,-24,-5,-10,1019,-8,-1527
311,3.479581,-17,22,-16,1014,-2,-1548
312,3.490767,-20,22,-16,1025,3,-1524
313,3.50195,19,-2,2,1023,0,-1536
314,3.513132,-20,-36,20,1019,11,-1527
315,3.524323,-4,0,17,1020,2,-1513
316,3.535508,7,4,19,1017,0,-1537
317,3.546691,-19,-7,16,1017,15,-1531
318,3.557876,13,-4,-21,1017,7,-1535
319,3.569061,-14,-2,22,1020,-1,-1534
320,3.580252,1,4,-17,1019,2,-1544
321,3.591439,23,11,19,1025,3,-1522
322,3.602626,8,-1,6,1013,0,-1531
323,3.613835,7,28,27,1023,-1,-1535
324,3.625025,25,12,20,1022,2,-1530
325,3.636217,29,-16,23,1027,7,-1531
326,3.647406,-1,-4,-21,1019,-13,-1535
327,3.658606,-26,3,-38,1025,0,-1534
328,3.669801,19,2,-48,1020,-11,-1522
329,3.68099,14,-6,32,1011,4,-1521
330,3.692139,-16,-21,6,1024,0,-1535
331,3.703322,-5,35,-29,1024,5,-1541
332,3.714504,6,-28,-4,1017,-1,-1540
333,3.72569,-8,4,20,1020,0,-1548
334,3.736875,-12,-2,5,1018,-5,-1528
335,3.748069,17,-5,40,1020,0,-1532
336,3.759257,4,13,7,1023,4,-1540
337,3.770437,10,-23,-32,1018,-2,-1539
338,3.781622,1,5,-48,1009,5,-1533
339,3.792807,-30,3,-12,1012,-5,-1537
340,3.803959,-13,-22,40,1013,-3,-1541
341,3.815143,-24,3,-36,1024,-3,-1529
342,3.826335,-22,-24,-12,1016,5,-1527
343,3.837518,-2,8,-37,1021,-2,-1543
344,3.848701,-5,-4,11,1023,-3,-1545
345,3.859888,-7,-1,-9,1013,-7,-1536
346,3.871075,-2,-3,-44,1020,0,-1510
347,3.882288,2,-1,-30,1013,-3,-1523
348,3.893476,0,7,16,1017,-1,-1535
349,3.904659,-15,3,37,1023,0,-1537
350,3.915846,-22,6,27,1025,0,-1525
351,3.927029,6,-19,33,1015,0,-1526
352,3.938246,10,15,-12,1027,-5,-1537
353,3.949642,15,34,0,1020,-5,-1531
354,3.961448,-4,26,33,1022,-1,-1549
355,3.973115,-12,-10,20,1014,0,-1530
356,3.984797,19,3,48,1023,2,-1534
357,3.996487,1,5,1,1020,-8,-1527
358,4.008151,-27,-2,-13,1024,-5,-1526
359,4.019854,-27,7,30,1018,0,-1546
360,4.031535,-2,2,7,1018,0,-1530
361,4.043181,-6,-4,-10,1013,3,-1535
362,4.054836,9,5,-13,1019,-3,-1532
363,4.066395,12,0,8,1023,-3,-1535
364,4.077945,-2,11,-19,1016,5,-1534
365,4.089544,-4,1,1,1020,0,-1531
366,4.101099,-18,-25,-6,1015,0,-1530
367,4.112668,-21,-8,-27,1018,-4,-1523
368,4.124251,-24,10,-49,1012,0,-1521
369,4.13581,14,29,7,1015,-1,-1539
370,4.147383,5,5,10,1020,-2,-1539
371,4.158992,-2,-15,13,1020,0,-1529
372,4.170547,-12,-21,7,1018,2,-1534
373,4.182131,-6,-8,0,1025,2,-1525
374,4.193687,-2,3,27,1016,-4,-1545
375,4.20525,-10,0,8,1029,1,-1517
376,4.216831,-10,-3,-5,1014,5,-1527
377,4.228373,-8,-6,28,1022,0,-1532
378,4.239928,2,6,1,1016,-3,-1527
379,4.251546,21,30,6,1020,-1,-1531
380,4.263191,6,-22,-14,1020,-9,-1531
381,4.274889,-5,-24,-1,1021,0,-1522
382,4.286555,-36,-13,-51,1016,10,-1543
383,4.298221,-31,-14,-25,1026,0,-1528
384,4.309911,0,21,-7,1020,-1,-1523
385,4.321575,18,5,7,1025,3,-1525
386,4.33324,9,-19,-8,1019,-3,-1531
387,4.34493,5,-5,5,1021,-7,-1545
388,4.356599,-4,15,13,1021,-4,-1524
389,4.368272,-13,4,2,1020,0,-1526
390,4.379882,-5,-10,21,1023,-5,-1528
391,4.391454,-15,-30,3,1027,-3,-1539
392,4.403013,-25,-11,20,1016,-1,-1539
393,4.414567,-17,18,0,1020,5,-1532
394,4.426136,-1,-11,-34,1018,0,-1529
395,4.437704,-1,-12,45,1017,-1,-1534
396,4.449262,30,8,37,1025,5,-1540
397,4.460881,20,19,12,1021,-2,-1516
398,4.472555,26,1,6,1025,-7,-1540
399,4.484225,0,-22,17,1025,3,-1537
400,4.495905,4,-3,13,1020,0,-1537
401,4.507579,-9,-4,21,1022,3,-1535
402,4.519237,-11,5,-4,1022,1,-1527
403,4.53091,-3,12,-4,1015,-6,-1534
404,4.542569,-16,-14,-7,1020,-5,-1525
405,4.554233,-1,28,28,1019,-2,-1544
406,4.565936,16,-17,0,1016,-4,-1538
407,4.577604,-7,-16,-14,1024,6,-1543
408,4.589177,-8,-1,-13,1017,-1,-1535
409,4.600762,2,6,10,1032,-1,-1529
410,4.612336,29,6,24,1024,0,-1532
411,4.623863,3,-26,14,1020,0,-1533
412,4.635408,0,28,-15,1019,4,-1534
413,4.646951,8,-2,-19,1014,-7,-1532
414,4.658502,-4,-5,-2,1014,-3,-1538
415,4.670062,-2,-1,-4,1020,4,-1539
416,4.681693,-3,3,-18,1025,-13,-1530
417,4.693345,15,0,-18,1016,3,-1530
418,4.705002,-12,23,19,1018,5,-1535
419,4.716681,24,-9,8,1028,2,-1530
420,4.728337,-3,-13,-13,1019,-1,-1538
421,4.740014,-20,8,-25,1029,-7,-1524
422,4.751746,-21,-7,-19,1020,4,-1527
423,4.763409,-20,15,-16,1018,4,-1522
424,4.775079,14,31,2,1019,-9,-1540
425,4.786736,9,-22,-6,1022,-3,-1531
426,4.798306,-4,-9,8,1013,-1,-1540
427,4.809889,0,3,0,1018,5,-1524
428,4.821439,-10,-3,12,1029,-6,-1531
429,4.832996,-8,4,18,1025,-5,-1546
430,4.844573,2,-8,-6,1019,2,-1542
431,4.856116,-21,-12,1,1021,0,-1529
432,4.867683,-21,14,4,1020,2,-1529
433,4.879289,-6,27,7,1018,1,-1535
434,4.890937,15,-1,29,1014,0,-1535
435,4.902596,3,-13,26,1017,-10,-1524
436,4.914242,25,-2,23,1020,-3,-1547
437,4.925909,-20,-20,2,1026,-5,-1524
438,4.937582,-9,29,-1,1029,-7,-1530
439,4.949223,3,0,9,1019,-1,-1538
440,4.960934,9,0,-14,1012,1,-1540
441,4.972595,-10,4,7,1023,-3,-1537
442,4.984283,-5,-4,7,1008,7,-1524
443,4.995853,16,11,6,1019,3,-1537
444,5.007406,17,-23,-1,1020,0,-1539
445,5.018959,-1,28,15,1023,4,-1539
446,5.030545,-6,11,0,1019,-6,-1534
447,5.042135,-24,7,-57,1018,0,-1531
448,5.053675,-6,9,-13,1018,4,-1517
449,5.065223,-24,2,-22,1021,0,-1540
450,5.076778,3,31,-6,1020,-3,-1535
451,5.088356,-5,26,-10,1017,-2,-1518
452,5.100002,7,2,2,1015,-8,-1539
453,5.111633,4,-7,-10,1018,-5,-1535
454,5.123335,-7,-5,7,1020,-1,-1521
455,5.134982,-12,-4,28,1023,0,-1545
456,5.146644,3,6,3,1024,3,-1539
457,5.15835,12,-4,8,1025,-10,-1524
458,5.170013,-31,-2,-35,1023,-3,-1527
459,5.181686,9,13,21,1019,4,-1534
460,5.193361,15,-5,36,1013,3,-1537
461,5.205034,-2,-9,24,1020,-2,-1525
462,5.216593,5,7,20,1019,-2,-1532
463,5.228173,-22,-18,-2,1021,-6,-1536
464,5.239746,-15,8,13,1015,-5,-1532
465,5.251308,-2,15,0,1021,-5,-1528
466,5.262861,-8,-4,8,1024,-3,-1536
467,5.274431,-2,3,-18,1018,2,-1521
468,5.285976,3,6,-16,1030,-2,-1537
469,5.29754,22,5,1,1021,5,-1536
470,5.309207,8,-4,-1,1019,-8,-1520
471,5.320897,-13,18,23,1018,-1,-1524
472,5.332602,15,-18,13,1016,0,-1537
473,5.344275,3,-10,11,1020,-2,-1537
474,5.355964,0,15,-7,1017,-4,-1525
475,5.36763,-2,8,-1,1025,6,-1543
476,5.379283,-9,24,-13,1020,-5,-1534
477,5.39096,6,-18,-8,1016,5,-1535
478,5.402633,-3,7,-4,1019,2,-1531
479,5.414297,-1,6,4,1017,-3,-1536
480,5.42586,-2,1,25,1023,-1,-1527
481,5.437429,-9,-6,11,1014,-3,-1546
482,5.448981,-22,2,5,1016,-3,-1539
483,5.460538,-11,3,18,1016,2,-1529
484,5.4721,-21,8,35,1017,0,-1532
485,5.48368,21,-2,24,1015,-1,-1536
486,5.495241,9,-15,28,1014,-1,-1536
487,5.506799,0,-5,24,1023,-4,-1526
488,5.518419,8,10,27,1016,-4,-1537
489,5.53008,-2,20,-4,1019,-8,-1537
490,5.541747,4,-8,-5,1017,-5,-1531
491,5.553405,-13,17,17,1023,-2,-1541
492,5.565056,-3,-2,-10,1022,-7,-1529
493,5.576737,19,-1,17,1010,-3,-1530
494,5.5884,-15,-15,7,1017,1,-1534
495,5.600064,-4,3,9,1020,-2,-1532
496,5.61177,12,0,-18,1016,2,-1536
497,5.623433,-17,0,-8,1016,4,-1543
498,5.635021,16,-9,27,1019,-1,-1537
499,5.646574,2,-3,5,1013,-4,-1541
500,5.658121,0,-10,0,1016,-4,-1526
501,5.66967,6,-1,23,1011,-6,-1538
502,5.681225,7,-3,9,1020,0,-1527
503,5.692775,-10,19,-1,1020,1,-1529
504,5.704343,3,0,14,1019,3,-1537
505,5.715937,-2,-2,-12,1015,4,-1545
506,5.727623,13,-1,-14,1026,5,-1532
507,5.739281,-3,-4,-9,1014,-2,-1546
508,5.750943,-6,10,-10,1016,1,-1534
509,5.762612,14,-6,-14,1024,0,-1531
510,5.774266,-21,9,4,1022,-6,-1539
511,5.785917,12,-13,0,1026,-4,-1531
512,5.797576,-10,5,-36,1019,-2,-1537
513,5.809229,-8,0,-22,1016,-9,-1526
514,5.820915,-7,2,-24,1022,-3,-1535
515,5.83259,-5,-3,-20,1010,0,-1525
516,5.84427,-3,14,11,1010,0,-1539
517,5.855935,6,-13,3,1023,3,-1527
518,5.867643,-2,-11,-4,1020,-4,-1518
519,5.879303,19,3,-22,1011,-4,-1531
520,5.890978,-2,-10,-1,1017,4,-1527
521,5.90264,-13,-2,10,1027,-8,-1540
522,5.914304,-9,0,32,1023,-7,-1533
523,5.926006,20,-6,21,1017,-2,-1529
524,5.937662,-2,8,-16,1015,3,-1543
525,5.949225,-9,12,-20,1007,6,-1526
526,5.96083,-5,-10,-24,1020,2,-1528
527,5.972346,-16,1,-24,1026,-1,-1539
528,5.983868,-4,5,-24,1016,-3,-1543
529,5.995449,-2,-12,-3,1022,5,-1531
530,6.006998,5,-4,-18,1023,-11,-1529
531,6.018582,0,8,18,1016,-1,-1529
532,6.030134,-21,-4,8,1020,1,-1535
533,6.041761,-2,-14,15,1026,4,-1520
534,6.05341,10,-4,-6,1016,0,-1535
535,6.065068,18,-12,-34,1016,-2,-1543
536,6.076751,-2,7,-45,1022,-2,-1540
537,6.088404,-12,-4,19,1020,-3,-1537
538,6.100062,-5,-3,14,1015,-2,-1541
539,6.111759,-1,8,-4,1014,6,-1534
540,6.123399,-8,0,-25,1018,-2,-1543
541,6.135059,0,-7,-8,1017,-1,-1534
542,6.146719,-1,3,11,1020,-7,-1539
543,6.158305,-2,-13,-9,1013,4,-1539
544,6.16987,6,0,-5,1017,-3,-1534
545,6.181449,-17,8,9,1023,0,-1527
546,6.193026,-16,-14,3,1018,-2,-1532
547,6.204654,-17,12,28,1012,-2,-1530
548,6.216235,-24,8,2,1024,3,-1536
549,6.227783,-7,-9,33,1021,1,-1537
550,6.239363,-6,-19,21,1015,0,-1541
551,6.251012,16,-1,5,1020,-2,-1525
552,6.262669,2,10,16,1023,-4,-1535
553,6.274313,0,-4,24,1018,0,-1532
554,6.285987,-7,5,7,1021,-12,-1529
555,6.297652,3,0,-4,1023,-6,-1536
556,6.309293,-5,-6,11,1017,-6,-1536
557,6.320926,15,-3,-30,1019,-5,-1526
558,6.332603,-5,17,-11,1020,-6,-1521
559,6.3443,-10,-13,14,1025,-6,-1540
560,6.355954,16,-10,-25,1021,0,-1530
561,6.367519,9,0,-37,1019,2,-1530
562,6.379095,3,13,-29,1021,-3,-1537
563,6.390639,15,11,14,1025,-3,-1534
564,6.402182,-29,-9,-25,1022,-7,-1531
565,6.41374,-7,0,-12,1020,-4,-1535
566,6.425283,-4,6,-33,1018,-1,-1545
567,6.436832,-2,6,-8,1023,0,-1543
568,6.448388,12,5,0,1013,3,-1534
569,6.46005,-2,2,7,1014,-8,-1537
570,6.471701,-12,-6,8,1017,-3,-1522
571,6.483384,15,14,-14,1020,-8,-1540
572,6.495046,-5,-1,-1,1018,-3,-1533
573,6.506694,-20,4,23,1026,3,-1527
574,6.518341,5,1,25,1024,-1,-1516
575,6.530013,26,10,10,1016,-5,-1532
576,6.541666,-29,-1,-36,1020,-3,-1539
577,6.553329,-9,9,-9,1026,-6,-1535
578,6.565006,3,7,22,1030,-5,-1531
579,6.576659,0,-4,22,1019,-1,-1540
580,6.588311,-7,8,-9,1017,-5,-1538
581,6.599967,-2,-9,-13,1021,-3,-1530
582,6.611642,5,6,13,1019,-7,-1541
583,6.623304,9,-11,-5,1022,-5,-1526
584,6.634955,2,26,-13,1026,-6,-1541
585,6.646613,-20,-18,11,1015,-3,-1537
586,6.658282,14,20,27,1020,-8,-1532
587,6.669931,-9,-1,-43,1019,4,-1534
588,6.681586,15,11,5,1020,2,-1541
589,6.693231,-29,-1,-37,1013,5,-1537
590,6.704924,15,13,8,1019,-3,-1524
591,6.716589,5,1,11,1016,0,-1540
592,6.728277,-11,7,0,1020,1,-1546
593,6.739934,1,-6,0,1014,5,-1531
594,6.751611,-5,5,12,1020,-5,-1541
595,6.76331,-5,0,-9,1019,0,-1527
596,6.774957,-18,-15,11,1017,2,-1537
597,6.786623,8,19,3,1010,0,-1536
598,6.798298,14,6,-8,1016,-2,-1531
599,6.809946,-18,-16,14,1015,3,-1520
600,6.821594,-2,-11,40,1014,0,-1527
601,6.833264,30,7,28,1024,-6,-1548
602,6.844925,-36,-7,-29,1018,-3,-1527
603,6.856587,5,29,-6,1014,-8,-1529
604,6.868291,0,-6,2,1018,-4,-1526
605,6.879957,-2,1,-17,1018,-4,-1515
606,6.891521,1,0,13,1023,2,-1545
607,6.903079,-8,-3,-2,1018,4,-1537
608,6.914636,13,10,0,1020,-6,-1536
609,6.926193,-13,11,-10,1009,-5,-1542
610,6.937759,-15,-31,15,1017,2,-1535
611,6.949323,-9,15,22,1021,0,-1534
612,6.960892,24,3,22,1013,-4,-1524
613,6.972489,24,0,12,1020,2,-1535
614,6.984217,9,19,-12,1023,-1,-1534
615,6.995899,-24,-10,-9,1018,4,-1505
616,7.007552,-3,17,-6,1014,-1,-1546
617,7.01921,14,3,-16,1024,3,-1510
618,7.030886,4,-1,-4,1014,-4,-1511
619,7.042562,-2,0,15,1018,0,-1530
620,7.05422,-8,-8,12,1021,-2,-1542
621,7.065926,8,-4,-4,1010,2,-1531
622,7.077604,-13,0,-6,1023,-11,-1530
623,7.089278,10,23,0,1021,-12,-1540
624,7.100832,12,29,18,1017,3,-1533
625,7.112392,25,4,31,1027,-2,-1529
626,7.123981,13,-12,57,1021,-4,-1527
627,7.135533,27,1,50,1020,-2,-1528
628,7.147108,27,3,32,1023,6,-1545
629,7.158654,29,5,18,1011,-4,-1537
630,7.1702,2,-24,2,1020,-4,-1533
631,7.181757,2,-7,7,1024,-2,-1538
632,7.193372,-5,-2,8,1026,2,-1547
633,7.205074,-12,0,10,1018,-7,-1515
634,7.216739,-2,1,-1,1022,-1,-1550
635,7.228422,-16,12,-3,1019,4,-1529
636,7.240081,-13,-11,17,1020,0,-1540
637,7.251761,23,17,-8,1027,-1,-1536
638,7.263431,-18,-20,-29,1015,-8,-1546
639,7.275087,-20,11,-31,1019,2,-1529
640,7.286748,-26,-15,-23,1025,3,-1531
641,7.298426,-12,-10,-13,1030,-5,-1529
642,7.310028,-12,-16,11,1020,-7,-1520
643,7.32158,-21,-1,0,1018,-3,-1535
644,7.333137,-9,14,4,1027,3,-1537
645,7.344737,-3,2,-19,1024,-1,-1514
646,7.356316,-1,10,4,1021,0,-1538
647,7.367866,-19,-6,-2,1014,-2,-1531
648,7.379422,6,7,-13,1019,-6,-1531
649,7.390996,-4,-12,-11,1019,-5,-1532
650,7.402618,-24,-14,-1,1023,-2,-1531
651,7.414289,15,20,31,1022,-1,-1524
652,7.425945,0,-2,-2,1019,6,-1536
653,7.437595,-30,-3,-29,1021,-7,-1540
654,7.449252,-16,13,-12,1019,-3,-1534
655,7.460934,26,13,16,1026,2,-1537
656,7.472593,-5,-37,9,1020,0,-1532
657,7.484282,-14,5,0,1015,5,-1556
658,7.495948,-11,-9,7,1010,-22,-1693
659,7.507609,-5,-4,5,1041,55,-1415
660,7.519165,11,8,-17,973,8,-1698
661,7.530746,4,1,-20,1029,0,-1544
662,7.542298,-14,-8,20,1012,-1,-1541
663,7.553861,-4,24,23,1010,-1,-1551
664,7.565412,13,-11,5,1024,-2,-1558
665,7.576961,-6,-10,-11,1023,2,-1528
666,7.588526,-16,13,-36,1020,-4,-1532
667,7.600114,-31,-10,-19,1017,-7,-1548
668,7.611751,8,11,-4,1020,4,-1526
669,7.623434,14,-11,13,1019,-1,-1546
670,7.635103,-17,13,8,1016,3,-1524
671,7.646753,-3,-9,-11,1012,7,-1534
672,7.658403,9,-5,4,1028,-3,-1554
673,7.670081,-15,-12,22,1024,-2,-1521
674,7.681729,8,4,4,1023,-1,-1544
675,7.693377,4,-12,18,1020,-1,-1543
676,7.70508,-22,3,10,1009,12,-1543
677,7.716736,15,12,22,1007,0,-1536
678,7.728337,15,-8,33,1024,-2,-1535
679,7.739866,13,-16,35,1022,2,-1518
680,7.751422,23,3,22,1020,0,-1529
681,7.76298,18,-9,16,1022,2,-1545
682,7.774543,3,-27,10,1023,1,-1544
683,7.786088,-13,0,1,1015,0,-1533
684,7.797638,-2,12,6,1014,-4,-1548
685,7.809203,-14,0,-14,1019,4,-1544
686,7.820857,12,10,-15,1025,-4,-1545
687,7.832542,-6,-5,-5,1023,-1,-1548
688,7.844216,-15,5,9,1019,3,-1532
689,7.855879,-26,-11,-29,1014,-6,-1532
690,7.867544,8,13,22,1009,10,-1547
691,7.879212,6,-19,12,1010,-2,-1528
692,7.890869,-16,0,-20,1025,-3,-1518
693,7.902527,-7,22,-17,1025,4,-1536
694,7.914236,15,-21,25,1025,-2,-1525
695,7.925888,-9,-3,11,1020,-3,-1538
696,7.937461,-12,25,19,1017,-1,-1524
697,7.949066,-3,-5,-3,1017,-4,-1536
698,7.960581,-2,-2,-9,1020,5,-1529
699,7.972103,7,12,-17,1022,0,-1528
700,7.983622,-2,-8,0,1017,-9,-1531
701,7.995174,-15,-9,15,1024,0,-1529
702,8.006725,-15,13,24,1026,0,-1522
703,8.01831,12,-18,15,1018,-5,-1531
704,8.029974,-16,0,-39,1020,-1,-1518
705,8.041639,-1,4,-13,1019,-6,-1536
706,8.053309,-3,-11,3,1028,-2,-1526
707,8.064981,-18,0,2,1028,-2,-1520
708,8.076663,-3,15,0,1026,0,-1551
709,8.088384,1,-6,-15,1017,-2,-1555
710,8.100069,-2,10,9,1018,-7,-1522
711,8.111759,-11,3,0,1021,3,-1536
712,8.123416,7,1,-8,1018,2,-1536
713,8.135109,7,-5,-8,1022,-2,-1536
714,8.146689,5,-4,5,1020,-3,-1544
715,8.158244,-21,12,-26,1026,0,-1537
716,8.169798,17,12,26,1022,4,-1518
717,8.181348,13,-9,33,1018,0,-1526
718,8.192908,0,-2,21,1014,-5,-1544
719,8.204493,0,10,4,1018,1,-1521
720,8.216088,-13,24,-14,1024,-2,-1537
721,8.227676,10,-2,0,1019,4,-1538
722,8.239344,2,-15,-8,1018,-3,-1544
723,8.251005,3,3,-5,1020,-3,-1529
724,8.262662,-3,10,15,1015,1,-1550
725,8.274306,-13,-1,8,1019,-5,-1543
726,8.285964,-17,7,5,1015,-1,-1520
727,8.297623,-4,-7,-15,1024,-2,-1536
728,8.309277,11,-6,-32,1026,6,-1525
729,8.320926,-2,7,10,1019,-6,-1538
730,8.332614,15,-4,43,1027,3,-1520
731,8.344312,5,-2,25,1017,0,-1544
732,8.35587,-2,1,10,1026,-2,-1522
733,8.367437,11,-22,11,1030,-3,-1526
734,8.378983,-13,0,3,1018,-4,-1530
735,8.390557,-8,13,11,1018,0,-1534
736,8.402214,-8,12,4,1014,2,-1548
737,8.413767,-13,5,32,1013,0,-1527
738,8.425317,-15,-5,10,1020,-2,-1526
739,8.436885,-21,3,13,1016,5,-1530
740,8.448558,-9,8,6,1023,-1,-1530
741,8.46032,13,-2,-20,1020,-4,-1545
742,8.472009,-18,16,35,1020,4,-1549
743,8.483675,-3,-9,7,1019,7,-1537
744,8.495326,-2,3,6,1026,6,-1537
745,8.506981,-3,1,-28,1018,-6,-1525
746,8.518656,-8,-2,23,1022,4,-1515
747,8.530304,-11,21,-1,1029,-4,-1536
748,8.541971,-4,-6,15,1025,-1,-1534
749,8.553646,4,1,-10,1015,-3,-1537
750,8.565219,15,-4,-11,1017,4,-1546
751,8.576795,13,7,-14,1015,2,-1525
752,8.588343,-1,5,14,1019,0,-1535
753,8.599867,-16,5,24,1015,-2,-1535
754,8.611411,5,-7,30,1019,1,-1525
755,8.622962,25,2,8,1021,0,-1532
756,8.634511,-2,0,-16,1023,2,-1531
757,8.646079,-6,-12,-20,1016,1,-1544
758,8.657774,-1,-6,6,1012,-7,-1535
759,8.669433,7,1,7,1022,-2,-1537
760,8.681107,-4,8,2,1016,-4,-1536
761,8.692792,7,0,-10,1014,-1,-1527
762,8.70448,-11,6,17,1018,-6,-1526
763,8.716149,-15,-12,10,1020,-6,-1528
764,8.727809,-16,4,4,1022,-1,-1524
765,8.739496,12,-6,-15,1019,-4,-1535
766,8.751173,14,-2,-18,1018,-10,-1533
767,8.762861,-27,3,-6,1025,-1,-1522
768,8.774456,-28,-6,-15,1020,0,-1533
769,8.786002,6,-9,28,1020,3,-1529
770,8.79761,2,0,32,1018,1,-1531
771,8.809191,12,6,36,1015,-3,-1539
772,8.820735,0,-4,15,1019,0,-1517
773,8.832306,-4,5,4,1020,-6,-1536
774,8.843866,0,-15,-21,1027,-1,-1532
775,8.855425,13,0,-1,1020,5,-1535
776,8.867047,-7,20,-8,1022,2,-1534
777,8.878707,-14,-30,14,1022,0,-1539
778,8.890387,-6,0,-8,1018,0,-1531
779,8.902033,5,-5,-29,1022,0,-1537
780,8.91368,-19,5,8,1020,-4,-1542
781,8.925339,22,-12,41,1020,-9,-1522
782,8.937004,22,4,19,1026,-3,-1535
783,8.948664,3,11,14,1018,5,-1534
784,8.960345,-8,-4,6,1022,-1,-1532
785,8.972008,-6,10,-4,1017,1,-1528
786,8.983571,-3,2,-8,1018,-6,-1526
787,8.995126,-1,1,-10,1016,0,-1540
788,9.006676,14,-2,-17,1027,-2,-1536
789,9.018234,-12,17,-13,1019,4,-1533
790,9.029819,-6,-13,8,1023,4,-1540
791,9.041372,13,-5,-19,1018,-4,-1539
792,9.052973,12,4,-39,1020,4,-1522
793,9.064539,-20,0,-40,1018,-1,-1534
794,9.0762,-32,1,-27,1014,0,-1525
795,9.087905,-19,14,-17,1016,-6,-1525
796,9.099551,6,2,15,1015,-2,-1532
797,9.111202,2,-5,25,1025,4,-1542
798,9.122879,-10,6,6,1019,3,-1541
799,9.134537,6,-2,-16,1019,-1,-1536
800,9.146192,6,1,-5,1017,-8,-1527
801,9.157864,-20,0,8,1018,0,-1538
802,9.169541,10,-8,13,1018,0,-1526
803,9.181197,-3,-3,-1,1032,-4,-1525
804,9.192872,-22,5,32,1019,3,-1535
805,9.204567,4,-11,22,1021,0,-1530
806,9.216223,7,21,-28,1023,-12,-1524
807,9.227906,-22,-14,-6,1023,-4,-1535
808,9.239552,19,-1,9,1017,-1,-1530
809,9.251205,-10,7,-34,1015,5,-1523
810,9.262914,-5,1,-17,1020,-12,-1536
811,9.274627,8,-4,16,1026,-4,-1540
812,9.286276,-12,5,-4,1019,-1,-1532
813,9.297856,13,8,-7,1016,-1,-1539
814,9.309411,-1,10,-15,1014,-1,-1520
815,9.320971,-15,-20,6,1018,-6,-1537
816,9.332527,-15,-2,22,1018,-4,-1534
817,9.344117,0,-1,-2,1017,-2,-1541
818,9.355672,-4,-7,54,1022,0,-1539
819,9.367249,8,21,-17,1018,1,-1526
820,9.378808,5,-5,38,1020,-4,-1537
821,9.390439,-21,-24,-32,1017,-5,-1529
822,9.402095,-16,-12,50,1020,-3,-1529
823,9.413745,-6,-5,-32,1018,-7,-1526
824,9.425416,1,-7,28,1021,0,-1546
825,9.437074,7,-5,31,1023,-4,-1530
826,9.448729,2,-8,3,1023,-1,-1532
827,9.460413,-15,24,14,1015,0,-1533
828,9.472067,-14,3,0,1022,-4,-1527
829,9.483771,-17,6,31,1024,2,-1520
830,9.495428,-17,-12,22,1018,6,-1532
831,9.507004,-14,15,51,1018,-1,-1536
832,9.51856,-7,8,-34,1018,0,-1523
833,9.53013,-6,16,-66,1019,1,-1529
834,9.541714,17,-23,44,1016,-7,-1545
835,9.553262,-10,-16,1,1018,-2,-1525
836,9.564867,0,0,18,1017,-12,-1537
837,9.576505,-10,6,-47,1012,0,-1525
838,9.588114,0,-1,31,1018,5,-1527
839,9.599755,-3,6,-16,1020,-4,-1529
840,9.611422,-13,17,-22,1027,-3,-1536
841,9.623078,-17,25,-16,1019,-2,-1525
842,9.634757,-12,26,6,1028,5,-1527
843,9.64643,-15,18,4,1019,-9,-1531
844,9.658086,1,14,1,1017,-5,-1540
845,9.669755,7,3,-8,1014,-2,-1541
846,9.681418,12,0,-33,1020,-4,-1527
847,9.693088,14,-14,-43,1030,-8,-1536
848,9.704788,16,-13,-30,1018,8,-1546
849,9.716367,5,-25,-12,1019,2,-1529
850,9.727939,7,-11,-12,1022,2,-1527
851,9.739508,13,-17,8,1026,4,-1535
852,9.751065,-4,4,6,1020,1,-1523
853,9.762629,-2,-32,10,1020,-9,-1538
854,9.774183,10,-2,13,1017,-3,-1544
855,9.785741,11,13,9,1023,-6,-1534
856,9.797307,-18,19,4,1013,-2,-1530
857,9.808922,9,-4,-11,1024,-2,-1541
858,9.820595,-3,7,45,1011,-6,-1531
859,9.83228,3,7,-23,1016,-1,-1517
860,9.843955,0,-5,1,1023,-3,-1526
861,9.855641,-9,7,33,1020,-4,-1542
862,9.867311,23,28,-26,1020,-1,-1531
863,9.878968,32,0,-2,1017,-3,-1535
864,9.890618,-1,-20,-32,1019,-7,-1533
865,9.902297,-5,-14,-13,1016,0,-1532
866,9.913959,12,-21,-24,1020,1,-1535
867,9.925549,-2,-34,1,1009,-3,-1521
868,9.937136,15,27,15,1016,3,-1532
869,9.948792,1,6,30,1018,-6,-1542
870,9.960539,-11,25,-46,1020,-3,-1539
871,9.972118,3,-5,-40,1013,5,-1534
872,9.983675,-10,-7,9,1014,-4,-1530
873,9.995256,-9,-7,15,1022,-2,-1533
874,10.006854,-2,-4,28,1014,0,-1534
875,10.018419,16,11,15,1022,-9,-1532
876,10.029969,-7,24,-6,1016,0,-1539
877,10.041523,19,32,-8,1023,-4,-1541
878,10.05311,-6,26,10,1015,4,-1528
879,10.064668,-29,-1,-18,1017,0,-1537
880,10.076266,-31,-12,-27,1017,-9,-1532
881,10.087863,25,25,40,1020,8,-1523
882,10.099415,-24,-14,-33,1023,7,-1540
883,10.111004,12,-11,8,1020,-3,-1537
884,10.122686,8,43,9,1019,0,-1527
885,10.134335,-13,2,-39,1023,-5,-1532
886,10.145987,-8,10,2,1020,2,-1540
887,10.157658,-7,11,29,1029,-5,-1518
888,10.169319,-12,0,7,1014,-4,-1543
889,10.181019,-2,-4,-7,1017,-1,-1529
890,10.192738,2,16,6,1012,2,-1538
891,10.204437,20,9,-22,1011,11,-1536
892,10.216179,7,2,13,1022,1,-1539
893,10.227882,11,-6,-53,1022,0,-1527
894,10.239551,23,-10,9,1026,0,-1522
895,10.251213,28,3,14,1022,-7,-1536
896,10.262867,31,27,26,1016,-10,-1532
897,10.274568,3,21,7,1014,-6,-1536
898,10.286312,-13,15,-40,1024,2,-1516
899,10.297972,-1,8,0,1016,6,-1543
900,10.30963,8,-11,29,1020,-4,-1527
901,10.321313,7,-2,0,1018,-1,-1545
902,10.332982,-20,20,8,1016,-2,-1526
903,10.344678,-7,20,15,1016,-5,-1542
904,10.356336,-11,-2,2,1024,4,-1540
905,10.368015,-16,-4,0,1021,2,-1540
906,10.379691,10,-7,-14,1019,-6,-1536
907,10.391344,0,-5,-10,1031,5,-1536
908,10.402994,-5,-1,-42,1024,-1,-1548
909,10.414753,-12,17,-67,1019,-2,-1548
910,10.426434,-20,13,-14,1017,-1,-1534
911,10.438049,-25,7,-35,1017,-3,-1537
912,10.449646,11,3,8,1010,-2,-1535
913,10.461197,3,-2,25,1027,3,-1533
914,10.472767,-7,-8,-5,1018,-7,-1540
915,10.484339,-10,-22,5,1019,-4,-1525
916,10.495925,2,-30,11,1027,-2,-1520
917,10.507523,18,-9,-3,1020,-7,-1526
918,10.519092,-6,-6,2,1023,-5,-1539
919,10.530711,-16,10,-37,1024,-7,-1532
920,10.542377,9,7,-30,1023,-9,-1535
921,10.554029,14,6,-13,1017,6,-1531
922,10.565686,7,13,-19,1017,6,-1530
923,10.577358,7,-15,-2,1020,-8,-1534
924,10.589049,-34,-8,-42,1014,-8,-1536
925,10.600714,1,18,25,1018,-3,-1535
926,10.612396,12,12,49,1016,3,-1520
927,10.624092,5,0,30,1019,2,-1542
928,10.635754,-4,36,13,1022,-5,-1536
929,10.647321,-3,-38,-5,1020,-2,-1540
930,10.65889,7,9,1,1017,-6,-1530
931,10.670451,-13,11,-5,1023,2,-1539
932,10.68205,-9,-16,1,1014,-7,-1529
933,10.693646,-9,-5,4,1016,-8,-1537
934,10.705195,-4,1,23,1024,3,-1530
935,10.716754,9,0,-10,1024,1,-1533
936,10.728348,-4,14,4,1005,7,-1531
937,10.739975,3,2,18,1020,2,-1522
938,10.751633,-11,4,12,1017,-6,-1540
939,10.763314,-15,20,37,1024,-2,-1533
940,10.774992,-32,14,-10,1024,-2,-1532
941,10.786639,-17,2,37,1019,-5,-1531
942,10.79833,-24,-5,-12,1013,-4,-1524
943,10.809978,-17,-8,-18,1012,1,-1525
944,10.821635,-2,-36,14,1023,-11,-1518
945,10.833321,5,-24,20,1020,8,-1536
946,10.844977,-9,-9,-37,1020,-9,-1531
947,10.856576,-6,4,10,1009,8,-1531
948,10.868175,2,6,11,1018,0,-1534
949,10.879742,6,5,-16,1024,-6,-1546
950,10.891298,-3,11,-3,1016,3,-1536
951,10.902851,-17,-24,25,1018,-3,-1529
952,10.914423,-16,-6,-6,1020,0,-1539
953,10.925993,15,26,0,1017,-1,-1541
954,10.937564,-25,8,9,1020,-1,-1538
955,10.949209,-22,-12,24,1016,0,-1533
956,10.960903,-34,-3,-42,1017,-8,-1535
957,10.972568,2,11,-9,1016,-6,-1541
958,10.984231,12,0,11,1005,-2,-1534
959,10.995894,-5,0,-26,1018,1,-1525
960,11.007537,-5,-6,2,1020,-5,-1526
961,11.019218,9,-6,22,1021,-2,-1518
962,11.030876,9,-2,-18,1025,2,-1534
963,11.042556,-3,-8,4,1020,-2,-1539
964,11.054239,12,-10,1,1025,8,-1526
965,11.065808,6,-11,-12,1019,6,-1544
966,11.077365,-7,-10,2,1018,-10,-1533
967,11.088937,-2,20,-23,1016,-1,-1537
968,11.100492,-1,0,-38,1025,-1,-1531
969,11.112077,2,-9,63,1026,0,-1529
970,11.123666,-17,7,-59,1022,0,-1545
971,11.135213,25,14,44,1024,-1,-1532
972,11.146778,-16,-8,-1,1021,-4,-1527
973,11.15841,15,-15,53,1009,-5,-1532
974,11.17007,-4,-1,-9,1019,-1,-1531
975,11.181723,-6,0,-1,1013,3,-1525
976,11.19338,10,-4,32,1023,-4,-1527
977,11.205042,14,-18,11,1008,-4,-1521
978,11.216722,17,-6,-7,1020,-1,-1554
979,11.228401,6,-15,-8,1017,-1,-1536
980,11.240061,-9,0,9,1015,0,-1521
981,11.251731,-5,17,10,1022,-1,-1535
982,11.263392,-6,-11,27,1030,2,-1529
983,11.274949,17,-12,-42,1016,-8,-1540
984,11.286496,-13,0,47,1019,-1,-1517
985,11.298054,-3,25,-45,1023,0,-1517
986,11.309763,-32,10,-24,1018,3,-1523
987,11.321343,1,-12,1,1029,-6,-1538
988,11.332909,-2,1,-6,1021,-1,-1532
989,11.34447,1,0,12,1026,0,-1525
990,11.356037,3,1,-1,1023,-1,-1529
991,11.367634,4,-21,16,1021,0,-1532
992,11.379295,14,-3,23,1015,-5,-1525
993,11.390943,7,-17,6,1019,3,-1537
994,11.402608,-1,10,0,1025,0,-1524
995,11.414265,-11,3,0,1015,0,-1544
996,11.425932,-12,-9,12,1021,5,-1529
997,11.437594,21,4,-9,1016,0,-1518
998,11.449255,-1,-6,15,1010,-1,-1537
999,11.460922,10,24,17,1024,-4,-1528
1000,11.472495,12,9,28,1009,-5,-1531
1001,11.484072,9,-3,22,1016,-5,-1535
1002,11.495621,9,-7,34,1019,3,-1531
1003,11.507173,4,3,28,1018,-6,-1529
1004,11.518723,-17,-10,0,1020,1,-1539
1005,11.53027,-17,15,10,1023,3,-1534
1006,11.541816,-7,12,16,1025,2,-1532
1007,11.553383,-2,-15,6,1014,-3,-1529
1008,11.564966,6,1,-21,1022,-1,-1554
1009,11.576643,9,7,-8,1020,2,-1541
1010,11.588319,-8,-9,-12,1023,0,-1524
1011,11.599977,-15,8,14,1023,-3,-1526
1012,11.611632,-3,3,30,1024,0,-1531
1013,11.623309,-20,11,-25,1027,2,-1526
1014,11.634977,-9,12,-19,1027,1,-1532
1015,11.646627,-3,-2,-9,1026,-5,-1544
1016,11.658279,-4,-5,-12,1024,-5,-1545
1017,11.669957,10,-20,4,1016,-1,-1525
1018,11.681631,10,-13,2,1017,-6,-1536
1019,11.693204,7,-13,-15,1017,2,-1549
1020,11.704765,0,-4,-11,1022,4,-1527
1021,11.716336,18,2,-18,1020,-1,-1528
1022,11.727936,10,5,-19,1024,1,-1534
1023,11.739486,10,-13,0,1019,-9,-1546
1024,11.751067,-5,-5,0,1018,2,-1534
1025,11.762613,-11,-5,-10,1022,-4,-1534
1026,11.774169,-9,6,23,1018,3,-1541
1027,11.785786,4,-12,20,1024,2,-1538
1028,11.797465,12,1,40,1025,0,-1537
1029,11.809148,4,-11,54,1020,5,-1530
1030,11.820845,6,-12,30,1018,-6,-1545
1031,11.832543,-1,7,-2,1024,-1,-1515
1032,11.844235,4,-1,-15,1024,-2,-1534
1033,11.855898,-4,3,5,1021,-1,-1534
1034,11.867556,-18,3,30,1026,-9,-1529
1035,11.879226,-2,5,1,1023,2,-1531
1036,11.890897,11,4,1,1019,-4,-1524
1037,11.902551,17,-5,-21,1017,2,-1534
1038,11.914245,8,-1,-34,1020,1,-1528
1039,11.925897,-24,23,-8,1014,0,-1534
1040,11.93756,3,9,13,1022,-4,-1531
1041,11.949252,1,-18,24,1012,-3,-1545
1042,11.960915,7,0,5,1023,-3,-1531
1043,11.972577,5,-2,12,1016,8,-1530
1044,11.984387,-4,-8,3,1019,0,-1546
1045,11.996063,-2,0,-9,1020,0,-1545
1046,12.007629,-7,-9,0,1026,-3,-1539
1047,12.019209,-7,-7,3,1020,-9,-1539
1048,12.030766,-18,-14,5,1020,0,-1524
1049,12.042338,-10,-6,-14,1019,-5,-1529
1050,12.053886,-2,-8,11,1023,-7,-1544
1051,12.065433,-8,-3,-12,1014,1,-1521
1052,12.076993,-26,15,-21,1013,7,-1536
1053,12.088593,-16,14,-35,1016,1,-1526
1054,12.100302,-6,3,-32,1016,0,-1540
1055,12.112017,-7,8,-10,1021,0,-1533
1056,12.123691,-6,7,-38,1015,5,-1534
1057,12.135371,6,-18,-3,1020,-6,-1537
1058,12.14702,-6,11,-4,1020,2,-1539
1059,12.158676,-8,5,20,1029,0,-1539
1060,12.170389,-18,4,10,1018,-4,-1537
1061,12.182033,-7,1,21,1017,0,-1534
1062,12.193716,14,-1,-3,1025,-7,-1543
1063,12.205407,4,-4,-13,1018,0,-1532
1064,12.217054,9,-9,-6,1019,-1,-1539
1065,12.228724,-10,8,-12,1017,2,-1524
1066,12.240409,7,-4,29,1014,-2,-1529
1067,12.25206,7,-11,20,1017,3,-1534
1068,12.263708,3,1,22,1024,-2,-1527
1069,12.275386,5,-5,23,1015,-3,-1531
1070,12.287026,-12,17,9,1020,2,-1521
1071,12.298678,-5,3,10,1014,1,-1534
1072,12.310241,1,-6,-3,1025,-5,-1536
1073,12.321798,2,-4,-10,1016,3,-1530
1074,12.333457,-3,-1,-15,1015,-4,-1512
1075,12.345022,-1,0,0,1023,1,-1532
1076,12.356601,-14,9,13,1019,4,-1524
1077,12.368159,-16,8,43,1019,3,-1549
1078,12.37974,-11,-12,36,1019,-3,-1523
1079,12.391343,3,2,29,1019,0,-1545
1080,12.402957,-11,-1,-40,1020,0,-1533
1081,12.414594,-4,0,25,1017,-2,-1524
1082,12.426267,1,6,19,1015,-6,-1535
1083,12.437921,-6,23,-4,1021,-6,-1538
1084,12.449577,3,-2,11,1024,-12,-1528
1085,12.461221,-1,-7,-13,1016,-4,-1517
1086,12.472907,4,-12,-14,1016,0,-1532
1087,12.484608,15,15,-5,1025,-2,-1530
1088,12.496291,14,-3,4,1022,-1,-1551
1089,12.507975,16,-7,-22,1020,-4,-1533
1090,12.519632,-2,0,-26,1020,-6,-1540
1091,12.531295,-17,12,-44,1024,6,-1533
1092,12.542972,-2,0,9,1010,-6,-1528
1093,12.554638,-2,-7,0,1018,-7,-1546
1094,12.566293,-10,-11,-42,1021,-3,-1527
1095,12.577946,-10,0,-31,1026,-6,-1522
1096,12.58961,18,-6,-11,1021,7,-1536
1097,12.601275,4,-5,-5,1016,8,-1524
1098,12.612942,4,3,-13,1015,3,-1529
1099,12.624627,7,-4,-12,1018,0,-1546
1100,12.636298,12,-8,-12,1020,-1,-1545
1101,12.647953,17,-5,1,1024,-2,-1550
1102,12.659621,9,-4,-12,1015,-5,-1540
1103,12.671287,-7,10,-19,1020,0,-1545
1104,12.682939,-25,-1,-7,1018,-6,-1526
1105,12.694591,1,-5,13,1013,-2,-1532
1106,12.706266,-2,-6,17,1020,-8,-1520
1107,12.717982,-2,-3,3,1020,0,-1527
1108,12.729631,3,8,-22,1012,0,-1538
1109,12.74123,3,-21,-3,1020,-1,-1531
1110,12.752813,1,0,-14,1016,-4,-1530
1111,12.764393,-2,7,-3,1007,-3,-1530
1112,12.775944,-3,12,0,1013,-7,-1522
1113,12.787494,-2,19,-1,1013,2,-1522
1114,12.799107,4,-6,-10,1016,-6,-1529
1115,12.810666,5,-2,16,1022,-4,-1526
1116,12.822247,4,-11,-47,1025,0,-1532
1117,12.833867,6,4,-38,1018,-1,-1531
1118,12.845541,-23,11,-14,1024,-1,-1534
1119,12.857195,0,-2,3,1013,1,-1537
1120,12.868874,0,-7,7,1019,-2,-1545
1121,12.88054,2,0,7,1023,5,-1539
1122,12.892201,13,-10,5,1019,-6,-1540
1123,12.903881,-6,2,9,1024,3,-1526
1124,12.915577,-2,-10,8,1017,4,-1535
1125,12.927265,12,4,-14,1020,4,-1541
1126,12.938931,11,5,-24,1021,-1,-1526
1127,12.950503,15,7,4,1017,0,-1533
1128,12.962069,1,-4,0,1013,-2,-1517
1129,12.973617,-9,4,16,1019,6,-1541
1130,12.985163,-27,-2,-13,1027,5,-1530
1131,12.996735,-8,-8,41,1020,0,-1520
1132,13.008287,1,-6,11,1023,0,-1540
1133,13.019859,-2,4,-11,1020,-5,-1534
1134,13.031418,-2,13,2,1015,8,-1520
1135,13.043081,-11,1,-23,1016,-3,-1531
1136,13.054781,-2,15,8,1021,4,-1533
1137,13.066432,-10,-1,2,1021,-9,-1533
1138,13.078082,13,-4,-10,1019,-6,-1521
1139,13.089749,13,20,-17,1019,-3,-1537
1140,13.101414,-6,-5,3,1022,-9,-1528
1141,13.113074,-13,5,13,1023,-4,-1518
1142,13.124753,9,-4,-38,1012,0,-1516
1143,13.136422,-3,5,-40,1025,2,-1540
1144,13.148077,-29,-11,-18,1021,-3,-1538
1145,13.159752,3,1,22,1016,-3,-1535
1146,13.171403,3,1,11,1021,-6,-1530
1147,13.183057,-9,9,9,1013,-4,-1532
1148,13.194704,-3,-1,-6,1017,2,-1522
1149,13.206358,-6,9,3,1021,-9,-1540
1150,13.218035,-7,6,8,1018,-4,-1538
1151,13.229679,3,-7,-21,1018,-3,-1524
1152,13.241359,7,-7,14,1018,-7,-1534
1153,13.253049,15,-6,-4,1018,2,-1524
1154,13.264706,-6,0,9,1019,-1,-1545
1155,13.276393,-6,8,34,1025,0,-1544
1156,13.288082,4,-10,49,1010,0,-1520
1157,13.299755,28,20,-37,1020,1,-1515
1158,13.311419,-6,4,-16,1024,-2,-1531
1159,13.323071,-3,-2,-9,1031,7,-1545
1160,13.334716,5,-3,3,1022,-1,-1532
1161,13.346398,-2,-5,6,1024,-2,-1525
1162,13.35805,-5,0,10,1025,0,-1524
1163,13.369624,-12,-4,0,1019,-7,-1533
1164,13.381176,12,-5,-9,1022,4,-1527
1165,13.392756,6,-10,22,1020,0,-1529
1166,13.404335,14,31,-13,1016,4,-1532
1167,13.415874,9,-5,-27,1019,3,-1540
1168,13.427429,0,0,-37,1020,-1,-1520
1169,13.439001,21,14,1,1020,0,-1531
1170,13.450608,9,6,0,1023,-1,-1521
1171,13.462238,2,3,-29,1016,1,-1529
1172,13.473912,-12,3,-25,1018,2,-1534
1173,13.48557,-10,3,-27,1016,-1,-1541
1174,13.497218,1,9,-4,1017,0,-1521
1175,13.508901,3,0,-6,1021,-5,-1527
1176,13.520572,-7,7,19,1023,-2,-1532
1177,13.532223,-18,-10,14,1015,-11,-1539
1178,13.543892,5,-13,15,1019,0,-1534
1179,13.555571,-1,5,12,1013,6,-1531
1180,13.567224,-4,10,13,1025,-3,-1537
1181,13.578873,1,-10,37,1015,0,-1533
1182,13.590548,19,-7,51,1015,6,-1531
1183,13.602195,24,3,44,1020,0,-1527
1184,13.613841,2,1,20,1018,-1,-1531
1185,13.625484,8,11,37,1016,8,-1518
1186,13.637179,-1,-1,29,1019,-4,-1518
1187,13.64884,1,-7,13,1019,1,-1525
1188,13.660606,-7,-15,-4,1024,-4,-1519
1189,13.672296,6,-3,-18,1013,-8,-1517
1190,13.683951,8,13,-2,1016,2,-1526
1191,13.695621,-12,13,-17,1014,6,-1540
1192,13.707292,-10,-21,-4,1033,-1,-1535
1193,13.718942,-18,5,15,1025,2,-1532
1194,13.730589,-12,10,35,1024,4,-1528
1195,13.742254,-7,-15,21,1023,5,-1537
1196,13.753947,-11,-12,-1,1025,2,-1555
1197,13.765593,3,-4,19,1026,2,-1528
1198,13.77725,-2,-1,-17,1017,-1,-1530
1199,13.788947,3,-2,0,1017,-9,-1532
1200,13.800595,1,-5,12,1021,-4,-1526
1201,13.812294,-13,1,16,1012,-9,-1527
1202,13.823959,-8,-5,-4,1012,-1,-1522
1203,13.835621,14,-2,-18,1014,-6,-1530
1204,13.84728,14,-5,0,1018,-4,-1529
1205,13.858993,-12,16,-7,1017,-6,-1523
1206,13.870669,-2,11,-29,1023,-5,-1553
1207,13.882253,4,-4,58,1022,-2,-1530
1208,13.893812,-28,22,-41,1025,-2,-1526
1209,13.905366,19,30,3,1020,-4,-1521
1210,13.916951,6,-14,3,1018,3,-1537
1211,13.92852,7,-4,34,1027,-6,-1526
1212,13.940103,-11,3,-36,1012,0,-1540
1213,13.951658,2,-1,23,1025,-3,-1535
1214,13.963227,0,-1,-14,1019,1,-1530
1215,13.974799,2,22,-8,1020,-3,-1522
1216,13.986444,-15,27,-10,1024,-6,-1520
1217,13.998106,-13,11,7,1020,2,-1532
1218,14.009769,-2,11,5,1018,-6,-1535
1219,14.021452,-21,-13,16,1014,-8,-1533
1220,14.033112,-12,3,19,1020,-12,-1544
1221,14.044818,-17,9,39,1018,-7,-1532
1222,14.056476,-10,3,-25,1020,-6,-1521
1223,14.068185,5,15,21,1012,-5,-1537
1224,14.079881,-29,14,-25,1026,-4,-1534
1225,14.091575,-3,-8,-10,1010,4,-1531
1226,14.103136,8,-1,41,1016,-10,-1538
1227,14.114688,-11,-1,-20,1018,-2,-1526
1228,14.126264,-7,31,-2,1019,-4,-1531
1229,14.137815,-15,-18,0,1018,-8,-1548
1230,14.149388,19,-10,11,1022,3,-1536
1231,14.160951,-17,-10,21,1016,5,-1549
1232,14.17252,15,-13,10,1019,-3,-1532
1233,14.184113,9,14,-26,1010,4,-1530
1234,14.195751,-2,12,2,1018,-5,-1553
1235,14.207443,-14,4,18,1015,-4,-1535
1236,14.2191,-18,6,29,1022,5,-1540
1237,14.230754,-7,14,17,1015,-2,-1537
1238,14.242425,-31,-4,2,1031,0,-1530
1239,14.254081,-30,10,-20,1026,-5,-1525
1240,14.265728,-17,1,-22,1023,3,-1540
1241,14.27738,7,-13,-16,1022,1,-1533
1242,14.289084,-17,-29,-23,1012,-5,-1531
1243,14.300738,-14,-42,-22,1020,0,-1535
1244,14.312423,7,-27,25,1023,1,-1526
1245,14.324084,4,-29,-50,1019,9,-1529
1246,14.335758,-2,0,-11,1024,-1,-1515
1247,14.347421,-6,-5,-9,1014,-1,-1537
1248,14.359078,-7,-7,28,1024,-5,-1543
1249,14.370726,10,5,-28,1020,-8,-1533
1250,14.382451,-8,9,-12,1025,-6,-1540
1251,14.394193,6,26,-20,1015,-7,-1543
1252,14.405847,15,25,-13,1023,-7,-1530
1253,14.417409,-18,13,20,1022,4,-1533
1254,14.428995,20,-28,49,1015,-3,-1539
1255,14.440577,1,-4,32,1018,1,-1543
1256,14.452107,16,14,8,1019,-2,-1531
1257,14.463662,21,28,20,1028,-1,-1529
1258,14.475272,10,38,21,1018,-1,-1531
1259,14.486827,-8,4,-30,1014,3,-1546
1260,14.498404,-2,5,50,1019,10,-1518
1261,14.510094,7,-2,-24,1024,-2,-1533
1262,14.521754,2,-8,-2,1020,-9,-1529
1263,14.533427,5,0,-3,1028,0,-1548
1264,14.545086,5,10,2,1023,-2,-1524
1265,14.556779,20,6,-27,1012,4,-1529
1266,14.568461,8,-13,15,1017,3,-1531
1267,14.580135,-21,-31,-47,1020,2,-1529
1268,14.59179,19,-11,-22,1018,-1,-1545
1269,14.603493,14,-32,56,1024,-7,-1540
1270,14.615139,-2,-13,20,1016,0,-1530
1271,14.626818,-28,-26,-19,1023,1,-1526
1272,14.638473,5,-8,24,1019,3,-1521
1273,14.650117,-7,-2,-18,1020,-7,-1524
1274,14.661766,2,-1,19,1015,-1,-1532
1275,14.673443,12,3,26,1022,-3,-1529
1276,14.6851,0,-23,32,1024,-2,-1527
1277,14.696799,0,-15,8,1018,-3,-1534
1278,14.708524,-5,-1,7,1028,-4,-1528
1279,14.720201,-11,21,20,1024,0,-1531
1280,14.731756,11,-15,10,1024,1,-1531
1281,14.743311,2,-10,-33,1018,3,-1527
1282,14.754861,-8,21,45,1024,4,-1545
1283,14.766451,9,-3,-37,1022,0,-1539
1284,14.77804,17,-17,43,1022,2,-1530
1285,14.789594,6,8,34,1015,3,-1543
1286,14.801165,-20,6,-21,1017,-3,-1530
1287,14.812734,10,-8,29,1017,-9,-1531
1288,14.824408,-10,0,-17,1017,4,-1536
1289,14.836075,10,0,25,1023,-1,-1529
1290,14.847751,5,29,-8,1014,-5,-1536
1291,14.859411,1,30,-9,1025,-6,-1532
1292,14.871062,-17,25,-3,1015,-1,-1525
1293,14.882722,-17,9,6,1018,0,-1540
1294,14.894378,-11,-7,35,1018,-7,-1535
1295,14.906028,-7,-13,-5,1019,3,-1530
1296,14.917691,16,-9,-10,1017,-2,-1545
1297,14.929369,3,9,36,1010,0,-1535
1298,14.940998,-22,-6,9,1018,-2,-1528
1299,14.952592,14,-21,-26,1022,-5,-1523
1300,14.964202,-5,25,33,1025,3,-1535
1301,14.975795,4,-6,5,1023,-5,-1521
1302,14.987345,-5,4,0,1017,0,-1544
1303,14.99892,-5,37,0,1019,-6,-1532
1304,15.010467,-10,-35,-16,1023,3,-1530
1305,15.022033,-1,41,1,1020,-6,-1525
1306,15.033695,15,4,19,1020,-17,-1529
1307,15.045392,13,3,23,1019,3,-1540
1308,15.057059,-1,14,4,1012,-8,-1538
1309,15.068739,6,17,14,1022,-5,-1535
1310,15.080403,10,17,-31,1020,2,-1543
1311,15.092074,2,8,0,1015,-6,-1534
1312,15.103761,16,12,5,1002,-2,-1533
1313,15.115409,16,31,-9,1015,2,-1541
1314,15.127106,-19,10,20,1016,-2,-1532
1315,15.138801,5,-18,-31,1021,-2,-1543
1316,15.150366,20,19,16,1021,-13,-1532
1317,15.161923,8,6,-13,1020,2,-1528
1318,15.17348,-10,9,3,1018,-4,-1535
1319,15.185068,-17,-27,-11,1021,-5,-1529
1320,15.196685,11,-19,56,1010,3,-1525
1321,15.208246,-12,9,-23,1022,0,-1538
1322,15.219799,4,11,29,1010,-1,-1532
1323,15.231357,2,-1,-8,1017,-8,-1516
1324,15.243015,-6,-3,-14,1022,0,-1525
1325,15.254693,5,-22,-15,1023,-2,-1539
1326,15.26635,-7,-23,-18,1025,-1,-1530
1327,15.278007,-18,-8,32,1023,-6,-1532
1328,15.289679,-13,-13,-10,1020,-1,-1537
1329,15.301356,2,-4,40,1013,-6,-1535
1330,15.313048,-27,16,-59,1017,2,-1540
1331,15.324802,-2,22,-40,1013,-3,-1532
1332,15.336482,29,20,27,1019,-1,-1546
1333,15.348127,-11,10,23,1018,2,-1526
1334,15.359696,-2,4,-5,1033,4,-1535
1335,15.371257,-2,-6,2,1020,-6,-1529
1336,15.382813,-3,5,-30,1024,-11,-1544
1337,15.394363,9,9,38,1020,-2,-1518
1338,15.40599,-14,-14,3,1019,-3,-1535
1339,15.417547,-6,31,3,1015,-7,-1527
1340,15.429103,-7,18,-6,1020,-4,-1532
1341,15.440704,13,0,-6,1019,3,-1541
1342,15.452363,-23,-4,13,1013,-7,-1525
1343,15.46404,0,11,3,1013,0,-1536
1344,15.475746,-7,12,53,1019,-4,-1537
1345,15.48739,-2,-4,63,1023,0,-1542
1346,15.499043,-24,13,-32,1015,0,-1531
1347,15.510764,16,9,40,1020,0,-1525
1348,15.522412,-13,21,-6,1026,-2,-1544
1349,15.534074,-17,3,-37,1018,-3,-1537
1350,15.545764,-1,8,27,1019,0,-1525
1351,15.557424,-1,1,-13,1014,-6,-1529
1352,15.569,-9,-29,0,1017,-12,-1544
1353,15.580581,18,-13,5,1012,3,-1539
1354,15.592157,-4,8,-10,1024,-3,-1530
1355,15.603744,-11,21,8,1023,-5,-1535
1356,15.615296,-19,-7,24,1009,3,-1516
1357,15.626843,20,-1,-2,1020,1,-1533
1358,15.638387,-1,12,-19,1015,-9,-1536
1359,15.649947,-20,11,43,1021,0,-1529
1360,15.6616,-6,17,38,1017,-7,-1544
1361,15.673256,26,6,44,1020,0,-1523
1362,15.684923,23,11,39,1028,-2,-1520
1363,15.696595,13,-7,36,1020,-2,-1538
1364,15.70827,-8,3,15,1024,-7,-1521
1365,15.719893,-8,-41,-13,1022,4,-1513
1366,15.73156,-8,-40,4,1022,1,-1536
1367,15.743229,-2,-33,0,1016,-3,-1534
1368,15.754898,1,-27,28,1019,-6,-1536
1369,15.766556,16,3,10,1025,-12,-1534
1370,15.778131,7,4,1,1016,-1,-1526
1371,15.789696,5,11,-20,1019,1,-1538
1372,15.801251,-9,9,15,1022,5,-1528
1373,15.812822,-6,-10,21,1024,1,-1529
1374,15.824338,-19,-33,6,1018,6,-1543
1375,15.835863,-4,-32,-20,1016,0,-1536
1376,15.847409,21,-11,-17,1018,2,-1539
1377,15.858972,1,25,25,1025,-1,-1534
1378,15.870626,-26,7,27,1020,-1,-1524
1379,15.882345,25,24,30,1018,3,-1537
1380,15.894012,1,44,8,1022,-2,-1516
1381,15.905649,-3,31,-11,1020,-5,-1534
1382,15.917301,8,10,0,1019,-2,-1529
1383,15.928978,9,0,0,1012,-1,-1531
1384,15.940694,-2,0,10,1023,-3,-1537
1385,15.95265,-7,0,-14,1022,-1,-1525
1386,15.964603,-13,-12,1,1021,-6,-1528
1387,15.976297,1,2,10,1021,0,-1523
1388,15.987856,25,20,-2,1019,3,-1526
1389,15.999452,-4,-21,-23,1013,-6,-1517
1390,16.011009,-25,-4,-36,1015,0,-1537
1391,16.02258,-13,5,-43,1015,0,-1536
1392,16.034131,-30,-8,-33,1021,3,-1526
1393,16.045683,-20,3,-16,1012,7,-1544
1394,16.057236,20,0,3,1015,1,-1529
1395,16.068842,-5,-17,14,1017,0,-1536
1396,16.080548,-8,0,4,1012,-6,-1521
1397,16.092238,1,-3,-9,1022,0,-1525
1398,16.103893,8,2,-21,1018,-9,-1529
1399,16.115546,5,3,3,1020,-1,-1540
1400,16.127223,12,22,-4,1018,-1,-1532
1401,16.138879,-6,-24,-17,1015,3,-1540
1402,16.150532,-12,16,6,1020,0,-1527
1403,16.162188,24,-10,23,1019,-2,-1527
1404,16.173902,-9,0,-15,1025,2,-1544
1405,16.18561,-16,-12,-4,1016,-1,-1523
1406,16.197176,-31,-9,-18,1020,3,-1532
1407,16.208739,-15,27,-15,1014,-2,-1536
1408,16.220338,2,9,-2,1024,0,-1536
1409,16.231864,5,5,-11,1019,-2,-1534
1410,16.243416,3,3,-8,1011,-4,-1525
1411,16.254988,-7,-2,16,1020,2,-1534
1412,16.26657,-9,-3,24,1024,-3,-1535
1413,16.278141,9,6,-12,1015,2,-1526
1414,16.289763,-28,-5,0,1022,-2,-1540
1415,16.301421,17,16,42,1020,4,-1530
1416,16.313072,8,-15,1,1022,3,-1518
1417,16.324742,-16,7,-22,1017,0,-1530
1418,16.336409,17,11,4,1018,-3,-1522
1419,16.348062,12,-15,22,1024,0,-1540
1420,16.359748,-11,19,-6,1020,4,-1536
1421,16.371402,7,-20,-9,1018,3,-1542
1422,16.383061,-9,0,14,1029,0,-1521
1423,16.394733,-16,1,-1,1016,-3,-1543
1424,16.406319,4,3,-11,1020,8,-1546
1425,16.417874,8,8,-26,1024,1,-1540
1426,16.429537,20,-2,0,1008,0,-1533
1427,16.441093,-29,-15,-31,1022,2,-1543
1428,16.452673,-14,14,-7,1022,-6,-1521
1429,16.464232,12,12,24,1024,0,-1535
1430,16.475845,5,-18,12,1020,-6,-1531
1431,16.487408,9,-14,12,1016,-8,-1531
1432,16.49909,-17,-17,0,1023,-3,-1545
1433,16.510767,-14,-3,5,1011,-11,-1515
1434,16.522423,-5,7,3,1020,2,-1534
1435,16.534098,5,-5,9,1023,0,-1537
1436,16.545764,7,0,-3,1023,-7,-1537
1437,16.557418,-3,2,24,1025,-4,-1545
1438,16.569087,-15,0,11,1017,-3,-1522
1439,16.580783,-6,2,-2,1025,-5,-1522
1440,16.592464,-17,-23,-29,1020,2,-1524
1441,16.604133,-12,-16,-16,1026,0,-1535
1442,16.615737,-21,2,-26,1024,-5,-1536
1443,16.627323,-2,9,-11,1022,-13,-1530
1444,16.638874,-10,-3,-12,1027,-2,-1540
1445,16.65042,16,21,-4,1018,0,-1538
1446,16.661968,11,-18,12,1020,1,-1526
1447,16.673526,9,-16,-6,1022,0,-1525
1448,16.685088,1,-6,-23,1014,0,-1534
1449,16.696657,9,4,7,1029,7,-1526
1450,16.708287,9,3,5,1020,1,-1531
1451,16.719964,4,-4,-14,1009,6,-1525
1452,16.731632,-14,9,0,1020,-8,-1533
1453,16.743286,5,-4,-25,1022,-2,-1533
1454,16.754938,-8,16,-7,1023,6,-1536
1455,16.766611,15,-2,33,1015,-6,-1539
1456,16.778268,1,-7,19,1019,-1,-1535
1457,16.789914,-1,5,-3,1020,0,-1532
1458,16.801581,6,18,-4,1016,9,-1530
1459,16.81324,19,-9,0,1020,-2,-1532
1460,16.824842,3,-21,-7,1035,-3,-1551
1461,16.8364,-5,14,-8,1021,-6,-1515
1462,16.847981,-3,-3,18,1010,6,-1527
1463,16.859567,-9,-5,20,1014,-4,-1539
1464,16.871121,-14,3,10,1019,-5,-1543
1465,16.882709,-18,2,3,1022,0,-1538
1466,16.894258,-6,5,26,1027,-4,-1548
1467,16.905812,17,-6,27,1017,-10,-1532
1468,16.917432,9,-5,23,1018,-8,-1536
1469,16.929092,10,-10,43,1022,-1,-1548
1470,16.940793,3,0,28,1013,-8,-1537
1471,16.952459,10,-8,4,1020,-4,-1521
1472,16.964137,-15,20,-6,1021,2,-1530
1473,16.975798,6,9,8,1014,8,-1545
1474,16.98748,0,-10,10,1019,-5,-1536
1475,16.999155,8,1,-17,1012,3,-1515
1476,17.010817,10,3,-19,1021,0,-1541
1477,17.022501,10,-4,-17,1019,0,-1536
1478,17.034083,14,-2,12,1022,0,-1532
1479,17.045623,8,-9,-36,1015,-2,-1543
1480,17.057168,-21,15,24,1023,2,-1536
1481,17.06873,3,-1,20,1023,2,-1532
1482,17.080282,8,-7,33,1022,1,-1523
1483,17.091852,0,-4,-4,1023,2,-1528
1484,17.103409,-10,3,-37,1022,2,-1533
1485,17.114994,19,-5,-1,1015,-4,-1541
1486,17.126652,-14,12,21,1010,-4,-1530
1487,17.138312,11,-5,12,1022,-2,-1539
1488,17.149957,-6,-9,-8,1022,12,-1535
1489,17.16161,1,6,-10,1016,-5,-1535
1490,17.173296,16,8,-10,1022,-3,-1530
1491,17.184915,14,-3,0,1015,2,-1541
1492,17.196581,6,-1,-12,1020,-1,-1524
1493,17.208267,-18,8,0,1015,1,-1531
1494,17.219902,2,6,17,1018,-2,-1530
1495,17.231555,-9,0,-26,1016,-2,-1539
1496,17.24312,-11,3,-38,1026,2,-1535
1497,17.254672,-7,2,-25,1015,-1,-1537
1498,17.266229,-20,21,-3,1022,4,-1520
1499,17.277788,-7,25,2,1022,9,-1530
1500,17.28936,-12,12,18,1022,-1,-1535
1501,17.300914,-12,4,16,1018,-13,-1535
1502,17.312506,-12,10,13,1012,-4,-1526
1503,17.324066,-2,-14,3,1025,1,-1541
1504,17.335693,14,7,0,1016,-6,-1540
1505,17.347351,11,-19,-21,1026,-4,-1539
1506,17.359027,6,-6,-44,1016,6,-1557
1507,17.370683,-27,0,30,1017,-1,-1526
1508,17.382331,7,-7,27,1020,4,-1533
1509,17.393981,5,4,28,1011,-3,-1538
1510,17.40565,4,-8,33,1018,2,-1540
1511,17.417302,0,-1,-11,1013,0,-1531
1512,17.428975,3,-23,-5,1026,-3,-1522
1513,17.440641,6,-20,-12,1012,-4,-1529
1514,17.452305,-6,-11,-3,1023,-1,-1541
1515,17.463872,-10,-10,6,1016,-1,-1540
1516,17.475426,13,2,-3,1019,-6,-1531
1517,17.486985,12,0,-5,1014,-4,-1535
1518,17.498533,6,3,-4,1017,-1,-1534
1519,17.510102,-14,10,-33,1024,1,-1530
1520,17.52165,-28,0,-51,1020,-3,-1534
1521,17.533242,-19,0,-37,1022,4,-1529
1522,17.54493,-7,2,-22,1029,-7,-1529
1523,17.556612,-4,7,-18,1023,1,-1526
1524,17.56829,-13,2,-27,1019,4,-1528
1525,17.579952,-7,0,5,1013,-6,-1536
1526,17.591635,-5,11,3,1013,2,-1540
1527,17.603295,-13,-2,2,1022,-3,-1532
1528,17.614947,2,-4,13,1019,0,-1545
1529,17.626607,8,6,-3,1020,-4,-1517
1530,17.63827,-2,3,13,1019,-7,-1527
1531,17.649927,-12,-1,10,1023,-6,-1539
1532,17.661584,17,-11,16,1019,0,-1521
1533,17.673227,13,14,-26,1021,-2,-1526
1534,17.684924,-6,6,-11,1017,-1,-1543
1535,17.69659,-3,-4,-7,1015,-2,-1527
1536,17.708261,-3,-3,4,1023,1,-1537
1537,17.719897,7,1,9,1020,-2,-1538
1538,17.731609,3,-13,-3,1020,-5,-1525
1539,17.743272,3,-1,10,1016,-8,-1539
1540,17.754857,-7,-11,-7,1022,-5,-1535
1541,17.766405,-20,-13,29,1016,0,-1520
1542,17.777983,-8,-4,-1,1020,2,-1534
1543,17.78953,-17,9,6,1017,-3,-1520
1544,17.801085,1,13,21,1033,-4,-1519
1545,17.812642,13,-11,30,1023,-5,-1523
1546,17.824219,20,-1,48,1012,5,-1527
1547,17.835785,8,-1,35,1019,-14,-1531
1548,17.847374,3,-5,30,1008,2,-1543
1549,17.859018,9,-7,10,1018,-5,-1537
1550,17.870688,1,-1,22,1023,5,-1537
1551,17.882336,-4,9,-14,1013,4,-1526
1552,17.894012,-2,4,-2,1024,0,-1539
1553,17.905676,-8,9,24,1020,0,-1525
1554,17.917325,-18,1,11,1028,-5,-1529
1555,17.928978,-16,-24,10,1019,-11,-1548
1556,17.940666,-8,2,12,1021,-7,-1541
1557,17.952345,-19,6,26,1019,0,-1525
1558,17.964042,-22,6,-10,1013,0,-1526
1559,17.975623,-27,-7,-2,1022,0,-1535
1560,17.987171,-31,-8,28,1026,-3,-1539
1561,17.99872,1,3,21,1012,3,-1543
1562,18.010268,2,-10,5,1018,-15,-1522
1563,18.021836,9,2,16,1018,0,-1548
1564,18.033383,-3,-4,10,1017,1,-1534
1565,18.044957,-1,-5,6,1019,4,-1545
1566,18.056531,5,1,-20,1010,-1,-1528
1567,18.068162,5,4,-16,1022,-3,-1524
1568,18.079819,-15,0,2,1017,-2,-1535
1569,18.091472,-11,6,-9,1024,-4,-1531
1570,18.103173,14,-4,-26,1018,-3,-1536
1571,18.114828,4,8,-35,1016,0,-1539
1572,18.126493,-26,-10,-22,1023,-1,-1521
1573,18.138165,-12,-4,-3,1024,1,-1530
1574,18.149817,-2,0,-12,1024,2,-1522
1575,18.161483,0,-5,-2,1018,-1,-1542
1576,18.173169,-1,-23,21,1023,7,-1534
1577,18.186973,6,-17,-7,1015,-8,-1535
1578,18.198564,4,-5,-19,1020,2,-1544
1579,18.210124,1,11,12,1023,0,-1537
1580,18.221678,-15,10,5,1017,-5,-1538
1581,18.233237,-16,-2,3,1020,-12,-1534
1582,18.244829,-13,6,18,1027,0,-1531
1583,18.256392,-15,6,37,1015,-1,-1527
1584,18.267988,12,-7,53,1023,-1,-1530
1585,18.279551,27,-4,0,1020,-1,-1532
1586,18.291124,-3,6,-3,1022,-9,-1533
1587,18.302676,1,9,-1,1024,-6,-1517
1588,18.314253,-7,-1,19,1028,0,-1529
1589,18.325796,-5,17,10,1016,0,-1535
1590,18.337348,1,-13,-14,1020,3,-1534
1591,18.348903,7,-20,-7,1024,3,-1534
1592,18.360468,9,0,-10,1020,0,-1541
1593,18.372082,10,11,-20,1015,-4,-1525
1594,18.383766,-2,14,-21,1024,-4,-1526
1595,18.395439,-15,2,13,1022,-8,-1549
1596,18.407092,1,6,22,1024,0,-1535
1597,18.41875,15,-7,31,1021,3,-1522
1598,18.430411,22,12,8,1020,-3,-1527
1599,18.442064,-6,-5,-15,1016,10,-1543
1600,18.45372,-4,-6,-1,1013,0,-1530
1601,18.465384,9,2,26,1023,-5,-1537
1602,18.477386,-4,-11,14,1017,0,-1532
1603,18.489072,8,-10,-7,1023,-4,-1536
1604,18.500735,3,7,-4,1015,-2,-1534
1605,18.512423,-13,10,20,1019,-1,-1521
1606,18.524073,12,-12,13,1029,2,-1543
1607,18.535759,8,-12,0,1016,-1,-1536
1608,18.547427,-18,8,33,1024,-11,-1531
1609,18.55908,-20,12,15,1023,2,-1546
1610,18.57075,0,-10,44,1015,-2,-1536
1611,18.582416,23,0,17,1022,-3,-1538
1612,18.593971,-4,12,-25,1010,4,-1537
1613,18.60553,-11,2,-25,1013,-5,-1522
1614,18.617103,-12,2,-28,1026,-3,-1524
1615,18.628663,7,5,1,1027,0,-1535
1616,18.640281,4,-8,-23,1014,0,-1527
1617,18.651922,9,2,-1,1021,-2,-1530
1618,18.663514,10,-1,-15,1018,-3,-1524
1619,18.675087,11,16,-3,1020,-1,-1532
1620,18.68678,8,15,-8,1019,6,-1517
1621,18.698456,-12,6,19,1014,-3,-1553
1622,18.710109,-12,5,44,1012,-3,-1555
1623,18.721764,5,-16,40,1020,2,-1532
1624,18.733438,16,17,4,1018,-2,-1539
1625,18.745098,-7,2,-34,1015,-1,-1540
1626,18.756798,-11,0,-18,1018,-6,-1539
1627,18.768466,0,6,30,1019,-2,-1538
1628,18.780168,-11,9,1,1018,-8,-1532
1629,18.791837,-7,7,10,1023,4,-1550
1630,18.803398,-3,-4,-19,1019,-2,-1535
1631,18.814945,18,3,-13,1020,-1,-1541
1632,18.826507,7,26,-22,1022,0,-1537
1633,18.838067,3,6,-9,1018,4,-1544
1634,18.849642,2,-1,-13,1012,-6,-1542
1635,18.861207,-24,3,9,1018,-5,-1529
1636,18.872775,-26,1,-22,1025,0,-1525
1637,18.88435,-37,-2,-40,1019,3,-1539
1638,18.896034,-9,4,20,1025,-4,-1525
1639,18.907702,-3,0,-13,1019,-4,-1535
1640,18.919357,7,-8,0,1020,7,-1534
1641,18.931032,8,3,-6,1019,-8,-1539
1642,18.942685,-10,3,14,1029,2,-1537
1643,18.954338,-2,-11,-16,1017,0,-1530
1644,18.965989,-19,-3,18,1018,-6,-1529
1645,18.977652,13,-1,8,1023,-4,-1550
1646,18.989313,18,30,-2,1013,-3,-1520
1647,19.000976,-5,3,-1,1012,0,-1524
1648,19.012671,-20,12,1,1020,3,-1546
1649,19.024334,6,-14,48,1020,-5,-1535
1650,19.036029,35,7,30,1019,-1,-1530
1651,19.047707,-11,3,-24,1018,2,-1532
1652,19.059365,-8,-4,-30,1017,-5,-1548
1653,19.071052,-2,1,-8,1020,2,-1525
1654,19.082711,4,-5,3,1021,-8,-1531
1655,19.094382,-3,10,20,1020,-8,-1531
1656,19.106043,-4,-17,-10,1017,-3,-1534
1657,19.117641,16,0,-6,1023,0,-1531
1658,19.129197,11,12,-10,1015,-11,-1519
1659,19.140774,12,9,-25,1019,-6,-1538
1660,19.152339,-14,3,-26,1014,3,-1539
1661,19.163862,-25,0,-38,1027,-2,-1539
1662,19.175412,12,-18,55,1019,-1,-1534
1663,19.18696,2,11,15,1024,-1,-1527
1664,19.198527,-1,12,-16,1016,-2,-1540
1665,19.210181,-7,-2,-15,1028,-3,-1525
1666,19.221858,1,-5,-4,1020,-2,-1532
1667,19.233526,6,-4,16,1014,-2,-1516
1668,19.245195,-9,-4,10,1026,-1,-1534
1669,19.256848,-10,-8,-5,1015,-3,-1529
1670,19.268548,15,-4,-13,1020,-2,-1526
1671,19.280207,2,23,-5,1024,6,-1533
1672,19.291888,-15,-20,7,1022,7,-1524
1673,19.303536,-15,13,42,1020,-3,-1534
1674,19.315092,-13,2,37,1022,-1,-1531
1675,19.326655,-15,-17,11,1018,1,-1519
1676,19.338201,20,1,38,1019,4,-1532
1677,19.349849,19,12,2,1027,0,-1537
1678,19.361413,21,10,0,1026,-14,-1540
1679,19.372998,6,1,11,1025,7,-1527
1680,19.384575,-2,4,-2,1023,-3,-1527
1681,19.396104,8,-3,-17,1022,-1,-1531
1682,19.407675,6,1,-7,1012,3,-1523
1683,19.419298,8,17,-5,1023,-5,-1546
1684,19.430964,-2,17,-15,1019,-7,-1543
1685,19.44262,3,-15,-5,1006,1,-1533
1686,19.454295,-12,-20,-28,1010,-4,-1519
1687,19.465949,-26,3,-43,1020,-1,-1526
1688,19.477601,-25,7,-38,1021,5,-1540
1689,19.489256,-31,-9,-25,1019,-2,-1527
1690,19.501042,-29,-7,-27,1020,0,-1521
1691,19.512728,-20,25,-23,1020,-3,-1534
1692,19.52439,-2,7,-17,1017,0,-1519
1693,19.535983,-1,7,-11,1017,0,-1545
1694,19.547529,2,1,-8,1023,-4,-1541
1695,19.559073,13,2,-13,1021,-4,-1537
1696,19.570617,6,11,-18,1025,3,-1536
1697,19.582172,17,20,5,1008,-2,-1540
1698,19.593742,18,28,-10,1013,-2,-1524
1699,19.605287,2,-29,-17,1015,-3,-1526
1700,19.616845,-14,-10,-21,1023,0,-1534
1701,19.628551,-28,10,-44,1017,0,-1535
1702,19.640234,-28,-6,-29,1016,-1,-1532
1703,19.651893,25,12,24,1013,-8,-1524
1704,19.663558,1,-16,-3,1019,3,-1530
1705,19.675225,-11,9,0,1014,6,-1519
1706,19.68689,-2,-9,-14,1016,-3,-1531
1707,19.698543,9,7,-3,1016,4,-1528
1708,19.71021,-12,7,2,1019,1,-1526
1709,19.721881,-11,-3,-1,1028,1,-1530
1710,19.733541,8,19,-9,1020,-5,-1535
1711,19.745095,-2,-16,-16,1023,9,-1524
1712,19.756663,-25,-14,-6,1019,4,-1536
1713,19.768226,5,18,30,1012,-1,-1534
1714,19.779778,2,-8,27,1012,0,-1540
1715,19.79133,-34,0,-41,1022,-1,-1540
1716,19.802906,-7,13,-11,1018,0,-1531
1717,19.814458,9,24,-6,1022,3,-1529
1718,19.82602,13,22,-5,1024,3,-1534
1719,19.83765,0,-1,-7,1019,-3,-1535
1720,19.849307,4,4,-14,1014,6,-1536
1721,19.860973,-4,5,9,1022,-4,-1530
1722,19.872652,-17,-6,7,1004,7,-1541
1723,19.884325,5,15,-6,1016,-3,-1520
1724,19.896005,-24,-21,12,1019,5,-1530
1725,19.907678,8,30,25,1029,-7,-1534
1726,19.919346,1,-12,-5,1026,-5,-1517
1727,19.931015,-25,6,-43,1028,3,-1538
1728,19.942677,-20,-7,-25,1016,0,-1543
1729,19.954301,-28,-7,-24,1020,-3,-1544
1730,19.965872,-3,30,-5,1020,-1,-1521
1731,19.97743,12,22,-5,1018,-2,-1534
1732,19.988989,1,-2,-13,1016,-2,-1544
1733,20.000573,-1,-2,-8,1024,0,-1548
1734,20.012163,10,-5,-6,1016,-1,-1539
1735,20.023745,7,10,6,1018,4,-1536
1736,20.035297,8,-25,10,1022,0,-1536
1737,20.046976,-15,0,18,1023,-3,-1531
1738,20.058625,19,22,28,1018,1,-1541
1739,20.070297,14,-7,23,1025,-1,-1529
1740,20.081947,8,-4,8,1021,5,-1531
1741,20.093609,22,12,36,1016,3,-1533
1742,20.105264,-22,-11,-10,1016,-2,-1545
1743,20.116919,-18,25,-14,1022,0,-1533
1744,20.128588,12,0,-7,1019,12,-1543
1745,20.140282,7,1,15,1016,4,-1530
1746,20.151946,-11,0,9,1018,5,-1548
1747,20.163628,5,0,-13,1019,0,-1535
1748,20.17529,6,4,-9,1015,0,-1547
1749,20.186962,8,-26,8,1016,3,-1545
1750,20.198636,21,-5,-10,1021,1,-1536
1751,20.210309,-29,-3,-20,1024,2,-1546
1752,20.221965,-17,18,-8,1022,-2,-1530
1753,20.233618,-7,7,3,1014,4,-1533
1754,20.245303,23,9,19,1016,-6,-1535
1755,20.256981,24,3,10,1017,-5,-1533
1756,20.26867,23,-6,10,1017,2,-1529
1757,20.28034,-4,-21,18,1023,-3,-1523
1758,20.292019,-1,1,11,1022,0,-1531
1759,20.303692,-5,8,18,1016,-10,-1551
1760,20.315352,-8,1,-7,1020,5,-1524
1761,20.327006,6,11,-17,1020,-5,-1536
1762,20.338671,-2,3,-6,1017,4,-1540
1763,20.350365,-15,-26,-7,1020,2,-1531
1764,20.362028,-10,18,21,1031,0,-1535
1765,20.373674,9,8,12,1013,1,-1528
1766,20.385328,14,-3,28,1021,-8,-1541
1767,20.396989,17,5,23,1017,-3,-1530
1768,20.408651,-3,-16,13,1029,0,-1529
1769,20.420319,-21,16,-16,1022,0,-1520
1770,20.432008,10,2,-6,1022,-1,-1542
1771,20.44364,5,-9,1,1023,1,-1535
1772,20.455306,-4,7,8,1017,1,-1522
1773,20.466984,-15,-7,9,1022,-4,-1535
1774,20.478569,-14,-10,15,1022,-1,-1529
1775,20.490173,17,35,-14,1019,3,-1550
1776,20.501726,8,-17,-22,1012,1,-1541
1777,20.513276,-25,-14,-28,1019,2,-1544
1778,20.525047,-14,0,-20,1026,-3,-1534
1779,20.536592,-12,-6,-18,1021,1,-1531
1780,20.548148,-16,-8,-6,1018,0,-1534
1781,20.559711,-13,-29,9,1020,-6,-1537
1782,20.571342,-6,-24,10,1023,-3,-1536
1783,20.583003,-17,-2,7,1017,4,-1536
1784,20.594656,-7,8,16,1018,-3,-1534
1785,20.606313,-3,3,7,1020,-10,-1547
1786,20.617985,-9,-5,14,1014,-1,-1513
1787,20.629636,-12,-5,29,1027,-9,-1526
1788,20.641286,-13,11,-8,1024,5,-1516
1789,20.652952,18,0,-9,1015,-3,-1529
1790,20.664655,-7,-19,-18,1025,0,-1535
1791,20.676314,-25,5,-31,1010,1,-1543
1792,20.687862,-8,13,-18,1007,5,-1530
1793,20.699417,-36,-6,-28,1019,-5,-1533
1794,20.710992,-12,18,-11,1020,4,-1539
1795,20.722573,5,18,-4,1017,-2,-1534
1796,20.734143,11,-4,-12,1020,3,-1522
1797,20.745705,9,-17,-6,1023,2,-1520
1798,20.757255,6,0,-13,1017,2,-1538
1799,20.768833,12,16,7,1020,0,-1532
1800,20.780534,-10,-6,16,1019,-2,-1534
1801,20.792213,-14,6,9,1022,1,-1546
1802,20.803892,18,9,-11,1008,-14,-1531
1803,20.81554,-10,-21,-29,1012,-7,-1533
1804,20.82722,-20,6,-23,1024,-6,-1520
1805,20.838873,-6,11,-2,1025,-3,-1539
1806,20.850529,4,14,10,1020,0,-1530
1807,20.862201,-7,-17,4,1023,-4,-1538
1808,20.873875,-14,-23,5,1020,5,-1537
1809,20.885572,-18,4,13,1018,4,-1525
1810,20.897145,-3,9,6,1008,-1,-1530
1811,20.908709,-8,11,4,1017,1,-1537
1812,20.920258,-2,-5,-29,1024,-3,-1529
1813,20.931808,6,7,3,1012,-4,-1523
1814,20.94336,8,9,7,1020,-8,-1540
1815,20.954924,16,-25,-13,1027,-6,-1527
1816,20.96648,-24,-4,-40,1008,-7,-1536
1817,20.978125,-25,0,-20,1014,3,-1538
1818,20.98975,-12,6,-18,1018,1,-1531
1819,21.001416,-10,2,-25,1022,-1,-1543
1820,21.013121,-17,6,-17,1018,-5,-1534
1821,21.024796,11,6,-3,1018,2,-1538
1822,21.036462,4,-17,8,1019,-6,-1547
1823,21.04814,-9,15,0,1026,-9,-1526
1824,21.059807,-9,2,7,1024,-3,-1529
1825,21.07147,-5,9,-14,1018,2,-1536
1826,21.083157,8,-2,-25,1019,0,-1527
1827,21.094818,16,-5,-7,1013,-2,-1544
1828,21.106493,4,12,15,1014,-2,-1535
1829,21.118139,7,21,22,1018,2,-1536
1830,21.129794,13,-14,3,1019,-10,-1510
1831,21.141465,-10,6,-12,1022,0,-1531
1832,21.153129,-6,13,-31,1020,3,-1527
1833,21.16479,-8,24,-2,1015,5,-1530
1834,21.176472,19,8,6,1010,-1,-1530
1835,21.188209,7,-24,0,1014,0,-1526
1836,21.199884,4,-14,-8,1022,-7,-1536
1837,21.21145,9,1,3,1023,-2,-1534
1838,21.22305,-18,-3,28,1023,0,-1520
1839,21.234602,-12,0,13,1024,-6,-1527
1840,21.246177,-2,-8,-3,1018,0,-1532
1841,21.257717,-15,10,22,1019,3,-1526
1842,21.269265,-26,11,-28,1018,-1,-1520
1843,21.280827,-16,27,-6,1019,-5,-1529
1844,21.292379,-10,13,-17,1020,-6,-1535
1845,21.30402,-15,6,-40,1013,-2,-1535
1846,21.315685,-20,14,-13,1017,-3,-1539
1847,21.327384,-1,24,-6,1019,-7,-1529
1848,21.33903,16,-8,-12,1025,-7,-1514
1849,21.350693,7,-16,-5,1027,-5,-1550
1850,21.362343,0,9,-4,1021,-16,-1536
1851,21.373998,-1,-4,26,1025,-6,-1539
1852,21.385654,-17,-6,15,1012,-2,-1532
1853,21.397307,-11,9,0,1033,-2,-1535
1854,21.408993,1,1,-11,1020,-1,-1539
1855,21.420587,31,0,46,1019,1,-1520
1856,21.43216,17,-12,27,1015,2,-1548
1857,21.443753,-8,0,-9,1023,-8,-1535
1858,21.455303,8,2,22,1021,-8,-1521
1859,21.466852,6,5,-14,1018,0,-1538
1860,21.478399,-16,-4,11,1025,-3,-1514
1861,21.489951,-16,7,10,1029,2,-1523
1862,21.501542,-11,10,18,1021,-6,-1529
1863,21.513172,-5,14,16,1020,-5,-1539
1864,21.524875,-11,0,-5,1026,0,-1541
1865,21.536539,15,-4,-9,1012,3,-1529
1866,21.548267,2,-5,-8,1013,-12,-1532
1867,21.559933,-18,-1,33,1024,9,-1522
1868,21.571633,0,-10,19,1020,-4,-1533
1869,21.583279,-19,-7,-20,1020,-11,-1547
1870,21.59493,-13,13,-25,1022,-6,-1534
1871,21.606604,-8,2,-28,1015,0,-1538
1872,21.618296,-6,0,0,1018,2,-1530
1873,21.629849,-4,24,-9,1015,-8,-1541
1874,21.641411,5,5,3,1020,2,-1535
1875,21.65297,5,-10,-17,1023,3,-1540
1876,21.664526,3,-5,-3,1026,2,-1536
1877,21.676104,6,2,-19,1018,0,-1527
1878,21.687689,5,-1,-25,1014,-1,-1534
1879,21.699243,1,0,1,1015,0,-1527
1880,21.710825,-4,6,6,1016,4,-1539
1881,21.72249,-21,2,37,1017,-13,-1534
1882,21.734142,-9,-5,-22,1018,7,-1524
1883,21.745795,-17,8,-27,1017,-2,-1530
1884,21.757469,-3,4,-21,1020,-2,-1540
1885,21.769146,-8,-5,-22,1015,-4,-1518
1886,21.780808,-11,0,0,1026,0,-1530
1887,21.792485,-4,15,11,1023,-2,-1537
1888,21.804148,5,-8,-3,1022,-3,-1542
1889,21.815845,11,11,-2,1017,6,-1531
1890,21.827512,-15,-2,8,1018,-7,-1531
1891,21.839157,0,6,-8,1020,4,-1524
1892,21.850865,-17,-7,1,1017,-2,-1533
1893,21.862513,-8,1,10,1016,-1,-1539
1894,21.874168,16,-5,29,1015,-1,-1541
1895,21.885838,-18,16,-30,1022,-5,-1525
1896,21.897536,2,6,18,1019,-5,-1525
1897,21.909201,-2,-14,32,1020,-4,-1534
1898,21.920889,2,5,21,1014,0,-1540
1899,21.932556,-19,6,-3,1020,0,-1522
1900,21.944251,-14,-8,10,1012,5,-1517
1901,21.956028,-1,1,-13,1020,2,-1537
1902,21.967697,6,-7,-22,1015,4,-1537
1903,21.979402,12,6,-20,1023,6,-1534
1904,21.99107,-4,-4,-19,1021,4,-1522
1905,22.002735,-15,-5,10,1019,-1,-1526
1906,22.014389,-16,6,30,1019,0,-1527
1907,22.026139,-1,-2,9,1018,-5,-1529
1908,22.037816,-17,2,-11,1020,-2,-1547
1909,22.049386,-7,0,-8,1019,8,-1524
1910,22.060966,-10,3,-41,1017,-6,-1530
1911,22.07253,-11,-1,-40,1020,-7,-1537
1912,22.084097,9,2,-3,1006,0,-1540
1913,22.09566,8,-7,-19,1020,8,-1520
1914,22.107212,4,-16,5,1009,0,-1525
1915,22.118767,8,0,-5,1025,2,-1520
1916,22.13042,12,1,-22,1018,-1,-1526
1917,22.142075,14,8,4,1019,-3,-1538
1918,22.153769,13,-1,-3,1023,-1,-1550
1919,22.165437,9,-12,-22,1027,-6,-1543
1920,22.177104,-6,1,-37,1021,-7,-1530
1921,22.188824,18,0,39,1023,-4,-1535
1922,22.200534,6,-7,19,1022,-11,-1530
1923,22.212189,1,-3,40,1022,-2,-1536
1924,22.223889,4,2,21,1015,5,-1530
1925,22.235553,4,4,2,1019,-5,-1540
1926,22.247239,-7,18,16,1011,7,-1532
1927,22.258835,1,0,4,1018,0,-1540
1928,22.270386,-6,-6,-11,1019,3,-1531
1929,22.281935,19,0,-23,1017,0,-1540
1930,22.293486,0,-2,-15,1024,-2,-1513
1931,22.305077,-11,-2,8,1012,6,-1532
1932,22.316638,-12,8,34,1025,-1,-1539
1933,22.328221,-2,-5,50,1025,0,-1524
1934,22.339812,17,-5,-23,1016,-6,-1534
1935,22.351436,-9,17,-29,1023,0,-1526
1936,22.363126,-4,10,-23,1024,-1,-1535
1937,22.374776,-13,1,-25,1017,-5,-1529
1938,22.386424,-4,8,10,1024,1,-1524
1939,22.398072,-12,3,-4,1018,2,-1518
1940,22.409746,-7,1,5,1015,-2,-1548
1941,22.421402,-10,-9,10,1025,-7,-1542
1942,22.43309,2,-14,-3,1022,3,-1535
1943,22.444799,14,10,5,1022,-6,-1527
1944,22.456459,-15,14,-4,1018,2,-1545
1945,22.468093,3,2,13,1014,-7,-1538
1946,22.479622,19,-6,6,1024,-4,-1532
1947,22.491209,18,11,-30,1024,-2,-1531
1948,22.502752,-7,12,-26,1022,8,-1520
1949,22.514295,-7,-2,-30,1015,-3,-1533
1950,22.52584,-5,8,7,1016,-4,-1534
1951,22.537388,-8,5,-3,1026,-7,-1536
1952,22.548977,6,-20,-3,1021,0,-1529
1953,22.560692,0,10,-8,1020,-2,-1531
1954,22.572518,14,4,-15,1021,-7,-1548
1955,22.58421,-5,16,-1,1024,-3,-1526
1956,22.595889,-19,7,6,1015,5,-1532
1957,22.607549,5,3,-11,1018,-2,-1526
1958,22.619221,4,-4,-37,1018,0,-1529
1959,22.630888,-18,0,-19,1007,4,-1542
1960,22.642547,7,-14,18,1016,2,-1535
1961,22.654212,2,-7,22,1024,-2,-1536
1962,22.665878,6,6,27,1018,3,-1537
1963,22.67754,5,0,27,1026,-6,-1544
1964,22.689188,2,14,20,1020,0,-1534
1965,22.700844,5,-15,-2,1013,0,-1529
1966,22.712537,4,-1,-7,1025,0,-1534
1967,22.724269,5,16,1,1024,-1,-1537
1968,22.735936,-16,17,3,1026,-7,-1542
1969,22.747623,-16,-6,-2,1014,2,-1515
1970,22.759293,-7,-1,-5,1022,5,-1546
1971,22.770964,18,-1,-21,1021,4,-1533
1972,22.782524,7,9,-39,1010,1,-1534
1973,22.794089,-13,13,-10,1010,-2,-1535
1974,22.805634,1,-4,2,1022,6,-1532
1975,22.817187,-11,-5,-23,1021,10,-1529
1976,22.828747,3,-1,-19,1017,-8,-1531
1977,22.84032,4,-6,16,1018,-6,-1529
1978,22.851862,-6,4,-2,1024,-2,-1529
1979,22.863451,-8,-6,8,1021,-4,-1534
1980,22.875077,1,-10,-13,1023,-1,-1531
1981,22.886746,-3,23,-7,1027,-2,-1540
1982,22.898402,-17,-23,-5,1018,-8,-1543
1983,22.910055,8,0,-19,1017,-2,-1525
1984,22.921699,5,-5,-34,1028,-1,-1522
1985,22.933378,-26,-4,-4,1020,-9,-1524
1986,22.94505,9,-4,42,1020,-1,-1527
1987,22.956698,-2,2,-20,1024,-5,-1534
1988,22.9684,-4,4,-10,1017,-3,-1538
1989,22.98006,-7,9,1,1018,-8,-1535
1990,22.991624,-6,5,6,1016,-6,-1543
1991,23.003221,-5,-17,-13,1022,4,-1530
1992,23.014767,6,-4,-11,1019,2,-1540
1993,23.026318,14,9,-12,1022,1,-1545
1994,23.037865,-10,20,-30,1012,-3,-1537
1995,23.049435,-5,-19,0,1020,-4,-1540
1996,23.060992,-1,-12,-27,1018,0,-1549
1997,23.072626,-5,0,-37,1016,-4,-1528
1998,23.084313,17,13,-10,1021,-1,-1535
1999,23.096023,-23,5,-35,1017,-3,-1541
