sample,t_s,gyro_x,gyro_y,gyro_z,accel_x,accel_y,accel_z
0,1.1e-05,1,-2,3,-3,63,-1024
1,0.011315,-15,-3,24,1,61,-1021
2,0.022545,-5,27,-16,3,65,-1024
3,0.033731,16,45,-22,-5,60,-1019
4,0.044921,14,26,-3,-2,61,-1022
5,0.056104,7,20,31,-3,53,-1019
6,0.067287,0,14,46,6,60,-1027
7,0.078475,-33,6,-1,3,56,-1023
8,0.089663,30,17,58,-7,66,-1032
9,0.100848,-35,-18,-45,4,62,-1024
10,0.112034,39,20,38,-2,56,-1022
11,0.123215,19,-34,26,0,48,-1032
12,0.134406,-2,-36,8,4,59,-1017
13,0.145595,-11,18,-9,5,65,-1018
14,0.156778,14,-23,3,-4,67,-1019
15,0.167972,13,2,58,8,62,-1029
16,0.179161,19,-2,35,-1,56,-1017
17,0.190347,27,-3,57,0,63,-1011
18,0.201539,13,-13,-19,-5,61,-1033
19,0.212727,9,3,35,0,58,-1017
20,0.22391,-9,-1,5,0,59,-1009
21,0.235095,-11,-1,-7,-5,55,-1028
22,0.246283,-3,33,17,7,63,-1015
23,0.25747,-5,-19,23,1,66,-1017
24,0.268654,-5,-15,-2,-1,58,-1027
25,0.279848,30,26,-12,0,65,-1042
26,0.291032,1,-8,16,-4,57,-1015
27,0.302224,18,26,-46,4,70,-1025
28,0.313411,-8,9,38,4,64,-1025
29,0.324597,10,20,10,0,66,-1022
30,0.335783,31,16,53,-6,61,-1021
31,0.346967,0,-4,-20,-6,59,-1034
32,0.358146,0,-8,-20,11,61,-1025
33,0.369333,40,8,34,-1,60,-1027
34,0.38052,-21,-27,-8,-2,63,-1020
35,0.391705,-4,34,7,1,64,-1032
36,0.402907,-22,5,-37,6,65,-1017
37,0.414094,10,0,7,-1,59,-1023
38,0.42528,2,4,19,-7,60,-1022
39,0.43647,-13,-22,-43,-4,63,-1018
40,0.447656,15,-6,28,0,67,-1025
41,0.458845,-8,12,-60,2,61,-1028
42,0.470037,9,-6,35,-1,60,-1029
43,0.481222,0,-3,-19,-2,66,-1022
44,0.492408,4,-9,-15,7,63,-1015
45,0.503593,-1,-4,32,-4,62,-1016
46,0.51478,1,-8,0,10,60,-1020
47,0.525966,13,3,-32,3,58,-1018
48,0.537148,16,-24,47,5,63,-1022
49,0.548339,-10,4,-27,-2,62,-1040
50,0.559527,29,37,15,9,69,-1020
51,0.570701,12,15,-15,9,55,-1024
52,0.581895,5,18,-18,5,65,-1028
53,0.593082,-11,-9,1,2,62,-1009
54,0.604271,-36,-7,-32,9,58,-1027
55,0.615467,34,16,45,6,61,-1001
56,0.626654,19,-11,-8,5,55,-1023
57,0.637844,18,-31,-52,-1,57,-1024
58,0.649042,-2,-1,-23,-5,57,-1025
59,0.660227,13,-2,91,-2,65,-1014
60,0.671416,19,10,6,1,63,-1036
61,0.682605,-10,-4,5,-3,63,-1025
62,0.693777,-14,4,-62,6,71,-1006
63,0.704963,13,-11,24,-2,68,-1018
64,0.716156,-3,-10,-15,3,62,-1020
65,0.727351,4,-3,0,-2,59,-1019
66,0.738532,-22,23,25,-1,56,-1013
67,0.749725,-5,3,16,0,62,-1029
68,0.760923,-6,27,0,-5,62,-1026
69,0.772109,10,-22,-20,0,51,-1017
70,0.783297,-19,11,24,-8,58,-1015
71,0.794486,26,1,-38,0,58,-1024
72,0.805667,13,-6,39,0,55,-1015
73,0.816851,-7,10,-61,-4,65,-1020
74,0.828039,20,22,1,-1,61,-1019
75,0.839223,-30,1,-30,2,58,-1018
76,0.850409,-29,-1,-20,-2,67,-1028
77,0.861601,0,-7,-14,-3,67,-1014
78,0.872785,30,-7,28,0,69,-1019
79,0.883976,7,6,27,4,60,-1018
80,0.895158,-9,13,-31,7,63,-1022
81,0.906332,-23,7,-73,-1,58,-1023
82,0.917525,0,10,-1,-2,62,-1021
83,0.928712,8,2,-12,-5,69,-1016
84,0.939906,-7,3,10,3,57,-1013
85,0.951091,9,5,61,6,67,-1024
86,0.962282,1,10,-37,1,55,-1019
87,0.973465,-18,26,3,-7,58,-1015
88,0.984653,0,16,5,7,60,-1032
89,0.995844,-2,-7,4,-5,58,-1022
90,1.00703,8,11,-17,-2,67,-1020
91,1.018221,16,-25,-6,-2,58,-1020
92,1.029414,-26,-6,15,2,63,-1007
93,1.040601,16,-11,-29,-7,62,-1026
94,1.051786,-10,-2,37,-3,64,-1022
95,1.062974,-1,-10,67,9,63,-1036
96,1.074148,5,-19,65,-4,61,-1020
97,1.085347,31,12,26,4,60,-1026
98,1.096533,15,11,-8,-7,69,-1025
99,1.10772,28,9,42,0,63,-1027
100,1.118915,-2,-12,-5,-4,63,-1004
101,1.130103,-12,-2,-39,-2,66,-1003
102,1.14129,23,-14,67,-1,68,-1022
103,1.152475,10,-5,14,-9,57,-1025
104,1.163669,11,-10,67,-3,61,-1017
105,1.174856,22,6,29,0,62,-1019
106,1.186044,-12,6,-24,-4,62,-1024
107,1.197231,-1,-19,37,-3,66,-1029
108,1.208417,-5,16,-16,-3,58,-1018
109,1.219604,1,7,-33,5,59,-1020
110,1.23079,-8,10,21,-1,70,-1027
111,1.241963,-13,14,15,2,55,-1020
112,1.253156,17,-12,-11,1,62,-1012
113,1.264346,6,12,8,2,70,-1028
114,1.275536,-3,-7,-4,-10,60,-1013
115,1.286705,-1,24,20,-5,60,-1009
116,1.297891,-9,3,12,1,65,-1022
117,1.309078,-24,8,-9,-4,67,-1034
118,1.320265,2,-28,67,-3,57,-1011
119,1.33145,1,-19,55,5,61,-1022
120,1.342643,0,0,30,6,58,-1028
121,1.353831,31,9,74,2,60,-1014
122,1.365018,1,32,-3,2,60,-1034
123,1.376203,-13,17,-17,2,62,-1017
124,1.387389,-24,8,-22,7,65,-1035
125,1.398577,0,1,-11,-7,62,-1020
126,1.409773,-27,2,-61,-5,59,-1020
127,1.420961,5,-4,85,2,54,-1018
128,1.432156,2,-11,19,-4,71,-1025
129,1.44335,-8,-15,14,-3,61,-1023
130,1.454519,0,-23,20,3,63,-1020
131,1.465709,6,-28,21,3,60,-1010
132,1.476911,7,-19,12,-2,57,-1029
133,1.488097,-5,14,5,1,65,-1007
134,1.499291,-2,-4,-18,-1,59,-1008
135,1.510478,-7,16,0,-2,66,-1018
136,1.521667,-20,-1,2,5,59,-1003
137,1.532852,-10,10,2,0,50,-1036
138,1.544037,23,-10,-51,-7,56,-1023
139,1.555234,-11,3,54,2,70,-1003
140,1.566421,5,-3,73,-4,56,-1025
141,1.577606,-19,14,-67,2,58,-1019
142,1.588789,0,13,39,-3,56,-1031
143,1.599976,-13,28,10,2,64,-1011
144,1.611159,-29,-7,-81,-6,67,-1023
145,1.622333,16,-2,27,0,60,-1027
146,1.633517,10,-15,33,-3,65,-1010
147,1.644705,-11,5,-30,-6,63,-1032
148,1.655893,-2,2,-47,-2,55,-1024
149,1.667086,-15,-19,-19,0,59,-1024
150,1.678279,7,-24,-3,0,69,-1019
151,1.689468,-1,16,22,3,59,-1038
152,1.700654,9,9,-2,-6,67,-1023
153,1.71184,-1,21,-26,-1,50,-1024
154,1.723024,0,20,-25,-1,66,-1033
155,1.73422,24,-27,7,3,59,-1024
156,1.745406,-3,10,40,13,56,-1018
157,1.756594,3,6,-12,2,60,-1032
158,1.767791,-10,0,0,-3,55,-1014
159,1.778975,9,-1,-5,-6,61,-1014
160,1.790148,9,-8,-22,-3,70,-1011
161,1.801333,-20,9,41,2,63,-1021
162,1.812521,4,1,-54,-3,63,-1027
163,1.823712,-21,23,16,3,65,-1029
164,1.834912,-35,-22,-22,4,62,-1018
165,1.846102,18,29,37,6,65,-1023
166,1.857296,-27,2,-74,-4,63,-1025
167,1.868484,-19,-1,-34,3,59,-1023
168,1.879667,12,-10,16,1,58,-1019
169,1.89085,6,0,8,1,66,-1031
170,1.902034,4,5,27,-1,57,-1030
171,1.913217,-17,9,0,-6,62,-1022
172,1.92443,11,12,8,-2,59,-1027
173,1.93568,-9,-18,16,0,69,-1014
174,1.946889,3,9,-36,-6,57,-1022
175,1.958087,23,-6,-13,-7,67,-1010
176,1.969275,-15,16,11,8,56,-1027
177,1.980462,7,-2,27,2,63,-1030
178,1.991659,16,3,-45,-1,66,-1028
179,2.002879,-16,-7,-1,-1,67,-1016
180,2.014076,8,13,13,-5,62,-1005
181,2.025264,1,-2,-63,-9,62,-1036
182,2.036452,-4,-5,69,4,62,-1026
183,2.04764,24,-12,71,-5,63,-1027
184,2.058829,-35,4,-24,0,51,-1032
185,2.070028,-3,13,-36,5,64,-1018
186,2.081215,5,-21,69,2,59,-1028
187,2.092404,0,12,-18,-4,60,-1016
188,2.103589,4,-6,21,4,58,-1017
189,2.11478,-3,-14,-40,-12,61,-1043
190,2.125968,14,-3,-13,-5,63,-1033
191,2.13715,-5,-6,28,-17,61,-1023
192,2.14834,27,4,-35,-4,62,-1022
193,2.159522,-26,-6,7,2,74,-1020
194,2.170702,19,20,-13,-3,64,-1030
195,2.181893,-17,-18,4,-1,60,-1027
196,2.193093,7,20,64,1,66,-1020
197,2.204284,-8,-9,-49,-3,60,-1029
198,2.215467,-18,8,-12,-8,53,-1019
199,2.226657,-32,-12,-42,-1,64,-1012
200,2.237849,26,28,45,-7,61,-1036
201,2.249039,-4,17,14,-5,55,-1017
202,2.260225,12,-29,25,-2,63,-1029
203,2.271415,0,31,-35,11,62,-1034
204,2.282603,10,-29,0,-6,59,-1011
205,2.293777,-8,16,-13,0,59,-1024
206,2.304962,-16,-5,32,-4,62,-1022
207,2.316152,-8,10,53,5,60,-1008
208,2.327341,8,12,-4,0,59,-1025
209,2.338519,7,-15,-13,-2,63,-1004
210,2.349706,-5,13,55,-8,55,-1011
211,2.36089,19,-1,19,15,67,-1028
212,2.372078,-31,3,-20,-5,62,-1028
213,2.383262,1,-6,29,-1,60,-1028
214,2.394457,14,-6,49,-1,66,-1031
215,2.405645,-8,11,-50,-2,55,-1034
216,2.416829,-1,-11,-14,0,68,-1023
217,2.428031,1,2,-7,-4,68,-1024
218,2.43922,12,-4,-2,-10,58,-1039
219,2.450411,-7,12,-11,4,49,-1022
220,2.461596,-2,13,13,-2,61,-1021
221,2.472782,12,-8,-35,-6,70,-1028
222,2.483967,-8,19,-11,-4,66,-1018
223,2.495152,11,13,32,8,70,-1019
224,2.50633,-26,-31,0,3,63,-1019
225,2.517517,31,30,37,-6,65,-1022
226,2.528703,-2,-26,-38,1,66,-1017
227,2.539887,-10,13,-41,4,65,-1024
228,2.551082,-13,-7,-11,-5,62,-1023
229,2.56228,26,-2,55,-3,62,-1030
230,2.573466,-21,-3,-36,-2,65,-1003
231,2.584651,0,37,-17,-5,55,-1029
232,2.595836,3,-32,27,-1,61,-1025
233,2.607021,-12,28,7,-5,57,-1024
234,2.618208,7,4,0,6,53,-1028
235,2.62939,21,6,-11,-7,65,-1010
236,2.640572,-20,-13,45,-1,66,-1020
237,2.651752,15,10,5,-2,57,-1019
238,2.662935,10,-16,-24,5,59,-1023
239,2.674123,-21,17,44,2,61,-1013
240,2.685306,30,-18,-7,7,58,-1018
241,2.696489,-2,-11,-4,3,67,-1019
242,2.70767,-15,22,-37,7,62,-1023
243,2.718853,17,-12,67,-5,61,-1028
244,2.730038,-9,-1,-31,-5,69,-1046
245,2.741223,7,-7,-27,9,56,-1020
246,2.752404,-6,-7,0,-2,61,-1019
247,2.763592,9,6,-27,-6,62,-1034
248,2.774782,14,-21,-33,4,62,-1023
249,2.785973,-10,5,20,7,59,-1025
250,2.797161,20,-3,-26,0,69,-1019
251,2.808342,-30,0,18,-5,63,-1023
252,2.819529,11,-8,39,6,55,-1027
253,2.830704,7,-1,-29,-4,66,-1019
254,2.841911,-25,1,35,1,65,-1008
255,2.853097,7,-11,67,10,63,-1014
256,2.864283,3,-20,47,-3,62,-1020
257,2.875466,33,17,32,0,62,-1013
258,2.886656,-30,-13,-48,-1,58,-1025
259,2.897849,20,19,35,0,57,-1026
260,2.909042,-20,-3,-5,0,61,-1008
261,2.920227,13,17,0,2,61,-1010
262,2.931416,15,5,11,-2,60,-1024
263,2.9426,-7,-18,5,-3,62,-1025
264,2.953772,11,13,5,-6,61,-1021
265,2.964958,-14,-2,47,0,59,-1025
266,2.976146,15,3,-20,-4,70,-1028
267,2.987332,-9,-4,-3,2,61,-1027
268,2.998516,7,-2,-7,-1,59,-1026
269,3.0097,-6,-2,3,-7,56,-1022
270,3.020885,-19,-3,-49,-3,60,-1024
271,3.03207,-17,6,-11,3,63,-1027
272,3.043252,30,7,63,-6,63,-1017
273,3.054442,-19,3,-63,3,61,-1032
274,3.065625,-1,4,-44,0,66,-1027
275,3.076807,5,0,3,3,62,-1030
276,3.08799,-10,-3,25,-5,71,-1013
277,3.099175,21,-8,-21,-3,63,-1016
278,3.110329,-10,13,-3,-4,67,-1024
279,3.121513,5,-2,-8,0,55,-1030
280,3.132701,17,11,-29,2,53,-1014
281,3.143885,-11,-32,35,-5,67,-1031
282,3.155066,27,28,-13,13,58,-1015
283,3.166259,-28,-30,-67,-4,62,-1025
284,3.177441,-22,8,-30,-10,65,-1015
285,3.188639,-17,-6,4,0,61,-1018
286,3.199828,20,5,54,-4,61,-1024
287,3.211013,10,-5,-3,-3,59,-1011
288,3.222201,-16,18,-43,-4,66,-1023
289,3.233385,15,-28,42,-9,69,-1015
290,3.244571,0,33,-13,-3,56,-1024
291,3.255761,11,-8,-21,-2,66,-1030
292,3.266946,-3,4,23,-6,64,-1009
293,3.278153,10,14,-2,3,63,-1022
294,3.28935,3,4,33,0,61,-1020
295,3.300538,5,3,-18,3,66,-1014
296,3.311725,-24,0,29,5,62,-1009
297,3.322911,18,2,26,-11,58,-1023
298,3.334101,-5,-33,-47,-7,61,-1025
299,3.345283,32,14,60,-5,63,-1022
300,3.356465,-17,2,-35,-1,55,-1032
301,3.367651,21,-2,55,3,60,-1009
302,3.378837,-2,8,-18,8,59,-1036
303,3.390026,1,-5,-17,0,61,-1022
304,3.401215,-3,-1,31,-3,59,-1022
305,3.412401,-3,26,-22,6,71,-1009
306,3.42359,11,-21,-9,-8,69,-1017
307,3.434779,-9,31,25,7,59,-1013
308,3.445962,11,-6,-29,7,57,-1027
309,3.457152,-12,10,49,1,66,-1020
310,3.468346,9,-10,24,2,58,-1012
311,3.479535,-11,10,26,2,61,-1018
312,3.490703,19,-11,-43,-2,58,-1026
313,3.501895,-25,10,-60,-11,64,-1014
314,3.51308,11,-15,67,-2,58,-1011
315,3.524285,33,16,39,3,62,-1013
316,3.535478,-31,-22,-31,-6,68,-1028
317,3.546665,30,30,43,0,63,-1017
318,3.557852,-18,-23,4,-5,62,-1023
319,3.569036,0,6,-7,-6,60,-1024
320,3.580221,11,-5,7,2,68,-1034
321,3.591408,-7,13,22,1,58,-1022
322,3.602598,9,-3,2,3,57,-1034
323,3.613788,2,0,4,-3,59,-1028
324,3.624972,-12,-2,41,-2,66,-1027
325,3.63616,23,10,0,5,63,-1019
326,3.647343,25,11,-21,-1,67,-1009
327,3.658517,-28,-5,-5,-5,67,-1031
328,3.669702,28,0,68,2,64,-1023
329,3.680885,-10,-4,-36,-4,63,-1010
330,3.692079,-13,1,-44,1,54,-1029
331,3.703267,-8,5,-12,6,59,-1013
332,3.714465,18,-3,57,-4,60,-1024
333,3.725652,-4,-38,21,-3,65,-1023
334,3.736836,-14,7,-25,2,58,-1021
335,3.748021,20,-12,-34,-9,74,-1025
336,3.759206,-15,-2,22,-7,61,-1021
337,3.770398,-1,9,11,10,65,-1022
338,3.781583,9,-8,-39,4,62,-1028
339,3.792767,11,11,-26,-2,59,-1018
340,3.803953,5,-21,-19,-6,52,-1014
341,3.815149,0,7,-18,-3,62,-1003
342,3.826333,-16,14,41,-6,65,-1028
343,3.83752,21,-17,78,2,66,-1031
344,3.848707,4,15,-36,2,60,-1027
345,3.859902,-26,-9,-36,-1,57,-1012
346,3.871089,8,22,36,2,55,-1031
347,3.882281,13,-6,24,11,64,-1023
348,3.893466,-7,-2,-11,3,62,-1024
349,3.90465,2,7,31,3,58,-1022
350,3.915835,-8,-9,-8,1,55,-1025
351,3.927019,5,-2,-33,5,66,-1032
352,3.938207,3,0,39,-3,71,-1043
353,3.949393,-20,-8,36,2,64,-1017
354,3.960575,-22,2,25,-11,61,-1037
355,3.971782,-6,-15,21,-3,55,-1023
356,3.982967,29,17,-29,6,55,-1018
357,3.994154,-22,-13,-50,-1,62,-1030
358,4.005722,13,-17,15,-2,59,-1013
359,4.017383,-11,4,-19,4,64,-1015
360,4.029034,-26,-11,-17,4,57,-1028
361,4.040707,-5,29,-9,3,63,-1025
362,4.052363,16,23,0,-4,58,-1012
363,4.064009,10,-23,0,5,68,-1014
364,4.075661,7,2,8,1,60,-1013
365,4.087335,-1,17,6,7,58,-1025
366,4.099011,3,9,21,7,63,-1012
367,4.110665,-10,-8,12,1,51,-1019
368,4.122344,-7,27,-14,3,55,-1020
369,4.133993,-12,-28,-24,-9,64,-1016
370,4.145644,15,28,36,1,59,-1013
371,4.157299,23,-7,24,-1,67,-1014
372,4.168962,-20,2,-22,4,68,-1020
373,4.180623,14,18,8,1,57,-1034
374,4.192342,-23,-5,-16,1,67,-1014
375,4.204079,-24,3,-9,2,62,-1016
376,4.215679,-12,12,3,-5,62,-1023
377,4.227316,7,4,-23,4,67,-1022
378,4.238938,11,3,-6,6,63,-1018
379,4.250516,-12,0,15,-2,58,-1021
380,4.262056,-7,-1,8,2,70,-1029
381,4.273604,8,-8,-4,-8,67,-1022
382,4.28515,4,33,35,-2,68,-1020
383,4.296692,-5,33,24,1,67,-1027
384,4.308264,20,-10,28,4,56,-1027
385,4.319923,-11,5,-38,4,65,-1023
386,4.331602,17,12,9,2,61,-1001
387,4.343281,-7,-15,-5,-7,54,-1020
388,4.354973,13,0,2,3,69,-1014
389,4.366605,-6,-2,-8,-1,57,-1028
390,4.378257,6,-1,7,1,56,-1029
391,4.389943,7,5,5,2,63,-1017
392,4.401619,-9,-5,8,0,57,-1027
393,4.413277,2,10,1,3,57,-1006
394,4.424941,18,1,-2,0,61,-1020
395,4.436604,-5,18,18,-1,60,-1004
396,4.448247,26,-6,18,4,61,-1017
397,4.459902,-17,0,-27,2,67,-1023
398,4.471546,-6,6,-16,7,58,-1010
399,4.483236,29,9,20,0,60,-1021
400,4.494901,-22,5,-11,-1,59,-1025
401,4.506618,-5,16,0,5,75,-1027
402,4.518271,10,-5,-15,7,65,-1014
403,4.529955,-1,11,4,-2,55,-1018
404,4.541605,-4,0,-7,1,65,-1019
405,4.553255,9,1,-9,-5,67,-1027
406,4.564907,-10,2,10,1,58,-1015
407,4.57658,-14,11,-29,-2,58,-1016
408,4.588242,-27,2,-16,0,62,-1020
409,4.599899,24,3,35,-2,58,-1012
410,4.611571,-7,-2,-16,-2,59,-1019
411,4.623243,-5,10,-27,4,67,-1029
412,4.634903,16,15,11,8,68,-1028
413,4.646595,5,-23,12,6,63,-1027
414,4.65825,-8,19,-1,-1,69,-1010
415,4.669898,8,-10,-2,-1,57,-1015
416,4.681559,7,0,-11,5,60,-1019
417,4.69322,-11,3,6,-4,61,-1024
418,4.704879,8,12,-17,4,63,-1018
419,4.716551,15,11,0,-2,59,-1020
420,4.728239,1,0,21,3,63,-1032
421,4.739825,-3,12,4,-11,56,-1019
422,4.751411,24,0,29,2,65,-1019
423,4.762971,3,-5,0,5,66,-1004
424,4.774552,-8,4,-33,0,49,-1027
425,4.7861,-20,11,-14,0,68,-1032
426,4.797637,-13,22,-5,-1,63,-1028
427,4.809191,13,-4,-6,-6,57,-1018
428,4.820773,5,-18,-9,-2,57,-1015
429,4.832404,5,-1,-9,-8,62,-1027
430,4.844093,10,5,7,-6,63,-1018
431,4.855745,-10,-2,19,1,60,-1006
432,4.867392,-14,-1,-1,3,59,-1024
433,4.879059,15,-2,-9,-3,67,-1029
434,4.890724,12,20,18,-3,60,-1015
435,4.902384,-9,1,-24,-3,65,-1026
436,4.914054,-8,10,-33,9,57,-1024
437,4.925705,0,-4,-15,0,65,-1019
438,4.937273,-8,-9,14,-3,63,-1020
439,4.948819,-2,-17,8,4,59,-1013
440,4.960362,-13,5,17,-2,67,-1016
441,4.971913,-4,12,6,0,55,-1022
442,4.98346,-8,0,19,-3,56,-1017
443,4.995072,-5,2,-10,2,64,-1022
444,5.00665,14,1,1,-6,72,-1017
445,5.01821,5,-5,1,2,58,-1016
446,5.029773,-3,8,10,2,59,-1023
447,5.041394,-17,6,27,-3,54,-1011
448,5.053052,-11,0,-30,-3,60,-1015
449,5.064729,-7,5,-14,0,59,-1012
450,5.076371,3,-10,9,4,73,-1020
451,5.088047,5,2,27,6,65,-1017
452,5.099732,4,19,-19,0,58,-1027
453,5.111374,14,-16,0,2,66,-1028
454,5.123026,0,-9,-6,-7,55,-1027
455,5.134734,12,-2,-16,-7,59,-1034
456,5.146401,1,-6,12,2,61,-1005
457,5.158019,-13,-4,3,-11,59,-1030
458,5.169577,-14,7,0,14,51,-1020
459,5.181116,6,-3,-27,-2,62,-1027
460,5.192662,4,13,-39,-6,64,-1022
461,5.204206,14,-1,23,4,66,-1020
462,5.215782,7,-18,40,2,60,-1029
463,5.227329,5,5,21,0,66,-1030
464,5.238936,6,-3,30,-4,65,-1015
465,5.250589,5,-2,-3,-5,68,-1028
466,5.262257,1,-7,-16,-4,61,-1028
467,5.273933,-3,4,17,-3,70,-1018
468,5.285602,-9,-3,-10,4,61,-1006
469,5.297252,1,13,-11,-3,55,-1014
470,5.308927,-16,-3,-1,1,60,-1032
471,5.320595,4,8,17,2,64,-1026
472,5.332241,16,-13,-29,-1,62,-1015
473,5.343903,13,2,-23,4,61,-1029
474,5.355573,7,10,14,-3,56,-1018
475,5.367183,-3,-12,-2,-4,59,-1023
476,5.378766,1,-10,14,-2,66,-1023
477,5.390309,8,-3,2,0,61,-1018
478,5.401868,-2,3,16,5,61,-1015
479,5.413454,10,-16,-11,1,63,-1023
480,5.42502,-1,8,11,0,69,-1019
481,5.436569,-17,3,22,4,65,-1017
482,5.448118,5,-22,25,-7,69,-1029
483,5.45982,11,5,3,5,59,-1022
484,5.471471,-7,8,20,3,63,-1019
485,5.483112,12,-9,-11,-4,58,-1018
486,5.494773,9,14,-40,-1,68,-1014
487,5.506446,-30,-1,-29,1,63,-1025
488,5.518122,6,-11,17,0,60,-1014
489,5.52977,11,1,37,0,56,-1041
490,5.54141,7,-7,35,0,57,-1018
491,5.553071,0,8,6,15,64,-1019
492,5.564744,3,-8,-11,-8,73,-1014
493,5.5763,11,4,0,-1,65,-1009
494,5.587846,-14,12,4,-6,60,-1020
495,5.599392,-5,-19,13,-7,59,-1037
496,5.610943,8,20,16,-13,62,-1038
497,5.62255,12,-8,-29,-1,67,-1003
498,5.634104,13,6,-27,-9,54,-1005
499,5.64568,-26,9,-39,-2,63,-1014
500,5.657242,-31,-3,-35,6,70,-1015
501,5.668884,21,1,34,-12,54,-1022
502,5.680537,8,5,28,-3,57,-1019
503,5.692213,-2,2,27,2,60,-1033
504,5.703869,-8,2,-11,7,58,-1019
505,5.715524,14,-2,3,-4,62,-1017
506,5.727198,-11,0,6,2,62,-1024
507,5.738852,-16,-6,16,-4,63,-1027
508,5.750504,13,4,4,-5,60,-1022
509,5.762169,14,19,-21,-4,65,-1038
510,5.773822,-4,-1,10,7,67,-1028
511,5.785477,-19,1,17,1,65,-1029
512,5.79713,16,-1,54,4,68,-1021
513,5.808776,29,12,30,-1,66,-1030
514,5.820421,-18,12,7,1,62,-1015
515,5.832109,-9,0,-2,-2,61,-1027
516,5.843752,-8,7,-6,6,61,-1029
517,5.855398,6,7,3,-4,59,-1025
518,5.867162,7,3,10,4,68,-1027
519,5.87886,-8,7,22,-2,73,-1031
520,5.890445,-20,-7,3,-4,66,-1023
521,5.902004,5,-8,26,2,61,-1014
522,5.913567,16,28,1,5,62,-1005
523,5.925125,10,-2,-22,0,70,-1009
524,5.9367,23,-14,53,7,50,-1020
525,5.9483,21,12,-1,2,65,-1022
526,5.959854,37,12,39,2,62,-1024
527,5.971402,30,18,30,4,63,-1022
528,5.983109,11,-6,29,4,66,-1024
529,5.994776,9,-7,17,-7,58,-1021
530,6.006468,-8,4,6,0,65,-1029
531,6.018124,0,-2,-13,-6,64,-1023
532,6.029808,-7,5,20,3,62,-1009
533,6.041487,-16,1,13,-3,52,-1018
534,6.053166,-12,-23,16,0,63,-1019
535,6.06482,17,22,-12,4,59,-1012
536,6.076518,8,1,-25,-3,68,-1016
537,6.088221,-6,5,-42,0,71,-1028
538,6.099806,-12,10,-41,-8,56,-1016
539,6.11136,-25,-1,-21,-1,69,-1034
540,6.122934,-30,-4,-33,-3,56,-1027
541,6.134483,-11,5,-20,4,64,-1031
542,6.146055,4,4,24,6,60,-1012
543,6.157603,-1,3,12,-3,59,-1015
544,6.169176,-11,3,21,-2,60,-1019
545,6.180731,-8,1,-5,-3,61,-1014
546,6.192395,18,0,-10,-6,63,-1030
547,6.204049,-2,7,-14,-1,67,-1021
548,6.215736,-20,-21,20,-1,63,-1027
549,6.227389,-8,18,13,0,56,-1013
550,6.239035,5,-15,44,3,59,-1029
551,6.250716,30,-1,30,-12,59,-1017
552,6.262382,25,10,27,0,61,-1012
553,6.274057,-25,-25,-15,2,61,-1004
554,6.285734,-5,-2,-11,0,67,-1025
555,6.297393,-7,15,5,-3,62,-1017
556,6.308957,-13,6,-4,3,55,-1020
557,6.320551,3,0,-14,-1,63,-1024
558,6.332093,9,-2,-14,-4,58,-1020
559,6.343631,14,15,-12,0,47,-1032
560,6.355186,8,35,-16,0,65,-1029
561,6.366764,13,-6,-4,-6,63,-1015
562,6.3783,-15,-20,-24,-1,66,-1019
563,6.389892,-5,-12,9,-3,55,-1027
564,6.401516,19,-4,43,3,59,-1034
565,6.413187,18,5,18,0,64,-1017
566,6.42486,-20,11,-13,2,56,-1016
567,6.436514,19,-11,3,2,58,-1030
568,6.448157,1,1,19,3,67,-1028
569,6.459831,0,9,-12,6,64,-1012
570,6.471495,5,3,-2,-4,58,-1018
571,6.483143,-8,-6,0,1,61,-1036
572,6.494848,9,19,-6,-3,59,-1016
573,6.506519,-7,-19,-2,-5,67,-1018
574,6.518057,-21,-28,0,-2,55,-1015
575,6.529606,-23,12,-2,-4,55,-1022
576,6.541154,12,15,-4,-7,56,-1033
577,6.552699,-26,8,-44,4,62,-1019
578,6.564298,-26,-4,-31,-3,62,-1023
579,6.575847,-27,3,-7,-5,58,-1033
580,6.587428,-2,38,-5,-1,57,-1013
581,6.599008,16,4,0,-3,73,-1026
582,6.610636,11,-1,1,0,61,-1043
583,6.622318,-1,3,7,-5,66,-1023
584,6.633987,-6,5,0,7,66,-1017
585,6.645642,15,11,1,-2,63,-1024
586,6.657285,6,18,10,0,58,-1024
587,6.66893,-10,-25,-18,-5,67,-1029
588,6.680577,-19,13,0,1,72,-1025
589,6.692232,11,-12,13,5,57,-1011
590,6.703894,20,12,17,0,72,-1030
591,6.715547,-30,-17,-13,3,66,-1013
592,6.727104,-24,-7,-13,8,59,-1036
593,6.738675,-9,28,-3,0,54,-1013
594,6.750236,8,9,4,2,62,-1029
595,6.761816,-10,2,16,-5,67,-1018
596,6.773387,-6,-2,9,-11,56,-1028
597,6.784946,0,-2,-8,-2,57,-1033
598,6.796499,9,9,-24,-3,66,-1018
599,6.808077,20,11,-5,-5,56,-1022
600,6.819735,-25,-23,5,-4,65,-1019
601,6.831384,-12,13,-2,-5,61,-1012
602,6.843035,20,7,31,4,62,-1012
603,6.854722,9,-5,35,-2,60,-1013
604,6.866337,28,11,31,3,54,-1013
605,6.877994,-6,-33,9,-11,59,-1010
606,6.889652,-13,0,0,-11,52,-1020
607,6.901297,-7,23,3,-8,63,-1029
608,6.91296,-2,1,-6,12,57,-1017
609,6.924634,11,7,-6,0,59,-1019
610,6.936222,6,6,-5,-4,55,-1027
611,6.947808,4,5,3,-13,60,-1022
612,6.959355,11,-5,-25,-7,54,-1025
613,6.97091,9,-16,-16,0,60,-1021
614,6.982459,-23,-19,-30,0,60,-1022
615,6.994033,-25,3,-26,0,70,-1030
616,7.00558,-10,13,-23,2,58,-1025
617,7.017167,-32,-14,-21,3,55,-1016
618,7.028791,-11,13,-10,0,61,-1006
619,7.040494,16,1,-5,-4,65,-1022
620,7.052147,13,-15,10,0,53,-1018
621,7.063806,-11,6,-1,0,58,-1027
622,7.075483,-3,10,14,0,69,-1019
623,7.087109,-1,0,-13,-4,60,-1024
624,7.098767,6,-3,-21,0,62,-1022
625,7.110471,-1,-5,-10,-7,63,-1023
626,7.122136,21,8,-7,4,63,-1015
627,7.133816,-12,-8,-18,7,59,-1018
628,7.145372,-13,9,-20,-2,71,-1004
629,7.15692,4,1,23,0,61,-1015
630,7.16847,-10,-3,-31,0,57,-1029
631,7.180045,-18,10,-8,-1,59,-1016
632,7.191595,9,22,-2,0,58,-1017
633,7.203144,14,-5,-8,3,67,-1013
634,7.214693,0,-12,-9,0,59,-1027
635,7.226313,2,1,2,0,53,-1020
636,7.238012,-3,-4,15,0,59,-1000
637,7.249683,-11,6,20,-4,60,-1024
638,7.261337,13,9,1,9,67,-1012
639,7.272992,13,19,25,-11,62,-1015
640,7.284646,25,-5,37,-8,60,-1015
641,7.29629,-23,5,-29,0,62,-1014
642,7.307973,-6,23,-15,-3,59,-1019
643,7.319629,0,-20,22,-5,52,-1025
644,7.331294,11,-15,8,0,65,-1022
645,7.342979,-6,-24,13,-1,69,-1010
646,7.354557,0,-11,1,1,67,-1022
647,7.366106,-9,18,12,-1,61,-1031
648,7.377661,13,1,-5,8,73,-1024
649,7.389207,18,14,-5,-5,62,-1029
650,7.400774,3,4,-13,6,61,-1023
651,7.412329,0,0,4,2,64,-1026
652,7.423923,-17,-4,19,-8,63,-1031
653,7.435488,24,-3,23,-5,69,-1010
654,7.4471,-21,5,-23,-7,57,-1025
655,7.458764,-9,2,-30,-6,62,-1027
656,7.470471,2,-3,4,-5,62,-1022
657,7.482128,-4,6,0,-5,56,-1034
658,7.493812,14,-11,19,-2,61,-1031
659,7.505485,-3,-17,6,8,60,-1017
660,7.517128,-5,15,2,5,64,-1028
661,7.52878,-7,-3,0,-1,71,-1031
662,7.54047,-13,-6,1,-8,59,-1029
663,7.55214,7,1,22,6,68,-1039
664,7.563708,-5,10,-11,-1,61,-1018
665,7.575296,10,19,37,3,69,-1029
666,7.586855,3,-20,-12,4,69,-1031
667,7.598436,-15,17,-17,0,55,-1029
668,7.609987,-4,8,-14,-1,63,-1018
669,7.621543,-11,4,-33,0,62,-1024
670,7.633087,-4,3,-26,-2,64,-1017
671,7.644644,10,0,-5,-11,61,-1013
672,7.656262,-7,5,15,0,62,-1014
673,7.667921,-5,14,0,-2,62,-1014
674,7.679623,-2,-7,-6,-1,61,-1013
675,7.691274,13,-4,-27,-9,65,-1025
676,7.702928,2,-2,-13,5,53,-1015
677,7.714596,-8,-1,10,4,57,-1031
678,7.726248,-16,12,16,-1,51,-1028
679,7.737901,0,1,31,4,68,-1006
680,7.749559,2,-16,0,-1,57,-1017
681,7.761228,-10,8,-21,4,60,-1028
682,7.772788,0,11,-24,-1,63,-1025
683,7.784346,2,-4,36,7,66,-1009
684,7.795945,-13,16,-5,3,58,-1031
685,7.807495,-11,19,18,-2,49,-1011
686,7.819048,0,0,16,2,58,-1013
687,7.830613,-2,-9,-11,-3,65,-1028
688,7.842185,13,-9,-11,6,57,-1015
689,7.853743,17,-6,-11,4,65,-1009
690,7.865424,-8,-2,11,3,67,-1005
691,7.877097,-3,10,17,-1,67,-1018
692,7.888758,17,-2,-1,0,57,-1020
693,7.900419,-6,6,-24,0,63,-1030
694,7.912112,-10,4,-24,5,59,-1019
695,7.923763,-3,-12,-7,0,64,-1023
696,7.935416,-4,-6,-28,-5,58,-1017
697,7.947114,0,-4,7,6,53,-1019
698,7.95879,-5,17,10,-1,60,-1029
699,7.970467,-8,-4,22,7,58,-1030
700,7.982064,0,-4,-6,-2,62,-1010
701,7.993611,5,-5,7,0,58,-1015
702,8.005156,15,18,1,7,65,-1026
703,8.016708,19,-1,-5,-1,65,-1023
704,8.028282,1,-4,-19,2,61,-1012
705,8.039834,-20,8,-9,1,58,-1012
706,8.05147,-14,-19,28,0,64,-1031
707,8.063063,10,-5,30,3,65,-1013
708,8.074728,1,13,13,-5,65,-1022
709,8.086387,-4,-4,-21,5,56,-1020
710,8.098074,6,2,-8,2,62,-1020
711,8.109746,-11,22,10,-5,73,-1027
712,8.121391,-3,7,14,5,61,-1034
713,8.13304,11,-6,-18,3,63,-1029
714,8.144716,-7,7,-14,-3,63,-1010
715,8.156361,-2,6,9,0,60,-1025
716,8.168024,15,-5,-11,0,58,-1022
717,8.179689,12,-3,-24,-4,61,-1018
718,8.191313,22,-18,8,2,59,-1012
719,8.202982,-10,13,-10,7,59,-1023
720,8.214569,1,-2,0,0,59,-1020
721,8.226126,-7,-1,-24,-4,63,-1023
722,8.237682,0,1,-25,-8,61,-1016
723,8.249244,6,-12,-15,1,57,-1016
724,8.260797,-7,9,7,-3,68,-1013
725,8.27236,-9,-8,-2,-1,59,-1013
726,8.28402,16,-7,-4,4,63,-1029
727,8.295733,-1,18,-12,-1,58,-1003
728,8.307385,-16,-30,9,-5,68,-1005
729,8.319041,-12,12,16,-1,58,-1009
730,8.33073,-12,11,37,-2,48,-1014
731,8.342385,30,0,16,3,63,-1033
732,8.354064,0,9,-32,1,67,-1020
733,8.365739,-2,5,-27,3,55,-1029
734,8.377399,-8,0,-39,-4,52,-1025
735,8.389082,-10,5,-24,-3,55,-1028
736,8.400677,0,4,24,2,67,-1025
737,8.412224,-11,8,14,-4,60,-1041
738,8.423791,6,-10,-6,5,60,-1018
739,8.435341,3,-10,-13,4,71,-1015
740,8.446904,18,5,-6,4,66,-1024
741,8.458454,21,25,2,-3,66,-1013
742,8.470064,14,-9,-21,0,56,-1019
743,8.481625,11,-9,-42,-1,63,-1015
744,8.493285,-21,10,-28,-3,60,-1020
745,8.504964,-26,-3,-22,-5,59,-1006
746,8.516622,26,-9,33,6,67,-1014
747,8.528275,4,3,17,2,59,-1032
748,8.539936,-3,12,-5,-6,61,-1025
749,8.551613,-6,-2,-14,-3,49,-1014
750,8.563282,14,2,13,-4,68,-1020
751,8.574977,-9,19,10,-6,60,-1019
752,8.586694,-8,0,7,2,54,-1024
753,8.598371,-20,2,20,-7,66,-1025
754,8.609936,-9,-16,-2,0,62,-1012
755,8.621496,-7,7,23,2,58,-1013
756,8.633061,-21,11,25,0,56,-1020
757,8.644611,2,-9,41,2,70,-1020
758,8.656186,26,-6,40,-5,68,-1027
759,8.667731,33,10,27,2,62,-1019
760,8.67927,-1,0,6,-11,57,-1026
761,8.690986,-3,-7,13,8,58,-1019
762,8.702607,-3,6,14,0,68,-1028
763,8.714265,2,-3,-8,-1,66,-1019
764,8.725956,-6,5,22,0,58,-1010
765,8.73762,3,-4,-2,0,60,-1036
766,8.749264,17,13,-3,-12,65,-1012
767,8.760911,-13,-29,16,-6,60,-1008
768,8.772583,-3,8,15,7,69,-1020
769,8.784239,13,-6,-28,-1,59,-1009
770,8.795927,-18,4,-52,4,67,-1020
771,8.807602,-2,18,-16,-3,56,-1018
772,8.819189,-28,-16,-18,-6,60,-1029
773,8.830765,5,-6,39,-3,56,-1009
774,8.842297,-8,2,16,3,66,-1026
775,8.853854,-8,3,4,-8,68,-1026
776,8.865404,4,2,-20,-1,61,-1036
777,8.876952,7,6,23,-3,58,-1014
778,8.888532,4,-15,12,-7,65,-1022
779,8.900116,12,-3,-3,-5,59,-1025
780,8.911747,20,30,-1,7,65,-1019
781,8.923403,-15,-22,-24,-1,55,-1023
782,8.93511,-17,-4,-1,7,72,-1014
783,8.946778,1,-7,33,-10,56,-1019
784,8.958472,29,9,36,-1,62,-1020
785,8.970132,17,-3,24,0,56,-1016
786,8.981815,6,2,35,-4,61,-1022
787,8.993465,0,-2,13,-3,59,-1014
788,9.005119,-6,13,-18,-2,69,-1031
789,9.016673,-10,-9,-9,-6,58,-1024
790,9.028228,1,-6,-1,0,50,-1014
791,9.039801,10,12,-6,-1,68,-1031
792,9.051367,-5,6,-8,0,53,-1015
793,9.062938,-17,-25,12,3,56,-1018
794,9.074518,9,21,28,0,70,-1010
795,9.086063,26,-3,26,-7,57,-1009
796,9.097609,26,2,17,-9,61,-1020
797,9.109167,5,14,-11,0,60,-1015
798,9.120788,-13,-14,-1,5,62,-1006
799,9.132432,-16,13,-16,0,63,-1016
800,9.144105,1,-8,1,2,62,-1016
801,9.155784,4,0,4,-1,56,-1023
802,9.167437,-7,1,0,0,65,-1020
803,9.17911,7,0,-3,3,56,-1008
804,9.190769,2,-9,12,2,60,-1013
805,9.20241,14,22,-12,-1,61,-1022
806,9.2141,28,27,-11,6,65,-1020
807,9.225761,15,-25,-17,-6,59,-1010
808,9.237318,-7,-12,-43,-4,61,-1038
809,9.24891,-21,3,-38,0,60,-1019
810,9.260487,-6,-3,5,-1,56,-1009
811,9.272067,27,11,19,-3,63,-1023
812,9.283611,-21,4,-8,-6,66,-1007
813,9.295171,4,4,0,-3,61,-1004
814,9.306726,8,-1,-1,-3,62,-1028
815,9.31831,0,1,-1,-5,61,-1022
816,9.329957,-8,0,10,1,54,-1023
817,9.34162,4,1,-26,-2,57,-1038
818,9.353278,3,6,17,4,53,-1028
819,9.364919,15,-10,-30,-1,67,-1016
820,9.376567,-25,19,-10,2,68,-1018
821,9.388246,28,-8,31,-6,59,-1041
822,9.399888,-2,0,-17,1,60,-1028
823,9.411538,-27,-2,-27,-6,59,-1020
824,9.423226,-9,-23,8,-8,55,-1004
825,9.434895,2,33,0,0,60,-1019
826,9.446465,18,10,-5,-3,65,-1017
827,9.458056,4,0,-3,-7,53,-1027
828,9.469613,10,2,0,6,54,-1025
829,9.481182,-12,-4,18,1,62,-1017
830,9.492734,-9,-4,20,3,55,-1009
831,9.504299,-4,-13,0,-5,62,-1013
832,9.515856,-24,8,12,-2,59,-1026
833,9.527485,27,16,34,-5,59,-1013
834,9.539106,-9,-7,-17,-2,60,-1017
835,9.550774,-5,8,-15,16,55,-1038
836,9.562449,25,0,12,5,65,-1025
837,9.574125,-14,13,-6,-4,61,-1025
838,9.585808,15,-21,6,4,60,-1029
839,9.59746,-8,17,18,-6,61,-1033
840,9.609114,8,4,0,2,59,-1037
841,9.620789,-9,-9,-4,-5,62,-1020
842,9.632445,2,-2,-24,-12,63,-1020
843,9.644117,5,-3,-8,-5,67,-1031
844,9.655727,-19,28,7,6,57,-1020
845,9.667304,9,-22,-11,-4,63,-1024
846,9.678848,-17,16,-3,0,68,-1022
847,9.690417,6,14,12,8,60,-1037
848,9.70197,7,-12,33,0,60,-1015
849,9.713516,17,-12,19,-2,66,-1021
850,9.725065,-24,6,-10,-5,58,-1014
851,9.736632,0,21,-10,-6,69,-1031
852,9.748264,3,-3,-4,-9,61,-1018
853,9.759916,-5,7,8,-2,57,-1025
854,9.771582,-5,-1,-2,1,62,-1027
855,9.783245,7,1,-30,0,60,-1012
856,9.794891,3,0,-10,1,66,-1025
857,9.806571,-20,1,-4,5,63,-1021
858,9.818253,4,-19,-14,-1,58,-1012
859,9.829898,-16,0,-23,-6,63,-1007
860,9.841591,4,8,13,-7,57,-1014
861,9.853259,9,-2,39,3,62,-1026
862,9.864817,20,-11,8,-2,67,-1006
863,9.876363,13,-19,14,-2,60,-1020
864,9.887916,-8,-11,6,-3,64,-1024
865,9.899484,-8,15,11,-8,56,-1033
866,9.911021,0,-2,12,-4,61,-1023
867,9.922567,-8,0,-9,0,62,-1023
868,9.934125,11,0,-4,-2,64,-1016
869,9.945692,-2,-6,-12,3,63,-1018
870,9.957357,-7,-3,18,0,57,-1015
871,9.96904,-5,1,29,-6,65,-1017
872,9.980707,-18,-7,-29,4,53,-1010
873,9.992366,-2,14,-6,-1,67,-1013
874,10.004018,4,-4,26,-4,66,-1017
875,10.015672,5,13,17,-5,70,-1015
876,10.027378,-21,11,0,6,60,-1040
877,10.039036,-1,21,7,2,67,-1014
878,10.050708,7,-10,4,-1,51,-1019
879,10.062279,0,-13,-6,-1,55,-1020
880,10.073813,13,0,4,5,65,-1013
881,10.085362,0,-1,-1,-1,60,-1027
882,10.09691,-13,4,2,-1,61,-1025
883,10.108456,10,2,-9,4,59,-1025
884,10.120048,1,2,-27,0,60,-1025
885,10.131597,4,19,19,-8,59,-1029
886,10.143175,11,-9,35,5,61,-1009
887,10.1548,5,5,31,2,65,-1023
888,10.166471,-4,2,-8,-5,61,-1025
889,10.178135,-9,-7,-1,-5,68,-1020
890,10.189827,-8,-12,17,0,63,-1040
891,10.201609,-4,9,-16,-1,57,-1021
892,10.213272,-2,20,22,-3,60,-1029
893,10.224957,-14,-15,-18,-1,56,-1028
894,10.236627,22,-4,0,4,63,-1019
895,10.248287,10,-6,0,-5,69,-1028
896,10.259998,-11,18,23,3,63,-1028
897,10.271612,13,-5,7,2,59,-1023
898,10.283189,-3,10,3,-2,68,-1023
899,10.29478,4,6,6,-4,68,-1030
900,10.306309,2,-9,12,0,57,-1012
901,10.317851,5,5,8,1,60,-1028
902,10.329386,11,-3,-2,7,67,-1021
903,10.340932,-2,16,12,-1,62,-1015
904,10.35249,1,-11,1,7,58,-1025
905,10.364162,5,-7,-14,-1,61,-1020
906,10.375838,-11,18,21,-1,57,-1021
907,10.387493,-7,1,15,-2,66,-1024
908,10.399158,18,2,5,1,62,-1014
909,10.41084,-15,7,15,7,64,-1031
910,10.422506,3,0,42,0,56,-1035
911,10.434165,-2,2,21,4,65,-1024
912,10.445822,7,-6,31,-1,66,-1029
913,10.45747,-2,13,-6,5,65,-1027
914,10.469013,-3,-1,-6,-1,57,-1036
915,10.480565,8,-2,-1,2,57,-1014
916,10.49211,1,3,7,-5,68,-1032
917,10.503657,4,-4,-5,-2,58,-1037
918,10.515204,-13,0,19,-5,61,-1027
919,10.526775,7,-17,21,5,58,-1010
920,10.538293,-5,-6,-1,2,63,-1028
921,10.549812,-16,1,22,2,60,-1016
922,10.561368,9,-10,20,-6,59,-1020
923,10.572983,21,-2,20,0,62,-1015
924,10.584637,5,16,-11,4,59,-1003
925,10.596285,6,-4,11,-5,67,-1018
926,10.607962,0,-3,22,3,66,-1035
927,10.619619,10,0,27,4,60,-1036
928,10.631282,-2,8,20,-2,59,-1023
929,10.642999,2,-1,-2,-6,63,-1017
930,10.65466,-5,8,17,-2,65,-1029
931,10.666355,-4,-13,-2,-3,64,-1018
932,10.678019,20,-8,10,2,54,-1030
933,10.689584,0,3,-2,0,62,-1018
934,10.701127,-8,12,25,-13,50,-1017
935,10.712681,9,-3,22,0,55,-1018
936,10.724235,8,14,-27,-3,61,-1021
937,10.735805,-16,3,-30,0,62,-1012
938,10.747367,-33,-12,-1,2,59,-1022
939,10.758948,1,0,-12,-3,58,-1024
940,10.770558,2,-6,-7,-4,54,-1020
941,10.78222,5,-4,8,-8,63,-1033
942,10.793887,-6,0,-6,-2,62,-1014
943,10.805545,-13,5,24,-6,58,-1021
944,10.817192,3,-13,8,-1,47,-1018
945,10.828868,1,25,-23,2,65,-1025
946,10.840521,-18,-23,26,4,60,-1015
947,10.852167,17,3,0,-1,66,-1017
948,10.863847,16,8,-28,3,53,-1012
949,10.875517,-27,-2,-37,4,61,-1024
950,10.887178,-34,-7,-36,-3,73,-1010
951,10.898786,23,12,24,-2,61,-1013
952,10.910345,5,-4,26,3,65,-1023
953,10.92194,9,5,29,5,62,-1033
954,10.933487,-8,2,-4,4,60,-1028
955,10.945034,-7,-11,8,-11,61,-1019
956,10.956581,10,6,4,-2,62,-1020
957,10.96813,-19,4,22,-1,61,-1019
958,10.979863,-6,-23,25,-1,67,-1002
959,10.991495,22,19,-18,-3,60,-1025
960,11.003183,-25,1,-3,1,61,-1015
961,11.01488,13,-8,37,-5,58,-1019
962,11.026542,27,8,20,-6,57,-1019
963,11.03822,-16,-1,-23,-8,66,-1019
964,11.049882,7,21,8,-4,57,-1020
965,11.061537,8,6,22,0,59,-1014
966,11.073182,-8,5,17,2,60,-1040
967,11.084856,10,0,-3,8,69,-1016
968,11.096518,-5,5,7,-1,59,-1027
969,11.108164,1,12,3,-4,58,-1024
970,11.119864,-14,-12,12,-5,66,-1027
971,11.131517,11,23,0,3,61,-1028
972,11.143175,-19,-22,-2,-4,70,-1033
973,11.154868,4,24,40,-3,54,-1037
974,11.166528,3,15,-40,2,65,-1016
975,11.1782,-28,-12,-27,-8,58,-1023
976,11.189886,15,5,22,-3,63,-1030
977,11.201552,25,0,18,-4,67,-1025
978,11.213116,5,-12,-3,9,62,-1030
979,11.224684,0,0,10,-4,68,-1010
980,11.236228,-8,-3,-7,-1,59,-1028
981,11.247774,7,-2,-16,-3,62,-1012
982,11.259323,17,8,-14,7,59,-1033
983,11.270892,-12,4,-11,4,59,-1010
984,11.282442,-13,-19,27,-3,60,-1015
985,11.294004,22,17,3,-5,55,-1028
986,11.305628,-11,-12,-22,6,65,-1022
987,11.317272,4,-14,36,1,61,-1024
988,11.328917,16,8,9,-3,70,-1023
989,11.340586,-22,-15,-10,0,54,-1019
990,11.35224,-5,16,-8,2,69,-1021
991,11.363886,20,-11,-5,-4,63,-1022
992,11.375536,-2,-2,3,0,63,-1018
993,11.387235,-8,-10,-4,-11,55,-1025
994,11.398914,7,12,-2,2,62,-1029
995,11.410582,-17,-2,17,-1,58,-1010
996,11.422169,20,20,-11,-2,60,-1021
997,11.43372,-6,-26,-16,-2,61,-1031
998,11.445268,-24,-1,-11,3,55,-1017
999,11.456818,23,8,28,-6,59,-1014
1000,11.468438,-6,13,16,3,60,-1032
1001,11.479983,16,26,15,0,64,-1009
1002,11.491563,-20,-13,-9,-10,61,-1018
1003,11.503144,-3,-31,-5,2,65,-1037
1004,11.51477,15,16,9,-5,64,-1024
1005,11.526453,-9,12,-21,2,66,-1032
1006,11.538129,-9,0,4,9,56,-1011
1007,11.549809,-6,-2,9,4,68,-1018
1008,11.561489,-9,-10,0,-5,61,-1025
1009,11.573134,-9,-11,1,4,53,-1028
1010,11.584787,-7,5,-8,-2,65,-1025
1011,11.596464,-20,-12,23,1,52,-1044
1012,11.608125,27,22,21,-9,59,-1029
1013,11.619779,20,-13,19,-1,60,-1022
1014,11.631342,30,4,31,4,65,-1023
1015,11.6429,32,15,43,2,59,-1018
1016,11.654458,27,8,31,0,63,-1011
1017,11.666061,26,0,12,-2,63,-1029
1018,11.67761,-18,9,1,-1,63,-1024
1019,11.689176,0,2,-12,-1,57,-1023
1020,11.700721,2,0,-12,-3,57,-1006
1021,11.712286,12,2,-2,-5,57,-1025
1022,11.723904,14,14,-17,-7,56,-1028
1023,11.735571,-15,-35,7,-3,62,-1024
1024,11.747245,22,33,-7,1,68,-1026
1025,11.758959,-5,-27,-24,4,67,-1037
1026,11.770602,0,17,0,0,65,-1025
1027,11.782257,17,-4,40,2,50,-1016
1028,11.793949,-1,14,-3,8,62,-1027
1029,11.805616,-23,-12,-11,-8,46,-1016
1030,11.817274,4,16,0,0,51,-1026
1031,11.828944,23,1,-12,-3,63,-1031
1032,11.840507,5,0,2,-4,60,-1024
1033,11.852068,5,10,10,5,56,-1028
1034,11.86361,-4,10,1,3,61,-1013
1035,11.875138,-15,-9,20,2,69,-1023
1036,11.886707,16,22,-15,-6,58,-1046
1037,11.898287,-3,-13,-6,3,62,-1011
1038,11.909813,10,-17,-15,-8,67,-1023
1039,11.921375,-29,-2,-36,-2,62,-1023
1040,11.932999,7,16,12,8,68,-1019
1041,11.944656,22,3,26,-8,65,-1023
1042,11.956329,-24,-18,-14,2,52,-1020
1043,11.967991,2,25,-4,-1,60,-1023
1044,11.979641,13,-15,0,3,58,-1037
1045,11.991321,-14,-6,14,0,60,-1016
1046,12.003099,-8,-5,3,7,61,-1029
1047,12.014772,9,0,-2,0,55,-1023
1048,12.026483,-4,-4,20,-6,60,-1022
1049,12.038148,-8,24,-2,1,57,-1011
1050,12.049713,15,0,-21,5,66,-1015
1051,12.061259,-18,-27,-38,-7,64,-1023
1052,12.072814,-24,8,-26,-3,64,-1017
1053,12.084365,-20,0,-26,-10,66,-1011
1054,12.095919,-18,-11,-13,-3,71,-1022
1055,12.107471,19,22,-1,-3,64,-1021
1056,12.119081,19,-8,14,0,59,-1022
1057,12.130692,2,-12,6,-3,55,-1014
1058,12.14234,-8,10,3,-3,58,-1024
1059,12.154002,-2,0,15,-2,61,-1028
1060,12.165688,-5,-5,-9,-1,56,-1008
1061,12.177457,11,3,-16,-5,62,-1031
1062,12.189142,-5,-3,-14,0,57,-1022
1063,12.200807,20,0,-16,2,56,-1016
1064,12.212469,-25,9,-20,-1,62,-1022
1065,12.22413,5,14,21,2,55,-1024
1066,12.235799,6,-10,0,3,63,-1018
1067,12.247509,3,-3,7,0,61,-1006
1068,12.259073,-18,-16,0,-3,58,-1025
1069,12.270687,-1,23,-9,2,60,-1010
1070,12.28225,12,-14,-1,-3,63,-1031
1071,12.293815,1,17,1,-5,55,-1022
1072,12.305366,-5,-10,6,0,61,-1027
1073,12.316934,15,5,-4,-4,62,-1012
1074,12.328487,8,-2,-8,8,54,-1026
1075,12.340081,-15,-6,0,-6,62,-1020
1076,12.351732,-5,-19,-17,-2,68,-1022
1077,12.363383,-25,12,-12,-4,55,-1008
1078,12.375038,25,1,25,-3,57,-1022
1079,12.38673,-13,-2,-29,-2,57,-1021
1080,12.398377,5,-1,1,-3,53,-1026
1081,12.410053,19,-4,24,-2,65,-1015
1082,12.421734,-21,7,2,-1,56,-1005
1083,12.433374,4,11,7,-1,59,-1025
1084,12.445033,3,-13,-16,-3,59,-1032
1085,12.456707,4,13,10,-6,66,-1020
1086,12.468276,-15,-4,6,0,67,-1017
1087,12.479831,-4,-2,10,-6,59,-1017
1088,12.491413,-6,8,8,6,58,-1033
1089,12.503007,-11,5,-15,5,52,-1018
1090,12.514562,1,-20,-5,-8,67,-1027
1091,12.526119,-18,11,-25,-4,58,-1017
1092,12.537692,7,2,20,2,61,-1036
1093,12.549249,4,-3,20,5,62,-1023
1094,12.560872,3,-15,17,-7,65,-1020
1095,12.57253,-14,16,2,0,68,-1024
1096,12.584197,9,-9,-18,-5,63,-1018
1097,12.595849,6,0,-6,-4,58,-1024
1098,12.607499,-10,6,-8,0,58,-1024
1099,12.619162,8,5,-10,-3,60,-1016
1100,12.630846,-16,-1,21,-1,59,-1012
1101,12.642512,4,3,-1,0,65,-1014
1102,12.654212,-5,-5,12,-5,55,-1028
1103,12.665878,0,-19,-7,-3,60,-1025
1104,12.677449,-15,5,-30,2,50,-1019
1105,12.688998,-5,3,-11,-10,63,-1032
1106,12.700545,-8,-2,-21,-2,57,-1023
1107,12.712096,-4,0,2,-3,61,-1014
1108,12.72372,3,-34,18,-6,56,-1020
1109,12.7353,3,-8,-6,0,58,-1018
1110,12.746848,-3,11,4,0,66,-1024
1111,12.758424,-8,-8,10,0,67,-1014
1112,12.77007,-5,-2,1,1,61,-1035
1113,12.781732,15,-9,-3,-2,60,-1007
1114,12.793387,-8,2,9,3,58,-1041
1115,12.805043,-8,7,18,5,66,-1005
1116,12.816687,4,20,8,-2,67,-1025
1117,12.82836,4,-6,6,0,63,-1018
1118,12.840008,7,8,6,-10,66,-1033
1119,12.851659,2,-3,5,7,65,-1026
1120,12.863371,4,0,-8,4,54,-1024
1121,12.875027,5,9,2,10,62,-1022
1122,12.886597,4,-13,-10,2,65,-1017
1123,12.898209,3,10,-11,1,58,-1022
1124,12.909759,13,3,-7,0,62,-1033
1125,12.921315,-17,-2,17,-3,63,-1023
1126,12.932863,-15,-2,2,0,66,-1026
1127,12.944415,15,-3,-16,-1,66,-1019
1128,12.955967,12,-4,-16,-6,66,-1030
1129,12.967559,-21,-15,13,-3,65,-1021
1130,12.979261,-6,8,-23,-3,65,-1019
1131,12.990922,-3,7,-25,-3,70,-1029
1132,13.002585,1,-3,8,-8,52,-1035
1133,13.014255,12,1,27,2,57,-1035
1134,13.025905,2,-1,2,-4,62,-1015
1135,13.03758,6,0,-8,0,65,-1024
1136,13.049234,-16,-6,16,-11,60,-1001
1137,13.060892,19,-8,-8,2,60,-1024
1138,13.072551,-18,-3,14,-2,69,-1015
1139,13.08422,17,3,0,-5,59,-1023
1140,13.095871,-4,0,20,1,55,-1013
1141,13.107515,-2,4,30,2,70,-1028
1142,13.119182,12,16,-20,2,62,-1025
1143,13.130858,-2,-3,-10,5,62,-1022
1144,13.142512,0,12,-12,3,53,-1018
1145,13.154206,-7,2,-20,3,57,-1012
1146,13.165867,-3,-4,-16,-5,65,-1018
1147,13.177513,-6,15,4,7,65,-1025
1148,13.189164,-5,-4,-2,2,61,-1014
1149,13.200806,18,-3,-9,-4,48,-1021
1150,13.212454,-17,-4,6,12,59,-1021
1151,13.224117,10,-2,2,-1,65,-1011
1152,13.235789,0,-6,-3,7,69,-1022
1153,13.247436,-9,8,35,0,59,-1020
1154,13.259116,23,5,7,-5,59,-1028
1155,13.270764,8,8,-13,3,59,-1015
1156,13.282491,8,0,23,-1,70,-1023
1157,13.294152,1,1,20,3,54,-1019
1158,13.305817,10,-4,33,-4,57,-1032
1159,13.317476,4,1,15,-5,58,-1012
1160,13.329127,4,-14,-2,0,59,-1009
1161,13.340776,3,10,6,-3,58,-1026
1162,13.352433,-8,1,2,-3,70,-1013
1163,13.364087,13,16,-14,-8,61,-1023
1164,13.37574,-18,1,1,-2,60,-1022
1165,13.387419,10,10,9,5,60,-1022
1166,13.399102,6,-8,0,3,61,-1018
1167,13.410767,-22,3,-11,-1,59,-1028
1168,13.422457,28,-6,38,-8,66,-1021
1169,13.434119,0,-7,-4,-2,59,-1020
1170,13.44577,6,10,12,5,66,-1024
1171,13.45742,-5,5,6,5,60,-1013
1172,13.469059,3,0,4,-1,63,-1022
1173,13.480706,3,-4,-19,-7,58,-1013
1174,13.492382,3,5,9,-2,62,-1023
1175,13.504048,-9,-15,19,-8,63,-1024
1176,13.515617,9,-5,9,-11,52,-1015
1177,13.527188,17,6,1,8,60,-1005
1178,13.538782,-13,-2,13,2,55,-1027
1179,13.550334,-8,1,32,-7,55,-1033
1180,13.561881,27,2,19,2,68,-1017
1181,13.573433,-9,5,-17,-3,59,-1038
1182,13.584982,-26,7,-25,-4,73,-1010
1183,13.596573,-7,1,-15,1,63,-1022
1184,13.608219,11,-8,-12,-1,63,-1031
1185,13.619869,-4,3,10,1,61,-1021
1186,13.631516,-1,-7,7,-11,60,-1016
1187,13.643185,-15,-3,20,-5,56,-1019
1188,13.654854,11,20,-17,-7,70,-1009
1189,13.666511,-15,-18,20,0,60,-1024
1190,13.678206,22,27,0,3,59,-1029
1191,13.689868,-17,5,12,-5,68,-1026
1192,13.701539,0,8,-27,-4,65,-1022
1193,13.713112,35,5,45,-6,63,-1015
1194,13.724716,-30,-8,-35,-11,63,-1011
1195,13.736317,9,-12,51,-2,61,-1014
1196,13.747877,-3,14,-37,-4,67,-1026
1197,13.759452,-9,6,-27,-3,59,-1024
1198,13.771018,5,4,13,-4,56,-1016
1199,13.782617,12,1,-30,-1,62,-1018
1200,13.794196,16,1,-11,7,66,-1014
1201,13.805751,-1,18,-8,0,60,-1020
1202,13.817396,-11,-25,15,-1,55,-1032
1203,13.829076,25,22,-11,4,53,-1019
1204,13.840743,-28,15,31,-3,62,-1018
1205,13.852392,19,-13,31,-4,69,-1016
1206,13.864043,4,10,-34,-1,59,-1033
1207,13.875733,-28,-9,-20,3,56,-1024
1208,13.887372,13,-6,7,0,73,-1031
1209,13.899026,-8,0,-7,1,55,-1015
1210,13.910736,4,-1,-3,-11,65,-1010
1211,13.922417,0,10,21,-2,62,-1019
1212,13.933992,0,4,10,12,63,-1037
1213,13.945563,0,-13,0,-4,66,-1020
1214,13.957118,13,7,-13,-11,59,-1026
1215,13.968674,-5,-8,2,-4,58,-1016
1216,13.980266,-25,-21,12,0,64,-1033
1217,13.991826,16,32,35,-1,61,-998
1218,14.003454,26,-3,24,-2,54,-1027
1219,14.015055,8,9,-5,4,58,-1027
1220,14.026762,-23,-10,-19,3,55,-1027
1221,14.038409,-18,13,-11,-2,65,-1025
1222,14.05014,-4,6,-24,0,57,-1014
1223,14.061831,2,-10,0,-10,61,-1023
1224,14.073489,2,5,13,-7,66,-1018
1225,14.085143,-8,2,23,5,56,-1023
1226,14.096806,11,17,-3,1,70,-1033
1227,14.108459,7,-18,15,-1,62,-1015
1228,14.120119,11,34,-4,5,60,-1017
1229,14.131761,-23,-21,12,1,66,-1022
1230,14.143488,-30,-5,27,-4,61,-996
1231,14.155148,0,-19,42,0,62,-1011
1232,14.166864,26,17,20,7,65,-1029
1233,14.178538,22,22,30,-3,66,-1021
1234,14.190261,-21,-15,-22,-6,60,-1009
1235,14.201952,-6,0,-40,-4,62,-1014
1236,14.213603,10,0,35,-6,58,-1017
1237,14.225186,-3,-5,-35,2,50,-1019
1238,14.236731,-2,2,23,4,55,-1012
1239,14.24829,2,9,12,-4,61,-1032
1240,14.259841,-3,4,-6,12,68,-1020
1241,14.271387,12,-13,0,2,63,-1014
1242,14.282937,-20,-14,8,-5,65,-1020
1243,14.294546,-10,19,4,0,62,-1020
1244,14.306104,-6,3,2,0,66,-1019
1245,14.317699,19,-13,4,3,65,-1033
1246,14.329323,-20,3,6,2,57,-1013
1247,14.340989,-26,15,-54,5,64,-1032
1248,14.352685,26,23,6,-3,57,-1034
1249,14.364362,-15,11,-31,-10,58,-1018
1250,14.376005,-3,12,-29,10,62,-1025
1251,14.387657,2,9,2,3,59,-1025
1252,14.399304,4,-2,10,-3,59,-1009
1253,14.410979,14,-18,14,2,63,-1025
1254,14.422656,16,-23,1,3,57,-1034
1255,14.434321,8,2,6,-2,59,-1013
1256,14.445946,-9,6,-2,0,55,-1021
1257,14.45751,16,8,15,6,59,-1011
1258,14.469067,-13,-11,5,5,58,-1003
1259,14.48062,11,-20,-38,6,66,-1024
1260,14.492175,4,5,37,2,56,-1019
1261,14.503729,-22,8,-13,5,68,-1040
1262,14.515279,-9,30,-5,-4,60,-1013
1263,14.526855,-22,11,-24,-6,61,-1022
1264,14.538546,-6,-1,-37,-12,60,-1013
1265,14.550255,-8,4,-48,-1,59,-1015
1266,14.561902,6,36,15,0,63,-1026
1267,14.573575,12,30,-4,-3,51,-1027
1268,14.585246,8,14,0,7,53,-1019
1269,14.596888,20,-4,8,0,53,-1023
1270,14.608543,0,6,-2,4,58,-1012
1271,14.6202,7,14,8,-1,58,-1020
1272,14.631879,-1,-11,-6,7,66,-1037
1273,14.643538,14,-5,-5,6,54,-1018
1274,14.6551,10,-5,-34,-7,59,-1013
1275,14.666684,18,0,-16,-10,58,-1017
1276,14.67823,31,9,-9,1,65,-1024
1277,14.689809,1,17,36,-3,58,-1020
1278,14.701356,-12,20,-7,0,71,-1017
1279,14.712896,-4,3,-11,-10,58,-1022
1280,14.724468,-23,-18,-23,0,58,-1020
1281,14.736067,-12,-24,-15,2,63,-1014
1282,14.747723,-17,9,-29,2,60,-1025
1283,14.75938,2,32,-16,0,57,-1027
1284,14.771032,-4,12,35,0,58,-1032
1285,14.782717,-8,-1,2,0,63,-1027
1286,14.794348,8,17,18,0,56,-1018
1287,14.806002,6,-1,-21,-1,61,-1020
1288,14.817651,20,-1,21,2,66,-1013
1289,14.829318,-11,5,-6,-4,62,-1023
1290,14.840996,8,-9,-11,7,63,-1009
1291,14.85265,24,21,-2,0,61,-1013
1292,14.864214,-12,21,4,0,62,-1036
1293,14.875771,-1,-11,17,4,67,-1010
1294,14.887332,-18,-23,-29,3,60,-1014
1295,14.898931,-1,30,13,-1,58,-1033
1296,14.910492,-23,-25,-20,4,55,-1020
1297,14.922066,-2,-37,0,-9,65,-1023
1298,14.933612,6,-13,-20,2,68,-1039
1299,14.945175,-7,-9,2,6,65,-1033
1300,14.956844,-4,3,18,-3,63,-1020
1301,14.968505,-12,-21,-2,-2,61,-1012
1302,14.98016,12,-14,-13,-3,63,-1021
1303,14.991818,17,-2,-24,-5,66,-1023
1304,15.00348,16,0,13,-2,71,-1025
1305,15.015121,19,29,-15,0,62,-1013
1306,15.026776,23,21,37,-7,61,-1022
1307,15.038456,-21,21,-49,-4,56,-1017
1308,15.050133,-32,4,-61,0,66,-1031
1309,15.061821,18,11,15,-7,63,-1022
1310,15.073461,-24,20,-30,-4,59,-1035
1311,15.085041,-2,-6,-9,-4,61,-1024
1312,15.096602,0,1,0,2,63,-1016
1313,15.108191,7,-3,32,-1,60,-1025
1314,15.119741,9,-15,-28,6,61,-1027
1315,15.131289,-7,-6,-13,2,57,-1010
1316,15.142854,16,-12,-2,-2,69,-1010
1317,15.154457,-10,12,6,7,61,-1033
1318,15.166091,16,6,-6,-4,55,-1020
1319,15.177753,8,-5,15,-2,52,-1021
1320,15.189402,11,-8,-16,0,62,-1018
1321,15.201052,7,-3,59,-2,70,-1022
1322,15.212728,-30,1,-2,-4,55,-1036
1323,15.22437,-24,-1,-26,9,72,-1029
1324,15.236024,16,9,-3,6,63,-1018
1325,15.247732,-13,13,-42,7,61,-1023
1326,15.259386,4,16,-3,-2,55,-1024
1327,15.27111,-13,12,-48,-2,64,-1017
1328,15.282692,6,11,-10,2,59,-1036
1329,15.294243,5,-30,23,-7,59,-1027
1330,15.305814,17,10,-5,-2,62,-1034
1331,15.31736,-14,24,9,-7,60,-1011
1332,15.328906,0,17,-4,-4,56,-1011
1333,15.340449,-10,1,-25,-4,58,-1027
1334,15.352031,3,9,-20,0,57,-1011
1335,15.363594,-9,10,26,2,57,-1021
1336,15.375235,-4,-2,-33,-3,62,-1038
1337,15.386901,-6,11,-64,0,62,-1020
1338,15.398597,-16,16,2,0,57,-1024
1339,15.410255,-24,8,-29,6,63,-1016
1340,15.421972,-3,8,-21,1,60,-1026
1341,15.433632,-3,5,-3,-3,58,-1023
1342,15.44528,5,41,4,0,59,-1026
1343,15.456948,-13,21,-8,3,64,-1019
1344,15.468632,-6,25,-30,8,62,-1023
1345,15.480283,-5,24,-8,-3,73,-1018
1346,15.491843,0,-14,-29,-3,58,-1034
1347,15.503391,-9,-6,28,5,69,-1030
1348,15.514946,-15,-11,8,8,63,-1022
1349,15.526548,16,-10,-1,-1,58,-1015
1350,15.538103,4,-3,-32,-7,69,-1022
1351,15.549681,27,27,-22,-10,62,-1030
1352,15.56122,-13,10,28,-2,64,-1031
1353,15.572783,-28,-13,-45,-11,64,-1023
1354,15.584406,-10,-13,-22,-1,59,-1028
1355,15.59606,13,-14,9,-2,54,-1023
1356,15.607725,15,-24,11,-8,65,-1017
1357,15.619381,13,-10,17,-1,60,-1002
1358,15.631031,8,35,4,-15,60,-1020
1359,15.642718,2,26,-8,0,64,-1018
1360,15.654381,-2,9,23,-2,59,-1034
1361,15.666065,11,19,11,0,63,-1034
1362,15.677746,6,0,-30,3,56,-1023
1363,15.689417,-6,2,29,-6,54,-1021
1364,15.700985,-5,-13,0,0,66,-1013
1365,15.71256,-5,8,-17,0,59,-1015
1366,15.724114,19,36,1,0,60,-1004
1367,15.735686,-7,19,21,0,60,-1009
1368,15.747257,-20,-5,-27,-5,63,-1023
1369,15.758796,-29,-19,-42,-7,74,-1009
1370,15.77035,18,5,13,-9,59,-1021
1371,15.781907,-3,19,-9,-4,69,-1020
1372,15.793531,-18,-31,-9,0,57,-1017
1373,15.805183,-10,-25,-10,6,61,-1027
1374,15.816853,5,-4,49,2,56,-1014
1375,15.828522,10,6,13,-5,66,-1016
1376,15.840172,8,1,-16,-3,62,-1016
1377,15.851849,7,8,17,2,53,-1028
1378,15.863499,-10,11,25,-1,72,-1026
1379,15.875156,-15,19,13,-4,57,-1032
1380,15.886866,-1,21,-20,-5,67,-1027
1381,15.898529,-3,15,22,12,57,-1029
1382,15.910097,-18,3,-34,-1,60,-1009
1383,15.921683,-15,-24,24,4,60,-1014
1384,15.933229,21,26,1,-5,61,-1020
1385,15.944774,-21,-12,-18,-1,60,-1029
1386,15.956325,-13,-31,-12,-2,61,-1015
1387,15.967873,11,6,41,0,59,-1020
1388,15.97946,-8,-2,-20,6,64,-1028
1389,15.991061,15,-9,34,6,63,-1015
1390,16.002716,-5,0,-18,3,66,-1017
1391,16.014343,-5,-1,-15,-5,67,-1028
1392,16.026003,12,-10,1,7,58,-1016
1393,16.037659,8,-16,-12,-3,57,-1019
1394,16.049325,-13,4,9,3,61,-1027
1395,16.060978,-16,0,0,-5,60,-1031
1396,16.072631,6,1,-11,-2,60,-1014
1397,16.084284,-11,12,56,1,67,-1012
1398,16.095946,-9,11,-58,0,60,-1018
1399,16.10765,26,29,13,-13,62,-1009
1400,16.119203,17,-14,17,0,68,-1017
1401,16.130779,15,-9,47,2,63,-1027
1402,16.142294,-11,8,-33,7,65,-1031
1403,16.153854,4,-3,41,-6,53,-1010
1404,16.165436,-8,8,-38,-3,62,-1031
1405,16.177002,-12,-8,1,-6,63,-1018
1406,16.188604,16,0,5,0,60,-1007
1407,16.200351,7,11,-30,2,66,-1012
1408,16.211932,18,-14,-32,-3,60,-1007
1409,16.223487,-5,1,-25,6,60,-1010
1410,16.235027,11,3,-24,0,65,-1022
1411,16.246584,4,-7,-13,2,69,-1028
1412,16.258203,-17,0,22,-3,60,-1027
1413,16.26981,-11,15,40,-6,59,-1040
1414,16.281364,13,-11,21,0,61,-1003
1415,16.292912,13,-11,18,-3,63,-1022
1416,16.304465,-2,2,-18,4,51,-1018
1417,16.31614,3,1,14,-3,65,-1025
1418,16.327797,1,4,-13,4,57,-1017
1419,16.339478,10,-15,-7,-3,58,-1024
1420,16.351116,0,1,0,-1,58,-1000
1421,16.362781,-5,16,8,-1,64,-1021
1422,16.374478,-12,-4,9,-4,68,-1011
1423,16.386143,19,11,-32,1,54,-1043
1424,16.397875,10,11,5,2,73,-1024
1425,16.409557,19,1,-24,-2,72,-1001
1426,16.421263,1,-4,39,-6,58,-1025
1427,16.432829,8,-19,0,8,54,-1018
1428,16.444439,8,-14,19,6,50,-1024
1429,16.456,5,-10,15,0,65,-1022
1430,16.467582,13,-1,44,9,61,-1023
1431,16.479157,6,-2,30,-2,66,-1017
1432,16.490718,2,22,-2,2,56,-1019
1433,16.502301,-2,-2,14,3,71,-1017
1434,16.513879,2,-1,4,4,61,-1024
1435,16.525509,0,-6,-3,3,70,-1033
1436,16.537174,12,6,-15,-1,63,-1039
1437,16.548844,-16,0,8,-1,62,-1010
1438,16.560495,-5,7,-12,0,62,-1019
1439,16.572177,19,-4,-27,0,56,-999
1440,16.583857,-23,5,-22,4,70,-1013
1441,16.595513,11,1,24,-8,64,-1012
1442,16.607181,7,-6,16,0,57,-1024
1443,16.618871,1,-8,6,-5,66,-1023
1444,16.630526,11,-8,1,-3,67,-1015
1445,16.642069,-6,-7,-2,0,69,-1021
1446,16.653619,0,15,15,0,63,-1013
1447,16.665184,-11,1,10,-2,66,-1018
1448,16.676736,-3,-12,3,-1,56,-1035
1449,16.688309,18,1,-6,0,67,-1023
1450,16.699848,15,-6,7,0,66,-1024
1451,16.71139,4,0,14,3,60,-1019
1452,16.722958,-10,7,25,-2,60,-1022
1453,16.734601,13,-11,47,2,65,-1012
1454,16.74627,-18,13,-40,0,60,-1036
1455,16.757958,-2,5,-25,-2,63,-1025
1456,16.769619,-1,5,-15,-7,62,-1017
1457,16.781276,-5,-1,-16,-5,56,-1026
1458,16.792949,10,5,-10,0,63,-1027
1459,16.804619,-6,0,17,0,61,-1012
1460,16.816273,4,-8,-8,0,57,-1031
1461,16.827956,16,4,-23,-1,64,-1017
1462,16.839619,9,17,-17,6,61,-1023
1463,16.851205,0,-9,-2,3,63,-1022
1464,16.862777,-7,-6,8,3,70,-1018
1465,16.874339,-9,6,40,2,61,-1010
1466,16.885891,-13,-6,21,-1,58,-1031
1467,16.89745,15,-6,21,1,62,-1024
1468,16.909032,5,-4,22,-5,65,-1011
1469,16.920579,12,0,30,-2,58,-1018
1470,16.932139,11,-1,25,5,58,-1009
1471,16.943838,-4,0,17,-2,57,-1018
1472,16.9555,4,9,-13,-8,62,-1027
1473,16.967159,0,7,15,0,68,-1017
1474,16.978856,-12,2,8,5,69,-1022
1475,16.990514,20,11,-1,0,64,-1019
1476,17.002192,0,6,-12,3,58,-1019
1477,17.013864,-2,8,5,0,57,-1013
1478,17.02551,-20,4,18,-4,63,-1025
1479,17.037174,2,-13,37,6,67,-1018
1480,17.048854,32,6,18,1,58,-1022
1481,17.060443,1,9,-6,-1,61,-1032
1482,17.072,-6,0,1,-11,55,-1018
1483,17.083569,-7,9,-13,4,61,-1027
1484,17.095133,3,2,-2,-2,58,-1023
1485,17.106695,-8,10,2,-1,62,-1019
1486,17.118278,1,12,13,-1,63,-1039
1487,17.129816,-16,0,18,-5,64,-1009
1488,17.141379,-15,-23,12,0,55,-1024
1489,17.153044,-16,-10,11,-3,48,-1027
1490,17.164732,11,-9,-36,0,63,-1014
1491,17.176393,9,10,-46,-6,65,-1025
1492,17.188045,-29,-12,-13,2,66,-1018
1493,17.199735,-4,2,-1,6,73,-1015
1494,17.211421,2,-3,18,-2,69,-1018
1495,17.223103,9,8,34,4,57,-1027
1496,17.234767,-3,8,22,4,63,-1022
1497,17.246474,-5,0,-14,0,60,-1009
1498,17.258142,8,12,14,-2,65,-1019
1499,17.269708,-14,-2,9,0,62,-1020
1500,17.281262,1,-8,16,0,63,-1018
1501,17.292817,15,13,3,-6,62,-1019
1502,17.304413,14,16,-13,1,61,-1028
1503,17.315994,-1,0,-19,0,58,-1018
1504,17.327567,-29,5,-12,6,58,-1025
1505,17.339136,-29,-10,-26,8,53,-1018
1506,17.350712,2,-2,2,-2,58,-1033
1507,17.362346,23,1,30,-2,63,-1019
1508,17.374012,7,3,24,-1,51,-1006
1509,17.385668,-4,6,10,-7,66,-1025
1510,17.397341,-4,7,-13,2,58,-1031
1511,17.408995,4,-1,-18,-3,59,-1023
1512,17.420648,5,9,2,-4,63,-1036
1513,17.432301,-11,-16,21,-8,58,-1016
1514,17.443992,0,-3,12,12,59,-1011
1515,17.455648,23,7,-12,3,56,-1025
1516,17.467325,-6,4,-28,0,69,-1015
1517,17.478931,-11,-6,20,5,73,-1010
1518,17.490483,-12,-15,11,-2,55,-1023
1519,17.502054,28,11,27,-1,70,-1033
1520,17.513601,19,21,7,5,57,-1026
1521,17.525147,5,-7,-9,4,53,-1016
1522,17.536692,2,-4,9,-9,54,-1024
1523,17.548262,0,-1,19,-1,61,-1031
1524,17.559831,-6,2,15,0,57,-1022
1525,17.571483,-4,4,-14,-1,62,-1018
1526,17.583125,-12,13,1,0,59,-1025
1527,17.594839,-14,-21,15,4,63,-1024
1528,17.606508,14,19,0,6,61,-1017
1529,17.618162,27,8,23,9,53,-1031
1530,17.629824,22,7,-6,7,60,-1017
1531,17.641479,-27,-1,-40,-8,55,-1020
1532,17.653132,-11,5,-9,0,61,-1025
1533,17.664794,22,-9,12,-4,64,-1020
1534,17.676479,2,-10,26,2,60,-1011
1535,17.688079,-7,9,1,-3,61,-1026
1536,17.699719,6,-2,-8,5,53,-1030
1537,17.711305,0,5,1,-4,53,-1031
1538,17.722851,-3,-5,-7,3,69,-1023
1539,17.73442,0,20,-26,0,69,-1029
1540,17.745978,-21,-22,18,-6,60,-1019
1541,17.757525,15,30,21,1,63,-1026
1542,17.769085,13,-19,0,-2,62,-1015
1543,17.780747,-20,-2,-23,-3,54,-1030
1544,17.792406,15,-4,22,-1,66,-1025
1545,17.804076,0,-12,11,6,61,-1017
1546,17.815734,-27,4,-23,-3,59,-1017
1547,17.827386,12,9,-6,-2,59,-1006
1548,17.839046,7,-13,3,0,65,-1014
1549,17.85073,-7,3,18,-2,63,-1023
1550,17.862395,8,-1,0,-2,50,-1022
1551,17.874091,-3,-7,11,-2,58,-1015
1552,17.885748,10,2,10,-6,60,-1036
1553,17.897313,24,21,-13,-1,62,-1026
1554,17.908862,-11,-30,-29,2,54,-1025
1555,17.920415,-15,16,-18,-2,64,-1021
1556,17.93196,14,-5,33,0,61,-1022
1557,17.943523,34,16,26,-10,62,-1027
1558,17.955127,12,-4,19,1,56,-1023
1559,17.966679,-16,-18,-4,5,60,-1017
1560,17.978234,-9,21,-6,1,65,-1018
1561,17.989901,-2,5,-16,-3,65,-1018
1562,18.00158,11,5,0,0,61,-1034
1563,18.013252,-15,-7,0,2,61,-1014
1564,18.02491,2,9,-17,-4,63,-1024
1565,18.03658,12,-25,22,6,65,-1022
1566,18.048286,23,16,8,1,75,-1007
1567,18.05999,-14,-23,-22,3,55,-1025
1568,18.071637,2,12,18,-7,55,-1028
1569,18.083307,14,-8,20,9,68,-1027
1570,18.095024,21,3,29,-2,58,-1018
1571,18.106585,-17,-17,-4,14,53,-1034
1572,18.118198,-22,-9,-8,4,59,-1024
1573,18.129748,9,16,-11,-6,60,-1023
1574,18.141313,2,-4,-7,-3,59,-1008
1575,18.152877,5,-5,-19,3,59,-1031
1576,18.16444,16,3,16,-7,67,-1016
1577,18.175984,6,0,-20,5,60,-1021
1578,18.187542,-16,-4,10,2,66,-1031
1579,18.199168,23,29,4,-2,64,-1028
1580,18.210852,-20,-17,-29,-10,67,-1018
1581,18.222512,-20,13,-19,-1,68,-1015
1582,18.234198,-16,0,-30,-1,61,-1023
1583,18.245875,-28,-4,-21,6,58,-1018
1584,18.257526,10,17,-7,-3,66,-1028
1585,18.269181,21,-4,15,-1,60,-1034
1586,18.280848,-1,-14,0,7,62,-1038
1587,18.292511,-2,-2,12,1,64,-1011
1588,18.304213,-2,-6,9,-5,62,-1026
1589,18.315812,10,1,-16,4,60,-1016
1590,18.327364,13,8,-21,0,58,-1017
1591,18.338924,-15,-4,-1,5,66,-1018
1592,18.350476,25,12,16,6,63,-1021
1593,18.362055,-14,-18,-36,3,73,-1032
1594,18.373614,-18,13,-6,3,59,-1015
1595,18.385182,-3,9,-13,6,65,-998
1596,18.396743,3,-9,25,0,66,-1019
1597,18.408376,10,-22,10,0,70,-1021
1598,18.420066,-16,15,-18,7,63,-1034
1599,18.431732,-8,18,-16,-3,54,-1029
1600,18.443398,7,-2,-5,1,65,-1022
1601,18.455097,7,-1,-1,-5,55,-1015
1602,18.466765,14,9,-6,0,52,-1027
1603,18.478465,-13,-1,17,5,64,-1027
1604,18.490127,-14,7,6,3,56,-1024
1605,18.501826,-10,13,18,-1,59,-1036
1606,18.513505,23,1,29,7,66,-1035
1607,18.525067,-10,-4,-31,-3,63,-1019
1608,18.53662,-15,2,-34,4,57,-1031
1609,18.548175,-1,0,-22,2,64,-995
1610,18.55973,0,21,-1,-4,63,-1037
1611,18.571277,17,3,-8,6,60,-1034
1612,18.582833,9,6,16,-4,63,-1027
1613,18.59703,-10,-10,8,3,53,-1025
1614,18.608644,10,2,1,-14,58,-1022
1615,18.620207,8,7,-12,0,58,-1031
1616,18.631758,-4,3,0,2,57,-1015
1617,18.643321,-6,16,27,0,59,-1009
1618,18.65493,25,-3,7,5,58,-1033
1619,18.666523,-21,6,-20,-1,69,-1018
1620,18.678067,-1,5,3,-2,59,-1018
1621,18.689614,18,0,26,1,53,-1027
1622,18.701162,-21,-20,-18,-5,58,-1019
1623,18.712797,9,32,6,0,64,-1016
1624,18.724436,12,-10,-11,-3,56,-1012
1625,18.736122,-10,5,3,-3,69,-1028
1626,18.747784,-6,-10,1,-3,60,-1015
1627,18.759436,9,0,7,1,58,-1004
1628,18.771114,-5,0,29,12,59,-1026
1629,18.782785,4,4,0,-6,63,-1030
1630,18.794461,-11,13,23,2,50,-1028
1631,18.806124,22,-6,14,-3,55,-1019
1632,18.817868,-12,-5,-20,-4,61,-1019
1633,18.829532,8,7,17,0,60,-1005
1634,18.841203,-3,7,-5,-6,62,-1020
1635,18.852863,29,-2,20,-2,61,-1012
1636,18.864515,-22,7,-4,-2,59,-1012
1637,18.876185,12,-1,-8,3,58,-1018
1638,18.88786,0,0,6,5,61,-1022
1639,18.899515,-7,0,6,0,58,-1017
1640,18.911193,-1,6,-23,-5,61,-1018
1641,18.922851,8,5,-20,-1,59,-1024
1642,18.934445,-14,6,4,0,67,-1028
1643,18.945999,20,-3,2,-4,60,-1019
1644,18.957567,-18,-8,-28,7,56,-1014
1645,18.969137,-14,17,-9,3,59,-1032
1646,18.980694,11,1,33,-1,58,-1017
1647,18.992243,7,-10,32,-8,54,-1024
1648,19.003811,-16,-9,1,-1,60,-1009
1649,19.015358,-12,23,-11,-5,62,-1020
1650,19.026931,-6,17,5,-2,61,-1025
1651,19.038614,2,-5,9,0,63,-1028
1652,19.050299,12,7,-6,3,58,-1022
1653,19.062081,-6,-1,21,6,60,-1012
1654,19.073753,-10,-2,-8,-6,65,-1018
1655,19.085466,-17,-7,-3,-6,51,-1033
1656,19.097126,7,-25,-27,5,57,-1013
1657,19.108787,0,12,20,-6,66,-1011
1658,19.120467,8,-8,0,0,61,-1019
1659,19.132134,-12,12,-35,-3,59,-1023
1660,19.143851,-15,5,-35,-2,54,-1009
1661,19.155445,-18,20,-5,-4,68,-1027
1662,19.167017,8,15,-8,-7,59,-1024
1663,19.178563,13,-9,-8,-1,58,-1024
1664,19.190152,-1,-1,-7,-1,59,-1028
1665,19.201707,-8,-3,-1,-1,61,-1023
1666,19.213257,8,3,-18,10,63,-1019
1667,19.224813,6,-3,-11,-2,58,-1022
1668,19.236369,-12,6,-1,-4,56,-1034
1669,19.248018,7,3,-28,6,64,-1007
1670,19.259736,9,-15,-6,7,59,-1029
1671,19.271394,-20,17,-22,-2,66,-1024
1672,19.283073,4,2,10,-3,62,-1023
1673,19.294748,3,-2,29,4,57,-1027
1674,19.306407,-18,-17,-1,11,62,-1031
1675,19.318089,-1,26,-3,4,62,-1023
1676,19.329745,5,-24,-3,-2,62,-1030
1677,19.341417,2,11,-9,-5,66,-1008
1678,19.353091,-4,8,12,-2,67,-1029
1679,19.364684,-4,-9,29,2,57,-1018
1680,19.376234,-13,3,15,-5,59,-1022
1681,19.387818,-6,8,-8,2,61,-1026
1682,19.399369,17,-6,-17,-10,60,-1010
1683,19.410922,-7,2,5,6,56,-1017
1684,19.422482,13,-2,38,2,61,-1025
1685,19.434057,7,-12,39,2,62,-1013
1686,19.445615,4,5,33,-2,51,-1017
1687,19.45725,5,-1,-17,7,69,-1011
1688,19.468962,8,4,-6,-3,62,-1027
1689,19.480637,12,-12,-11,-2,58,-1029
1690,19.492292,1,3,-7,-3,56,-1022
1691,19.503991,-9,-3,7,8,59,-1035
1692,19.515645,9,7,-16,8,63,-1029
1693,19.52732,-12,-2,10,-7,57,-1016
1694,19.539006,-11,6,-4,-1,59,-1017
1695,19.550659,8,-6,-35,0,62,-1028
1696,19.562254,-8,16,19,-1,63,-1022
1697,19.573813,1,1,19,-3,68,-1015
1698,19.585358,8,-5,26,6,65,-1031
1699,19.596911,2,-3,5,4,60,-1020
1700,19.608457,1,0,11,3,63,-1013
1701,19.620005,-8,22,-1,0,54,-1008
1702,19.631567,0,-5,15,-11,68,-1015
1703,19.64317,0,-4,0,-2,61,-1018
1704,19.654724,14,0,-17,8,58,-1009
1705,19.666389,-30,2,10,-5,67,-1033
1706,19.678105,4,11,4,9,59,-1023
1707,19.689766,4,-14,6,-6,63,-1041
1708,19.701424,-8,7,33,7,57,-1023
1709,19.713075,22,-1,9,3,71,-1014
1710,19.72476,15,-1,22,3,59,-1009
1711,19.736432,3,-1,31,6,67,-1031
1712,19.74811,6,2,20,0,53,-1027
1713,19.759761,7,1,28,-14,58,-1022
1714,19.771351,-5,24,-4,-4,58,-1015
1715,19.78291,8,-1,7,-4,71,-1012
1716,19.794465,-2,-16,-3,-3,67,-1020
1717,19.806054,10,-12,-13,-1,53,-1023
1718,19.817609,21,1,3,0,62,-1010
1719,19.82918,18,-8,-3,4,67,-1021
1720,19.840732,7,2,7,3,61,-1016
1721,19.852322,-17,7,10,-5,61,-1043
1722,19.864072,-16,18,-60,12,63,-1009
1723,19.87586,28,-7,-9,-2,61,-1017
1724,19.887529,7,5,31,0,58,-1024
1725,19.899179,10,9,33,0,61,-1022
1726,19.910838,-2,-3,0,-2,67,-1025
1727,19.922501,0,4,6,9,59,-1034
1728,19.934192,-1,-6,0,-1,66,-1026
1729,19.945868,9,-6,-4,4,60,-1018
1730,19.957537,-7,11,3,3,59,-1016
1731,19.969219,-9,-20,24,6,58,-1036
1732,19.980786,-3,9,-1,-6,62,-1025
1733,19.992335,12,-9,-17,0,59,-1019
1734,20.003879,1,1,-26,-8,64,-1022
1735,20.015436,-29,-1,-35,-3,55,-1013
1736,20.027014,-18,-12,24,-2,66,-1034
1737,20.038539,0,-18,9,2,65,-1019
1738,20.0501,1,-3,6,4,55,-1017
1739,20.061707,0,-3,-33,-6,64,-1026
1740,20.073371,-3,-3,-39,-2,58,-1023
1741,20.085101,-2,16,16,1,59,-1012
1742,20.096769,-12,-5,9,1,68,-1027
1743,20.108433,9,-4,-8,-3,66,-1034
1744,20.120114,3,13,-26,-1,66,-1005
1745,20.131773,-18,2,7,-4,55,-1019
1746,20.143482,-2,5,-9,10,57,-1025
1747,20.15511,10,-4,-29,-1,53,-1017
1748,20.166767,-20,4,-27,-1,58,-1010
1749,20.178308,-33,-6,-41,0,61,-1023
1750,20.189861,-12,12,-51,-13,54,-1022
1751,20.201449,-5,-2,-19,-2,60,-1029
1752,20.212997,3,-4,-2,-1,62,-1014
1753,20.224552,11,-4,2,-1,66,-1027
1754,20.236107,-11,-3,-12,2,59,-1032
1755,20.247668,14,2,-14,-2,55,-1034
1756,20.259251,-13,15,16,3,55,-1032
1757,20.270783,-20,-5,-1,-1,59,-1034
1758,20.282535,24,32,13,-1,61,-1025
1759,20.294253,14,0,-23,-4,55,-1020
1760,20.305951,8,0,-28,8,65,-1023
1761,20.317616,-28,8,-20,-5,62,-1027
1762,20.329271,19,-6,33,-2,58,-1032
1763,20.340912,23,8,-21,2,66,-1008
1764,20.352568,-3,3,-21,3,60,-1020
1765,20.364248,-5,8,-18,3,63,-1034
1766,20.37589,3,-5,-2,1,65,-1013
1767,20.387512,-1,8,15,4,55,-1016
1768,20.399067,-4,-1,-13,0,55,-1027
1769,20.410622,11,-7,9,0,62,-1033
1770,20.422191,16,26,0,-1,61,-1015
1771,20.433739,18,12,-21,-1,70,-1022
1772,20.445287,18,-9,-33,0,70,-1018
1773,20.456842,17,0,-16,8,55,-1012
1774,20.468436,31,6,42,9,63,-1017
1775,20.480002,22,-4,35,0,55,-1018
1776,20.49162,24,-5,22,5,65,-1027
1777,20.503282,1,-1,21,8,61,-1029
1778,20.514979,1,-2,26,-2,54,-1017
1779,20.526658,-2,10,2,-6,64,-1025
1780,20.538344,2,-9,-25,4,57,-1023
1781,20.550006,-9,11,23,0,59,-1024
1782,20.561645,1,-14,-2,-10,65,-1014
1783,20.573295,14,24,-2,-5,59,-1009
1784,20.58499,7,4,-1,-7,61,-1017
1785,20.596627,-26,-27,9,3,60,-1018
1786,20.608195,-17,0,-7,-1,58,-1017
1787,20.619761,-27,8,-46,-6,65,-1020
1788,20.631314,-31,-4,-37,3,62,-1026
1789,20.642914,-26,-6,-34,-6,55,-1021
1790,20.654474,-7,5,-12,-1,61,-1025
1791,20.666057,-5,3,5,0,59,-1033
1792,20.67763,-7,4,11,1,67,-1018
1793,20.689203,12,7,0,-1,55,-1024
1794,20.700843,-6,6,6,0,67,-1026
1795,20.712511,16,-10,-3,9,61,-1013
1796,20.724157,4,29,-13,5,65,-1018
1797,20.735902,-17,-33,12,0,72,-1033
1798,20.747688,14,-3,-33,7,62,-1032
1799,20.759449,4,6,-56,0,60,-1027
1800,20.771118,16,-21,43,2,59,-1023
1801,20.782804,10,1,18,3,65,-1014
1802,20.794611,26,29,20,0,62,-1024
1803,20.806274,-6,5,-25,1,66,-1020
1804,20.817954,7,1,34,6,57,-1029
1805,20.829617,-1,-2,-12,1,60,-1025
1806,20.841267,-12,4,-16,-1,62,-1009
1807,20.85291,1,28,-30,-6,61,-1018
1808,20.864561,-2,22,-11,3,63,-1025
1809,20.876255,-4,10,-2,-1,62,-1008
1810,20.887901,-8,17,7,3,59,-1018
1811,20.899569,-8,21,-5,4,62,-1031
1812,20.911143,-11,1,29,-2,61,-1032
1813,20.922706,10,-15,-47,3,68,-1013
1814,20.934295,6,6,47,0,53,-1023
1815,20.945817,-26,12,-27,0,59,-1023
1816,20.957391,14,12,-30,2,50,-1017
1817,20.968945,-17,-2,-8,4,66,-1022
1818,20.980496,13,-9,11,0,62,-1018
1819,20.992077,0,5,5,-5,57,-1012
1820,21.003739,-5,2,-19,3,60,-1009
1821,21.015397,-2,-37,19,-2,65,-1012
1822,21.0271,-23,3,-9,-1,66,-1022
1823,21.038788,-17,13,6,4,60,-1017
1824,21.050471,-11,21,14,-14,65,-1024
1825,21.062127,15,20,-31,11,59,-1020
1826,21.073805,13,21,-1,2,59,-1009
1827,21.085483,-13,12,-7,-5,71,-1003
1828,21.097136,-11,22,33,1,58,-1014
1829,21.108696,-7,10,17,-2,69,-1021
1830,21.120248,-2,-22,-34,4,62,-1027
1831,21.131816,19,-24,13,-3,54,-1021
1832,21.143362,-5,11,-1,-3,61,-1016
1833,21.154911,-10,11,-13,7,61,-1016
1834,21.16647,5,-9,-19,2,58,-1031
1835,21.178053,-11,-32,-5,-2,58,-1028
1836,21.189607,5,-30,22,-6,53,-1027
1837,21.20119,11,-8,15,-2,54,-1022
1838,21.212828,2,-8,20,-2,53,-1014
1839,21.224526,-11,-7,10,-1,67,-1020
1840,21.236202,-7,2,40,-1,55,-1020
1841,21.247868,-4,-5,-9,-2,58,-1030
1842,21.259587,-12,-3,17,-7,55,-1018
1843,21.271264,-10,-22,18,-6,58,-1027
1844,21.28292,-22,-20,30,4,65,-1008
1845,21.294606,-13,-27,-2,-1,58,-1020
1846,21.306287,14,-27,-17,6,60,-1025
1847,21.317995,5,14,-4,-3,55,-1024
1848,21.329567,-1,9,7,0,56,-1025
1849,21.341114,20,7,19,-1,61,-1027
1850,21.352663,0,46,0,-5,54,-1018
1851,21.364207,-13,-17,-16,-1,65,-1026
1852,21.375791,1,-15,-42,-8,58,-1017
1853,21.387353,-10,10,30,-5,62,-1027
1854,21.398936,3,9,9,4,69,-1025
1855,21.410533,5,15,-1,-1,58,-1029
1856,21.422199,-11,-9,-17,0,61,-1038
1857,21.43387,15,-8,-19,-5,67,-1025
1858,21.445528,-10,-25,24,0,61,-1022
1859,21.457191,-10,-28,-2,-1,63,-1008
1860,21.468854,-21,-34,8,-6,63,-1013
1861,21.480503,-1,-28,48,-3,63,-1013
1862,21.492158,-29,-4,-39,7,74,-1016
1863,21.503813,-18,-9,-43,4,64,-1039
1864,21.515477,-23,-33,-21,-1,57,-1025
1865,21.527126,-4,1,-23,1,67,-1023
1866,21.538805,6,6,10,-1,61,-1038
1867,21.550482,5,-13,31,0,68,-1018
1868,21.562138,12,-5,-22,0,64,-1029
1869,21.573819,5,-7,20,0,57,-1019
1870,21.585499,-11,19,9,-1,60,-1036
1871,21.597145,-4,18,19,2,53,-1019
1872,21.608796,7,11,-6,0,62,-1027
1873,21.620537,0,20,-14,-6,57,-1015
1874,21.632184,4,9,-6,8,62,-1024
1875,21.643741,-18,24,1,-1,54,-1004
1876,21.655284,-12,12,-57,8,55,-1021
1877,21.666841,27,-1,27,-1,63,-1037
1878,21.678412,26,4,-21,6,58,-1033
1879,21.68997,4,-14,-14,5,65,-1027
1880,21.701525,6,-4,32,-1,65,-1024
1881,21.713091,0,3,5,-8,61,-1022
1882,21.724637,7,1,1,-1,62,-1029
1883,21.736363,13,10,-12,-5,60,-1028
1884,21.748035,1,14,-13,-2,64,-1027
1885,21.759721,5,10,2,-3,70,-1010
1886,21.771393,-12,-2,2,-3,57,-1024
1887,21.783083,-5,10,-13,0,61,-1022
1888,21.794754,14,-1,-27,2,59,-1023
1889,21.806415,17,-15,-28,-4,56,-1023
1890,21.818086,12,-9,2,-6,58,-1016
1891,21.829734,8,-20,-10,0,65,-1027
1892,21.841296,29,0,34,6,61,-1029
1893,21.852856,-10,14,9,-3,54,-1020
1894,21.8644,-12,12,-17,-5,60,-1033
1895,21.875951,0,3,-11,7,68,-1014
1896,21.887503,2,28,-3,-1,51,-1018
1897,21.899022,-15,-11,-12,-5,61,-1015
1898,21.910615,-9,-22,5,-2,58,-1028
1899,21.922197,18,-19,9,0,67,-1031
1900,21.933768,-14,23,3,5,68,-1015
1901,21.945431,15,10,-27,0,60,-1031
1902,21.957094,15,12,-31,-1,51,-1015
1903,21.968745,15,8,-11,12,68,-1030
1904,21.980421,19,-9,-41,-4,57,-1014
1905,21.992092,13,-29,-7,6,64,-1015
1906,22.003803,2,33,37,8,57,-1020
1907,22.015467,-31,-1,-33,-3,61,-1010
1908,22.027139,4,-19,-11,6,59,-1024
1909,22.038863,20,-16,-16,-1,62,-1015
1910,22.050597,-8,-43,-20,4,63,-1020
1911,22.06226,-1,-31,-5,2,62,-1018
1912,22.073945,4,-31,15,3,60,-1025
1913,22.085612,13,3,6,2,71,-1037
1914,22.097258,-12,-4,13,-10,66,-1019
1915,22.108936,0,6,17,-4,65,-1024
1916,22.120595,9,8,12,7,54,-1021
1917,22.132241,10,6,-26,-6,60,-1017
1918,22.143998,10,19,-14,0,60,-1023
1919,22.155714,5,-2,5,0,65,-1013
1920,22.167268,-19,-11,21,-4,64,-1022
1921,22.17882,-18,-29,-5,0,63,-1015
1922,22.190433,10,-22,-7,-5,56,-1024
1923,22.202239,4,-16,42,-4,58,-1023
1924,22.213839,-1,0,14,-2,55,-1048
1925,22.225402,10,-8,-1,-8,54,-1025
1926,22.237007,17,35,7,2,62,-1024
1927,22.248636,6,3,8,6,57,-1026
1928,22.260192,5,-6,7,-7,69,-1008
1929,22.271783,-8,6,-22,-1,63,-1028
1930,22.283332,-6,7,24,6,62,-1027
1931,22.29491,-6,0,4,-10,59,-1019
1932,22.306484,-9,23,12,-5,62,-1018
1933,22.318051,6,8,1,4,61,-1028
1934,22.329593,20,0,-8,-3,63,-1027
1935,22.341142,-7,-20,18,4,67,-1028
1936,22.352702,19,-12,2,0,59,-1033
1937,22.364378,23,-10,7,-2,65,-1025
1938,22.376062,-20,-8,22,2,65,-1032
1939,22.387726,-22,-8,-34,0,59,-1033
1940,22.399413,3,-10,-19,5,59,-1005
1941,22.411168,11,-6,7,-1,55,-1025
1942,22.422854,9,-7,30,-1,67,-1021
1943,22.434511,-1,0,8,-2,60,-1018
1944,22.446207,-3,8,-9,4,54,-1023
1945,22.457884,-6,28,-17,2,62,-1018
1946,22.469604,-3,-1,20,6,63,-1026
1947,22.481169,7,-22,-9,-5,62,-1006
1948,22.492727,-11,4,28,0,71,-1023
1949,22.50429,2,13,-1,4,63,-1019
1950,22.51585,-14,12,8,-2,61,-1017
1951,22.527459,0,-11,-7,0,65,-1018
1952,22.539042,3,-3,-42,-3,60,-1024
1953,22.550604,19,0,-15,-2,63,-1019
1954,22.562208,14,-24,13,2,56,-1018
1955,22.573895,25,-12,26,8,61,-1031
1956,22.585561,19,-21,23,5,68,-1032
1957,22.597221,5,-17,47,-7,69,-1023
1958,22.608876,-7,33,-25,-2,60,-1018
1959,22.620555,6,29,12,-11,68,-1013
1960,22.632229,8,29,-16,-7,59,-1038
1961,22.643879,14,-4,-14,-10,56,-1024
1962,22.655522,13,-10,11,-2,67,-1018
1963,22.667194,-6,0,29,0,59,-1027
1964,22.67887,16,6,-12,-8,69,-1019
1965,22.690434,5,10,-11,0,56,-1031
1966,22.701986,-12,16,24,7,66,-1020
1967,22.713543,-9,19,13,-5,67,-1037
1968,22.725088,-29,0,12,-2,55,-1024
1969,22.736649,26,-21,12,-2,68,-1024
1970,22.748215,-4,12,-5,-5,58,-1022
1971,22.759815,0,0,-6,0,65,-1016
1972,22.771379,19,1,9,-2,62,-1030
1973,22.783044,-7,-43,-17,3,65,-1025
1974,22.794736,9,-37,16,3,55,-1018
1975,22.806406,12,-20,21,0,50,-1022
1976,22.818092,-5,5,12,3,66,-1016
1977,22.829736,-13,2,14,2,64,-1033
1978,22.841392,8,5,-15,-3,63,-1033
1979,22.853057,-10,-2,22,0,59,-1018
1980,22.86472,-8,22,-20,-1,64,-1028
1981,22.876393,-4,-18,-9,-7,59,-1020
1982,22.888063,-29,-2,-14,-5,66,-1017
1983,22.899657,4,14,8,3,57,-1010
1984,22.911212,15,-7,26,-1,57,-1022
1985,22.922777,-5,-7,-6,-1,55,-1002
1986,22.934303,-2,-31,16,-1,61,-1024
1987,22.94586,23,3,-11,-4,59,-1022
1988,22.957431,-1,-27,15,-1,59,-1028
1989,22.968994,-9,15,13,-11,64,-1032
1990,22.980589,-8,9,11,-6,64,-1020
1991,22.992256,-6,1,-4,-2,67,-1021
1992,23.003922,9,3,-22,8,61,-1037
1993,23.015574,3,-5,-10,-4,63,-1008
1994,23.027248,21,19,0,-3,60,-1024
1995,23.038914,-21,-11,-29,-8,60,-1019
1996,23.050582,14,6,23,-9,63,-1013
1997,23.062265,4,-6,3,-5,63,-1018
1998,23.073947,-12,-11,-11,-4,55,-1028
1999,23.085638,-30,0,-9,-13,57,-1023
