sample,t_s,gyro_x,gyro_y,gyro_z,accel_x,accel_y,accel_z
0,1.5e-05,1,0,2,-1,-1,-1028
1,0.011257,0,-1,0,-1,3,-1019
2,0.022457,0,0,1,-2,-5,-1027
3,0.033646,0,0,0,-3,-1,-1017
4,0.044839,0,-1,0,0,-1,-1016
5,0.056041,1,0,0,0,-2,-1019
6,0.067233,1,1,0,1,0,-1021
7,0.078416,1,2,0,-1,-1,-1027
8,0.089598,1,1,0,-3,1,-1027
9,0.100779,1,0,0,0,-2,-1018
10,0.111974,1,1,0,-1,-1,-1031
11,0.123121,1,1,0,-1,-2,-1027
12,0.134303,1,1,0,1,-3,-1022
13,0.145487,0,-1,0,-3,1,-1020
14,0.156672,0,-1,1,-2,-1,-1018
15,0.167862,1,0,0,-1,1,-1020
16,0.179056,0,1,0,0,-1,-1023
17,0.190242,1,1,0,1,3,-1026
18,0.201425,1,0,0,0,-1,-1027
19,0.212607,1,0,0,-2,-1,-1022
20,0.223794,1,0,0,-4,-2,-1024
21,0.234939,1,0,0,1,1,-1021
22,0.246158,0,0,0,-1,-1,-1024
23,0.257369,1,0,1,-1,1,-1023
24,0.268556,1,-1,0,1,-4,-1022
25,0.279747,0,-2,0,1,2,-1026
26,0.290937,1,0,0,-4,1,-1022
27,0.302128,0,-1,0,1,3,-1025
28,0.313312,0,-1,0,-1,-1,-1020
29,0.324496,0,-1,0,3,2,-1022
30,0.335672,0,-1,1,-1,-2,-1023
31,0.346856,0,0,1,0,4,-1027
32,0.358046,0,0,1,4,-1,-1024
33,0.369228,0,0,0,1,1,-1021
34,0.380417,0,0,1,0,0,-1022
35,0.391611,0,-2,1,2,-1,-1022
36,0.402794,0,-1,1,-1,-3,-1021
37,0.413978,1,0,0,2,0,-1021
38,0.425161,1,0,1,-3,-3,-1019
39,0.436344,0,0,0,1,2,-1025
40,0.447491,2,1,1,-1,-1,-1026
41,0.458677,1,1,0,3,-1,-1020
42,0.469861,1,0,1,-1,-3,-1022
43,0.481043,2,2,0,0,4,-1020
44,0.492229,1,2,0,-3,1,-1026
45,0.503419,0,1,1,2,4,-1022
46,0.514602,0,1,0,-3,3,-1025
47,0.525787,1,1,0,1,-2,-1020
48,0.53697,1,2,0,-1,-1,-1019
49,0.548157,1,0,0,0,0,-1027
50,0.559305,1,1,0,0,2,-1029
51,0.570486,1,1,1,0,0,-1024
52,0.581668,1,0,0,3,1,-1019
53,0.592872,0,-1,0,1,-3,-1021
54,0.604057,1,2,1,-4,4,-1025
55,0.61524,1,1,0,-2,0,-1023
56,0.626425,0,1,0,2,-2,-1027
57,0.63761,1,0,0,1,-1,-1019
58,0.648792,0,1,-1,-3,4,-1020
59,0.659979,0,0,0,-1,-2,-1021
60,0.671121,1,-1,0,0,-2,-1025
61,0.682305,0,0,0,4,2,-1016
62,0.693487,0,-1,0,0,-3,-1024
63,0.70467,0,-1,1,2,0,-1027
64,0.71586,0,-1,1,0,0,-1017
65,0.727051,0,-1,0,4,1,-1023
66,0.738234,0,-2,0,1,-2,-1026
67,0.749421,0,-1,0,-2,-3,-1019
68,0.760607,1,-1,0,1,2,-1019
69,0.771795,0,-1,0,2,-3,-1024
70,0.782936,0,-1,0,-1,1,-1026
71,0.794118,0,-1,0,0,-1,-1026
72,0.805299,-1,0,0,-2,-2,-1019
73,0.816483,1,1,0,-1,-3,-1026
74,0.827676,2,0,1,-1,-5,-1026
75,0.838861,0,1,1,-2,5,-1026
76,0.85005,1,0,0,3,1,-1028
77,0.861241,0,-1,1,-1,3,-1024
78,0.872428,0,-1,1,0,2,-1024
79,0.883615,0,-2,1,-1,-1,-1024
80,0.894799,0,-1,0,0,7,-1019
81,0.905982,0,0,1,0,-2,-1026
82,0.917163,1,-1,1,2,0,-1024
83,0.928348,1,0,1,4,-2,-1026
84,0.939492,0,0,0,1,1,-1026
85,0.950675,1,0,-1,-2,0,-1026
86,0.961857,0,1,0,3,1,-1025
87,0.973039,1,0,0,3,-2,-1025
88,0.984236,0,0,0,0,1,-1025
89,0.995452,1,0,0,1,-1,-1022
90,1.006672,1,-1,1,-4,2,-1017
91,1.017863,1,0,-1,0,-2,-1015
92,1.02905,1,1,-1,1,-1,-1023
93,1.040243,1,0,0,0,0,-1022
94,1.051432,1,0,0,1,1,-1025
95,1.062618,1,0,1,-4,0,-1025
96,1.073802,1,1,0,-2,0,-1025
97,1.084986,1,3,0,-1,1,-1028
98,1.09617,0,2,0,0,1,-1032
99,1.107355,1,1,0,0,-1,-1021
100,1.118538,1,0,1,1,-2,-1016
101,1.129725,1,1,0,5,-1,-1023
102,1.14091,1,1,-1,0,-1,-1027
103,1.152095,1,1,0,0,-3,-1025
104,1.163284,0,0,0,1,1,-1017
105,1.174468,1,1,-1,-1,-2,-1028
106,1.185655,2,0,-1,-1,-1,-1021
107,1.196849,1,2,-1,-2,1,-1022
108,1.208047,0,0,0,0,-2,-1022
109,1.219236,0,0,1,1,-2,-1022
110,1.230422,0,-2,0,1,-1,-1022
111,1.241605,0,-1,0,-1,2,-1022
112,1.25279,0,0,1,1,1,-1024
113,1.263982,0,0,0,1,-1,-1023
114,1.275167,0,0,1,3,-6,-1016
115,1.286352,0,-2,1,-2,-3,-1028
116,1.297533,0,-1,1,0,-3,-1026
117,1.308719,0,-1,0,2,-2,-1019
118,1.3199,1,0,0,-2,-2,-1017
119,1.331091,0,0,-1,1,1,-1025
120,1.342287,1,-1,0,1,-1,-1025
121,1.353469,1,-1,0,2,0,-1023
122,1.364655,1,0,0,1,-3,-1024
123,1.375855,0,-1,1,0,0,-1025
124,1.387046,0,0,0,1,-3,-1023
125,1.398228,1,0,0,1,1,-1023
126,1.409416,1,1,0,0,-3,-1026
127,1.420598,1,1,0,0,1,-1018
128,1.431789,1,0,1,2,-3,-1021
129,1.442938,1,0,0,0,0,-1019
130,1.45412,0,0,-1,2,3,-1025
131,1.465303,0,0,-1,-2,-3,-1025
132,1.476486,0,-1,-1,2,2,-1020
133,1.487673,1,-1,0,0,-1,-1022
134,1.498862,0,-1,0,0,-1,-1026
135,1.510052,1,-1,-1,-3,-2,-1023
136,1.521232,2,-1,-1,-7,-1,-1025
137,1.532421,0,-1,0,0,-1,-1024
138,1.543611,1,-1,0,4,0,-1026
139,1.554794,1,0,0,1,0,-1029
140,1.565981,1,-2,0,0,2,-1026
141,1.577162,1,0,-1,-2,2,-1028
142,1.588353,1,-1,1,-3,0,-1025
143,1.599541,1,0,0,-2,-3,-1023
144,1.610727,0,0,0,0,-1,-1019
145,1.621911,1,0,1,0,0,-1018
146,1.633098,1,0,0,-5,-1,-1022
147,1.644282,0,0,0,0,1,-1018
148,1.655482,1,1,0,-1,-1,-1027
149,1.666666,1,2,0,-3,-3,-1018
150,1.677855,1,2,0,-1,-1,-1017
151,1.689038,1,1,0,-2,1,-1018
152,1.700224,1,0,0,-2,-1,-1026
153,1.711422,1,1,1,-4,3,-1025
154,1.722604,1,0,0,2,-1,-1023
155,1.733792,1,0,0,0,0,-1023
156,1.744975,1,1,1,-4,-3,-1026
157,1.756165,1,1,1,1,1,-1022
158,1.767353,0,0,0,5,0,-1020
159,1.778542,0,-2,1,-1,-3,-1028
160,1.789724,1,-1,0,-2,1,-1026
161,1.800913,0,0,0,3,-6,-1020
162,1.812097,1,-1,0,1,-4,-1027
163,1.823318,1,0,0,-2,0,-1022
164,1.834517,0,-2,1,0,0,-1027
165,1.845704,0,-1,0,-3,2,-1024
166,1.856871,1,-1,0,1,-4,-1030
167,1.86806,1,0,0,0,1,-1023
168,1.879248,0,1,0,0,1,-1023
169,1.890456,1,0,1,0,-4,-1021
170,1.901649,2,1,0,-1,2,-1020
171,1.912843,1,1,0,-1,-1,-1021
172,1.924051,1,-1,0,3,-2,-1022
173,1.935258,0,1,0,-2,0,-1025
174,1.946501,1,-1,0,-1,2,-1023
175,1.957694,1,0,0,0,-2,-1015
176,1.96888,1,0,0,-3,-1,-1024
177,1.980066,1,1,-1,1,-2,-1023
178,1.991253,1,2,0,2,-1,-1021
179,2.002437,0,1,1,-1,1,-1024
180,2.013619,0,1,1,-4,3,-1016
181,2.024827,1,0,-1,1,0,-1023
182,2.036074,1,2,0,0,-1,-1015
183,2.047269,1,-1,1,1,0,-1025
184,2.058455,0,-1,2,2,2,-1018
185,2.069647,0,0,0,-1,0,-1022
186,2.080831,0,-1,0,-4,0,-1033
187,2.092016,0,-1,0,1,-6,-1022
188,2.103205,1,0,0,-2,-1,-1025
189,2.114389,0,-1,1,0,-2,-1019
190,2.125576,0,-1,1,-2,0,-1021
191,2.136758,0,-2,0,-1,-1,-1020
192,2.147945,0,-2,1,0,-1,-1026
193,2.159121,0,-1,1,2,3,-1025
194,2.170304,1,0,1,-1,3,-1023
195,2.181488,1,0,1,2,2,-1025
196,2.192677,1,1,0,1,0,-1025
197,2.203863,1,1,-1,3,1,-1028
198,2.215055,2,2,0,-2,-6,-1025
199,2.226253,1,0,0,-3,0,-1026
200,2.23751,1,1,0,-1,1,-1021
201,2.248707,1,-2,0,-1,0,-1024
202,2.259865,1,1,0,2,-1,-1020
203,2.271056,1,1,-1,-2,0,-1025
204,2.282243,2,1,0,-3,1,-1022
205,2.293426,1,2,1,-1,0,-1018
206,2.304612,1,2,0,1,-1,-1025
207,2.315799,1,1,0,-1,-3,-1021
208,2.326985,1,1,0,-1,-3,-1022
209,2.338175,1,1,0,0,-1,-1027
210,2.349369,0,-1,0,1,2,-1021
211,2.360558,0,-2,1,1,2,-1026
212,2.37175,0,-1,0,2,-1,-1020
213,2.382937,0,-1,0,2,-4,-1026
214,2.39412,0,0,-1,-2,-2,-1029
215,2.405304,0,-1,1,-1,1,-1023
216,2.416487,1,-1,0,0,1,-1030
217,2.427698,0,-1,1,-3,1,-1019
218,2.438958,0,-1,1,0,-2,-1027
219,2.45017,1,0,0,0,2,-1020
220,2.46137,1,1,0,-3,-2,-1027
221,2.472635,1,0,0,-4,0,-1026
222,2.48391,2,0,1,0,0,-1027
223,2.495126,1,0,-1,-2,2,-1024
224,2.506316,0,-1,1,-2,-2,-1024
225,2.517506,1,-1,0,-3,1,-1027
226,2.528693,0,-2,0,0,2,-1019
227,2.539866,0,-1,1,2,0,-1022
228,2.551057,1,0,0,-3,-4,-1025
229,2.562241,0,0,1,1,3,-1024
230,2.573427,0,-1,1,2,-1,-1023
231,2.584611,1,-1,1,0,2,-1023
232,2.595838,1,-1,1,1,-5,-1027
233,2.607054,1,0,0,-1,-2,-1022
234,2.618239,0,0,0,2,1,-1028
235,2.629426,1,1,0,-1,0,-1024
236,2.640609,1,1,0,-2,-3,-1027
237,2.651799,1,1,0,-3,1,-1019
238,2.662988,0,1,1,3,-1,-1022
239,2.674172,0,0,1,-1,-2,-1021
240,2.685358,1,0,0,0,0,-1024
241,2.696542,1,1,0,-2,2,-1027
242,2.707731,1,0,1,0,0,-1024
243,2.718932,1,0,1,-3,2,-1022
244,2.730122,1,-2,1,0,2,-1030
245,2.741307,0,-2,0,0,-1,-1017
246,2.752493,0,-1,0,-1,1,-1026
247,2.763676,0,0,-1,-2,0,-1019
248,2.774861,0,-2,0,-1,0,-1022
249,2.786057,0,-2,0,-4,1,-1022
250,2.79724,0,-1,0,-1,1,-1021
251,2.808431,0,0,0,1,0,-1025
252,2.81962,1,0,0,-3,2,-1018
253,2.830805,1,1,0,2,2,-1022
254,2.842001,1,1,0,1,2,-1029
255,2.853222,1,1,-1,1,5,-1024
256,2.864427,1,1,0,-2,-4,-1012
257,2.875623,0,0,0,3,-3,-1025
258,2.886806,2,1,0,5,1,-1027
259,2.897992,1,1,-1,2,-1,-1020
260,2.909172,1,0,-1,0,-1,-1025
261,2.920384,0,0,0,2,2,-1028
262,2.931571,0,-2,1,1,1,-1021
263,2.942761,0,-2,0,-3,2,-1026
264,2.953963,0,-2,0,1,-2,-1022
265,2.965147,1,0,1,-3,2,-1022
266,2.976331,1,0,1,2,-4,-1030
267,2.987493,1,1,0,1,5,-1026
268,2.998677,1,1,0,3,1,-1023
269,3.009872,1,1,0,1,3,-1016
270,3.021054,0,1,0,-2,2,-1020
271,3.032245,0,0,0,4,-1,-1017
272,3.043432,0,-1,1,5,2,-1021
273,3.054619,0,0,1,2,-3,-1021
274,3.065804,1,-1,1,2,-2,-1022
275,3.076988,0,0,0,-1,2,-1021
276,3.088176,0,0,0,1,-1,-1020
277,3.099362,0,-1,0,1,0,-1021
278,3.110549,0,0,1,-2,-2,-1014
279,3.121732,0,0,0,-4,-1,-1028
280,3.132919,0,0,0,1,-2,-1018
281,3.144103,1,0,0,2,-2,-1023
282,3.155317,1,1,0,4,2,-1028
283,3.1665,1,1,0,1,1,-1021
284,3.177681,1,0,0,1,1,-1022
285,3.188867,1,0,-1,1,0,-1029
286,3.20006,1,0,-1,3,-1,-1025
287,3.211245,1,1,0,-1,-1,-1017
288,3.222436,1,0,0,2,3,-1019
289,3.23362,1,0,0,0,2,-1024
290,3.244803,1,1,0,0,1,-1029
291,3.255991,1,1,1,-2,2,-1028
292,3.267181,2,2,0,-3,0,-1029
293,3.278367,1,2,1,1,0,-1021
294,3.28955,0,1,0,2,-2,-1019
295,3.300738,1,1,-1,0,-1,-1019
296,3.311937,1,1,0,-1,0,-1019
297,3.323123,0,-1,1,1,2,-1025
298,3.334312,1,0,0,0,-2,-1021
299,3.345494,1,-1,1,1,-5,-1025
300,3.356679,0,0,1,-2,1,-1020
301,3.367898,1,1,-1,0,2,-1026
302,3.379089,1,1,1,-2,-4,-1027
303,3.390289,1,-1,0,3,1,-1016
304,3.401478,1,-2,1,-1,-3,-1023
305,3.412665,1,0,-1,2,2,-1022
306,3.423861,1,2,0,-4,0,-1029
307,3.43505,1,1,0,-4,0,-1025
308,3.446238,1,2,0,1,-2,-1024
309,3.457427,1,0,0,1,1,-1023
310,3.468621,0,0,1,0,-1,-1025
311,3.479808,0,-2,0,1,0,-1016
312,3.490995,1,-1,1,0,0,-1025
313,3.502187,1,-1,0,-3,2,-1023
314,3.51337,1,-1,0,-3,3,-1019
315,3.524556,0,-1,0,2,-2,-1024
316,3.535753,0,-3,0,0,0,-1019
317,3.546936,0,0,0,0,2,-1024
318,3.558131,1,0,1,-1,1,-1026
319,3.569317,1,0,0,-2,0,-1025
320,3.580502,2,1,0,3,0,-1026
321,3.591685,1,0,0,1,0,-1025
322,3.602873,1,0,0,0,-6,-1023
323,3.614061,1,0,0,3,-4,-1026
324,3.625246,1,1,0,1,2,-1021
325,3.636431,1,1,0,-5,1,-1024
326,3.64762,0,1,0,3,4,-1018
327,3.658802,0,0,0,1,0,-1028
328,3.670004,1,0,0,0,0,-1030
329,3.681188,1,1,0,-4,0,-1026
330,3.692371,1,1,0,-2,-2,-1022
331,3.703559,1,1,1,-2,-3,-1019
332,3.714745,1,2,1,0,2,-1022
333,3.725932,1,1,1,0,-3,-1018
334,3.737118,0,1,0,-2,-2,-1025
335,3.748303,0,1,1,0,-1,-1019
336,3.75949,0,1,0,1,1,-1026
337,3.77068,0,0,0,4,-1,-1024
338,3.781864,0,0,0,1,2,-1022
339,3.793053,0,-1,0,1,2,-1025
340,3.804247,0,-1,1,1,-3,-1022
341,3.815435,0,0,0,3,-2,-1016
342,3.826626,1,0,0,1,-2,-1022
343,3.837818,0,-2,-1,1,0,-1025
344,3.849,1,0,0,1,0,-1026
345,3.860196,1,-1,0,4,0,-1024
346,3.871385,1,0,0,1,-1,-1024
347,3.88257,1,0,0,1,1,-1025
348,3.893754,0,0,0,1,4,-1031
349,3.904939,1,1,0,1,-3,-1024
350,3.916122,1,1,1,2,-2,-1023
351,3.927306,1,-1,0,-2,0,-1025
352,3.938492,1,0,0,1,-1,-1021
353,3.949683,1,0,0,0,-1,-1021
354,3.960871,1,1,0,5,-1,-1023
355,3.972073,1,0,0,2,2,-1024
356,3.983639,2,1,0,0,1,-1023
357,3.995314,1,0,0,0,0,-1022
358,4.006985,0,0,0,-2,-1,-1032
359,4.018633,1,0,0,0,0,-1020
360,4.030333,1,0,1,1,1,-1024
361,4.041992,1,0,1,0,-2,-1024
362,4.053662,1,0,0,0,2,-1027
363,4.065326,1,-1,0,0,0,-1028
364,4.076991,1,0,0,-2,-5,-1025
365,4.088696,1,0,0,2,-2,-1023
366,4.100276,0,0,0,1,3,-1029
367,4.111832,0,1,1,-1,0,-1028
368,4.123381,0,0,1,-2,1,-1024
369,4.134926,1,0,0,-1,-1,-1025
370,4.146513,2,0,0,-8,4,-1018
371,4.158061,1,0,0,-1,0,-1024
372,4.169636,1,-1,0,1,0,-1026
373,4.181192,1,0,0,1,-3,-1025
374,4.192826,1,0,0,0,3,-1025
375,4.204509,0,0,0,-1,2,-1028
376,4.216174,1,0,0,-1,3,-1018
377,4.22787,0,1,-1,-2,3,-1024
378,4.239497,1,0,-1,-2,2,-1022
379,4.251151,0,-1,0,-2,-2,-1026
380,4.262821,1,0,-1,-3,2,-1028
381,4.274467,1,0,-1,-1,3,-1023
382,4.286132,1,-1,0,1,0,-1024
383,4.297787,1,1,0,-2,3,-1029
384,4.309394,1,-1,1,1,0,-1034
385,4.320957,0,-1,0,1,1,-1019
386,4.332531,1,0,0,-1,1,-1021
387,4.344084,1,0,0,2,2,-1019
388,4.355699,1,-1,0,2,0,-1017
389,4.367259,1,-1,0,3,2,-1023
390,4.37882,1,0,1,1,3,-1017
391,4.390428,1,-1,1,0,2,-1021
392,4.402116,1,0,1,-4,-1,-1027
393,4.413769,1,0,0,-1,-1,-1022
394,4.425422,1,0,1,1,1,-1031
395,4.437091,1,0,1,2,0,-1020
396,4.448738,1,0,0,-3,-3,-1029
397,4.4604,1,0,0,3,-2,-1025
398,4.472072,0,0,0,4,1,-1027
399,4.483747,1,0,0,1,0,-1020
400,4.495419,0,0,-1,2,-1,-1022
401,4.507121,0,0,0,1,-3,-1025
402,4.518697,1,0,0,-1,-3,-1018
403,4.530274,1,0,0,-3,-2,-1027
404,4.541837,1,0,1,1,3,-1016
405,4.553404,0,0,0,3,1,-1018
406,4.564956,1,0,0,-1,2,-1022
407,4.576519,1,-1,0,1,-2,-1021
408,4.588081,1,0,0,1,-1,-1025
409,4.599667,1,0,0,1,-1,-1024
410,4.611315,0,1,0,1,-3,-1018
411,4.622987,1,-1,0,-4,2,-1024
412,4.634634,1,-1,-1,-2,-1,-1031
413,4.646318,0,0,0,-1,-3,-1022
414,4.657982,0,0,1,3,1,-1028
415,4.669633,1,0,0,3,-1,-1027
416,4.68129,1,-1,0,1,5,-1013
417,4.692973,0,0,-1,0,0,-1022
418,4.704631,1,0,1,5,-5,-1025
419,4.716319,0,0,0,-2,2,-1024
420,4.727908,1,-1,0,4,0,-1027
421,4.739454,1,0,0,-4,0,-1022
422,4.750972,0,-1,-1,-2,2,-1029
423,4.762526,0,0,0,0,-1,-1022
424,4.774102,1,0,0,5,-3,-1027
425,4.785651,0,0,1,0,-2,-1022
426,4.797202,1,0,0,1,-1,-1021
427,4.808787,1,0,0,0,-2,-1025
428,4.820441,1,-1,0,2,1,-1027
429,4.832131,1,0,-1,0,-4,-1025
430,4.84378,1,0,0,-1,-1,-1019
431,4.855482,0,-1,1,0,-1,-1024
432,4.867143,0,-1,0,3,1,-1025
433,4.878826,1,0,0,4,0,-1025
434,4.890482,0,1,0,3,1,-1020
435,4.902129,1,0,1,3,1,-1027
436,4.91381,0,0,0,3,3,-1019
437,4.925483,1,0,-1,0,-1,-1019
438,4.937045,0,0,-1,-6,0,-1027
439,4.948593,0,0,0,-1,-3,-1016
440,4.960164,1,-1,0,4,-4,-1018
441,4.971704,0,0,0,1,-4,-1020
442,4.983282,1,0,0,-3,-3,-1027
443,4.994829,0,-1,0,0,1,-1018
444,5.006401,0,0,1,3,-3,-1029
445,5.017953,0,0,0,2,3,-1021
446,5.029587,1,0,0,-2,0,-1026
447,5.041239,0,0,0,1,1,-1020
448,5.052889,0,1,0,1,2,-1023
449,5.064561,1,0,0,2,0,-1029
450,5.076241,0,1,0,0,-5,-1026
451,5.087914,1,0,0,0,0,-1028
452,5.099677,0,0,-1,-1,-1,-1024
453,5.111389,0,0,0,1,2,-1023
454,5.123103,0,0,1,0,-2,-1020
455,5.134698,0,0,1,0,-3,-1020
456,5.146245,1,0,0,-1,-4,-1021
457,5.157808,1,0,0,0,-3,-1025
458,5.169352,0,0,0,-2,0,-1025
459,5.180897,1,0,0,0,-2,-1019
460,5.192446,1,-1,0,-2,-3,-1018
461,5.204032,1,0,0,0,-2,-1023
462,5.215587,1,-1,0,1,0,-1022
463,5.227172,0,0,0,-1,3,-1022
464,5.238787,1,0,0,-6,-3,-1021
465,5.250457,0,0,-1,-4,-1,-1020
466,5.262112,0,0,0,0,-2,-1021
467,5.273763,1,0,0,-4,3,-1021
468,5.285429,0,0,0,1,-1,-1022
469,5.297094,0,0,0,2,4,-1020
470,5.308739,1,1,1,1,-2,-1029
471,5.320398,0,0,0,3,0,-1032
472,5.332099,0,0,1,1,1,-1022
473,5.34378,1,-1,0,2,-1,-1014
474,5.355353,0,0,1,5,-2,-1027
475,5.366907,0,0,0,-2,-7,-1024
476,5.378454,0,0,1,-4,1,-1023
477,5.39,1,0,0,1,-1,-1020
478,5.401551,0,0,0,-3,2,-1024
479,5.41316,0,0,0,0,-2,-1023
480,5.424733,1,-1,0,-1,-1,-1019
481,5.436318,0,-1,0,0,-1,-1025
482,5.447968,0,0,0,3,-4,-1021
483,5.459635,1,0,0,-2,-3,-1019
484,5.471289,1,0,0,-3,-1,-1029
485,5.482977,1,0,0,0,-2,-1022
486,5.49463,0,0,0,1,-3,-1024
487,5.506339,1,0,1,0,-3,-1022
488,5.518067,1,0,0,1,-1,-1022
489,5.529735,1,1,1,1,0,-1019
490,5.541425,1,-1,0,-1,-4,-1018
491,5.553112,0,1,1,1,-2,-1024
492,5.564669,1,0,0,-1,-2,-1023
493,5.576219,1,0,0,0,-2,-1029
494,5.58779,1,-1,0,-1,-1,-1018
495,5.599342,1,0,-2,-3,-2,-1022
496,5.610917,0,0,-1,2,0,-1016
497,5.622462,1,0,0,-1,0,-1029
498,5.634005,0,0,0,-1,0,-1019
499,5.645571,1,0,1,0,0,-1025
500,5.657221,1,0,1,-2,-3,-1025
501,5.668874,0,-1,-1,-2,3,-1028
502,5.680529,1,-1,0,-2,1,-1024
503,5.692207,1,0,0,2,1,-1017
504,5.703867,0,0,0,1,-5,-1014
505,5.715706,0,-1,1,1,-2,-1021
506,5.727394,0,0,1,0,-3,-1021
507,5.739053,0,0,0,3,-5,-1017
508,5.750739,1,1,0,1,-2,-1019
509,5.762396,1,0,0,3,2,-1025
510,5.774051,1,0,1,-1,-3,-1023
511,5.785705,1,-1,1,0,-2,-1020
512,5.797365,1,0,0,-4,-2,-1024
513,5.80901,0,0,0,-1,-1,-1017
514,5.820709,0,0,1,-3,-1,-1029
515,5.832409,0,1,0,0,-1,-1028
516,5.844089,1,0,0,-1,-2,-1018
517,5.855789,1,0,-1,0,0,-1024
518,5.867474,1,0,1,2,-4,-1016
519,5.879156,0,0,1,0,-4,-1025
520,5.890832,1,0,0,1,5,-1020
521,5.9025,0,0,0,3,1,-1018
522,5.914153,0,0,0,0,0,-1021
523,5.925821,1,1,0,0,-3,-1022
524,5.93749,1,0,0,-2,-1,-1027
525,5.949136,1,0,0,2,0,-1021
526,5.960805,0,0,0,0,-1,-1028
527,5.9725,0,-1,1,1,-1,-1026
528,5.984067,1,-1,0,1,1,-1022
529,5.995622,1,0,0,-1,0,-1025
530,6.007207,1,0,0,1,-5,-1022
531,6.018779,1,-1,0,0,2,-1027
532,6.030339,0,0,0,0,-6,-1020
533,6.041931,1,-1,0,-1,-1,-1025
534,6.053495,1,-1,0,1,1,-1021
535,6.065063,1,-1,0,-1,-6,-1028
536,6.076697,1,0,0,-2,-1,-1026
537,6.088351,1,-1,-1,-4,-3,-1025
538,6.10002,1,-1,0,-3,-4,-1024
539,6.111679,1,-1,1,0,-1,-1021
540,6.123374,0,0,1,0,2,-1022
541,6.135049,0,0,0,2,-2,-1026
542,6.146711,1,-1,1,4,-2,-1025
543,6.158368,1,-1,1,0,-1,-1027
544,6.17004,0,0,0,-1,-3,-1022
545,6.181724,0,0,0,1,-2,-1023
546,6.193302,0,-1,0,-1,-2,-1022
547,6.204884,1,-1,0,-4,1,-1026
548,6.216434,1,0,1,0,0,-1024
549,6.227983,0,0,1,1,0,-1021
550,6.239531,1,0,0,-2,-1,-1026
551,6.251125,1,0,0,-1,-1,-1019
552,6.262669,1,0,2,2,-1,-1023
553,6.274241,1,0,0,-3,-1,-1022
554,6.285867,1,0,0,0,-2,-1028
555,6.297524,1,0,0,3,-3,-1019
556,6.309214,0,0,1,1,2,-1023
557,6.320877,1,0,0,1,3,-1024
558,6.332526,1,-1,0,1,-3,-1023
559,6.344194,1,0,0,1,-1,-1023
560,6.355886,0,0,0,-2,1,-1014
561,6.367561,0,-1,0,1,-3,-1021
562,6.379255,0,0,0,-2,-5,-1024
563,6.390914,0,0,0,-3,1,-1024
564,6.402477,1,0,0,2,3,-1022
565,6.414048,0,0,1,-3,1,-1028
566,6.425623,1,0,0,1,-3,-1028
567,6.437179,1,0,-1,-2,0,-1017
568,6.448737,1,0,1,-1,-1,-1020
569,6.460315,0,0,1,-2,0,-1024
570,6.471903,0,0,0,0,-1,-1019
571,6.483468,1,0,0,-2,-1,-1025
572,6.495132,1,0,0,1,-1,-1020
573,6.506794,1,0,1,0,-3,-1028
574,6.518469,1,0,0,-4,0,-1022
575,6.530119,0,0,0,-1,-3,-1022
576,6.541773,1,0,1,-1,-4,-1024
577,6.553447,0,0,1,1,-1,-1022
578,6.565107,1,-1,1,0,-1,-1024
579,6.576755,1,0,0,0,-4,-1021
580,6.58845,1,1,0,-3,0,-1027
581,6.600136,0,0,0,-2,-1,-1027
582,6.611753,0,0,1,0,1,-1024
583,6.623442,0,0,1,-1,3,-1022
584,6.635115,0,-1,1,2,1,-1029
585,6.64676,1,0,1,3,0,-1024
586,6.658409,0,-1,0,0,-6,-1019
587,6.670083,0,-1,1,-2,-4,-1030
588,6.68173,1,0,0,0,-2,-1025
589,6.693453,1,-1,0,1,1,-1024
590,6.705136,0,0,1,-1,-4,-1018
591,6.71671,0,0,1,0,3,-1026
592,6.728285,0,0,0,-1,-2,-1027
593,6.739866,1,0,0,2,-4,-1023
594,6.751454,1,0,0,-5,-2,-1027
595,6.763048,0,0,-1,1,-4,-1023
596,6.774594,1,0,0,2,2,-1029
597,6.786147,1,0,-1,0,-1,-1027
598,6.797743,1,1,1,-2,3,-1026
599,6.809368,1,0,0,2,1,-1023
600,6.821027,1,1,1,1,0,-1024
601,6.832728,1,1,0,-4,2,-1029
602,6.844402,0,0,0,-5,1,-1026
603,6.856084,1,1,0,0,-4,-1023
604,6.867759,0,1,0,3,2,-1026
605,6.879442,1,1,0,-1,-2,-1022
606,6.891128,1,1,0,-1,-2,-1020
607,6.902792,1,-1,1,0,0,-1024
608,6.914461,1,0,0,3,-1,-1023
609,6.926042,0,0,0,-5,0,-1023
610,6.937596,1,0,1,2,1,-1024
611,6.949166,0,-1,0,0,1,-1020
612,6.960707,1,-1,0,-1,-2,-1027
613,6.972251,1,-1,0,2,5,-1020
614,6.98382,1,0,0,1,-2,-1024
615,6.995394,1,-1,0,1,1,-1025
616,7.006962,1,-1,1,-2,-1,-1025
617,7.018624,0,0,0,-1,-2,-1023
618,7.030274,1,-1,0,1,-2,-1025
619,7.041948,1,0,1,0,-4,-1027
620,7.053608,0,0,1,-3,-1,-1024
621,7.065255,0,1,0,2,4,-1025
622,7.076912,0,-1,0,4,-2,-1024
623,7.088561,1,1,0,-2,-3,-1026
624,7.100236,1,0,0,1,0,-1022
625,7.111913,1,-1,1,2,-1,-1036
626,7.123615,1,0,1,-3,0,-1020
627,7.135245,1,0,0,0,-1,-1027
628,7.146897,1,0,-1,-1,-1,-1021
629,7.158567,0,0,0,5,-5,-1023
630,7.170224,1,-1,0,-1,1,-1020
631,7.181869,1,0,0,-2,0,-1027
632,7.193518,0,-1,0,0,-3,-1023
633,7.205184,0,0,1,-1,0,-1023
634,7.216942,1,0,0,-1,-3,-1019
635,7.228623,0,0,-1,-1,3,-1021
636,7.240279,0,0,0,0,1,-1020
637,7.251959,0,0,0,0,-1,-1029
638,7.263629,1,-1,0,-1,-1,-1026
639,7.275297,1,-1,0,1,-2,-1023
640,7.287006,0,-1,0,-2,-1,-1023
641,7.298653,1,0,0,2,0,-1029
642,7.310316,1,-1,0,-5,-2,-1022
643,7.321988,0,0,0,-2,-2,-1020
644,7.333639,1,0,0,2,0,-1023
645,7.345283,1,0,0,-1,-2,-1027
646,7.356934,1,-1,0,0,-1,-1025
647,7.368617,1,0,0,1,-2,-1022
648,7.380268,1,-1,0,3,-1,-1026
649,7.391943,1,0,0,1,2,-1023
650,7.403614,1,0,0,0,0,-1027
651,7.415244,1,-1,0,6,-2,-1021
652,7.426924,0,0,0,-1,1,-1018
653,7.438591,0,-1,0,2,-1,-1021
654,7.450236,1,0,0,0,0,-1031
655,7.461889,1,0,0,-2,0,-1027
656,7.473564,0,-1,0,0,-1,-1022
657,7.485226,1,-1,0,-1,1,-1025
658,7.496881,1,0,0,2,-1,-1027
659,7.508535,1,0,1,2,1,-1024
660,7.520193,1,0,0,1,0,-1029
661,7.53195,1,1,0,-2,-2,-1021
662,7.543643,0,0,0,1,0,-1027
663,7.555233,1,-1,0,4,0,-1019
664,7.566806,0,-1,1,-1,2,-1025
665,7.578355,1,-1,0,2,-3,-1022
666,7.589924,1,0,-1,-3,-3,-1024
667,7.601463,1,0,0,-1,-2,-1024
668,7.613019,1,0,0,2,0,-1022
669,7.624569,0,1,0,-1,1,-1020
670,7.636144,0,0,0,-2,1,-1026
671,7.647755,1,0,1,2,0,-1024
672,7.659424,1,0,1,2,2,-1030
673,7.671109,1,0,0,-2,-1,-1025
674,7.682758,1,0,0,-2,-2,-1023
675,7.694412,0,0,0,-1,-1,-1025
676,7.706077,1,0,0,4,-3,-1027
677,7.717773,1,0,0,-1,-4,-1020
678,7.729533,1,0,0,0,-2,-1022
679,7.741264,1,0,0,-4,3,-1027
680,7.752967,1,0,1,1,-1,-1022
681,7.764554,1,0,0,2,-1,-1024
682,7.776106,0,0,-1,-2,3,-1027
683,7.787703,0,0,0,0,-3,-1027
684,7.799277,0,-1,-1,0,0,-1026
685,7.810827,0,0,0,0,-1,-1017
686,7.822435,1,0,0,0,1,-1022
687,7.833988,1,0,0,5,4,-1019
688,7.845566,1,0,0,-2,-1,-1026
689,7.857195,1,-1,0,-1,1,-1015
690,7.868894,1,-1,0,-1,0,-1022
691,7.880551,1,0,0,-1,1,-1026
692,7.892208,1,-1,0,-1,-2,-1021
693,7.903883,1,-1,1,1,-1,-1021
694,7.915541,0,0,1,-1,0,-1022
695,7.927223,1,0,1,2,-1,-1027
696,7.93888,0,-1,0,-2,3,-1024
697,7.950516,1,0,0,3,-2,-1030
698,7.962074,0,0,1,-1,-1,-1023
699,7.973635,1,0,0,1,-1,-1025
700,7.985187,1,1,0,-2,-1,-1024
701,7.996728,1,0,0,2,-2,-1019
702,8.008308,0,-1,-1,-1,-3,-1021
703,8.019858,1,-1,0,-2,1,-1021
704,8.031429,0,-1,0,2,0,-1029
705,8.042978,1,0,1,0,0,-1023
706,8.054558,1,-1,1,-1,0,-1020
707,8.066246,2,0,0,1,-3,-1021
708,8.077903,1,1,0,-2,2,-1023
709,8.08955,1,0,-1,-3,-1,-1018
710,8.10123,1,0,-1,1,-4,-1019
711,8.112884,1,0,0,1,-3,-1026
712,8.124531,0,0,0,1,1,-1026
713,8.136188,0,0,0,1,-1,-1022
714,8.14784,1,0,1,-3,-2,-1028
715,8.159512,0,0,0,0,-1,-1025
716,8.171194,0,1,0,0,-1,-1023
717,8.182785,0,0,0,2,0,-1022
718,8.194355,1,-1,1,3,2,-1023
719,8.205957,0,0,1,-1,0,-1026
720,8.217536,0,0,0,1,-1,-1026
721,8.229082,0,0,1,3,-3,-1032
722,8.240633,1,0,0,4,0,-1028
723,8.252188,0,-1,0,-1,-1,-1021
724,8.263762,1,0,0,0,-1,-1024
725,8.275395,0,0,0,0,-2,-1024
726,8.28712,1,0,0,-3,-2,-1020
727,8.298777,1,0,0,-4,-1,-1023
728,8.310429,1,0,0,2,-1,-1024
729,8.322103,1,0,0,-4,-2,-1019
730,8.333757,1,0,0,-2,-4,-1024
731,8.345397,1,-1,0,0,-4,-1021
732,8.35705,0,0,1,-2,-2,-1020
733,8.368713,0,0,0,0,-1,-1024
734,8.380377,0,0,0,2,-4,-1021
735,8.391946,0,-1,0,-2,-1,-1020
736,8.403534,1,-1,1,2,0,-1021
737,8.415095,0,0,0,0,-2,-1025
738,8.426673,1,1,0,3,3,-1027
739,8.438217,1,0,0,2,2,-1024
740,8.449759,1,0,0,1,0,-1029
741,8.46131,1,0,0,1,-1,-1024
742,8.472915,1,-1,0,1,0,-1017
743,8.484673,1,0,0,0,1,-1025
744,8.496366,1,-1,1,2,-4,-1026
745,8.508012,1,0,1,-5,-2,-1017
746,8.519671,1,0,0,2,1,-1023
747,8.531371,1,0,0,2,1,-1023
748,8.543036,1,-1,1,0,2,-1022
749,8.554689,1,0,0,-3,-1,-1020
750,8.566361,1,-1,0,5,1,-1029
751,8.578013,1,-1,1,0,-2,-1022
752,8.589567,1,0,0,-1,-3,-1024
753,8.601158,1,1,0,0,-2,-1023
754,8.612709,0,0,0,-2,-4,-1019
755,8.62431,1,-1,-1,0,-4,-1029
756,8.635862,0,0,0,-2,3,-1027
757,8.647436,0,0,0,-1,2,-1024
758,8.658973,1,0,1,1,-1,-1024
759,8.670568,1,0,0,4,-1,-1021
760,8.68219,1,-1,1,0,2,-1018
761,8.693863,1,0,0,2,1,-1021
762,8.705509,0,0,0,-2,-1,-1017
763,8.717159,1,0,0,-2,-2,-1024
764,8.728827,1,-1,0,1,0,-1024
765,8.740501,1,0,0,-1,1,-1027
766,8.752162,0,-1,0,-2,-1,-1020
767,8.763831,1,0,0,-3,-3,-1018
768,8.775545,0,0,0,-2,-3,-1023
769,8.787239,0,0,1,-1,0,-1019
770,8.798815,0,-1,0,-3,-7,-1022
771,8.810357,0,0,0,-2,-5,-1023
772,8.821902,1,0,0,1,-2,-1019
773,8.833452,1,0,0,-2,-3,-1022
774,8.845038,1,0,0,-1,0,-1024
775,8.856592,1,0,0,-7,-4,-1022
776,8.868203,0,1,0,1,-2,-1024
777,8.879782,1,0,1,0,0,-1018
778,8.891402,1,0,0,-1,1,-1020
779,8.903108,1,0,0,1,2,-1029
780,8.914764,1,0,-1,0,0,-1019
781,8.926404,1,0,0,0,0,-1023
782,8.938076,0,-1,0,-3,-2,-1026
783,8.94974,1,0,0,-4,-1,-1027
784,8.961377,1,0,-1,4,-5,-1026
785,8.973025,1,0,0,2,-3,-1027
786,8.98471,0,0,0,-2,-2,-1025
787,8.996367,1,0,1,-3,-2,-1023
788,9.007946,1,-1,0,-1,2,-1014
789,9.019499,0,0,0,-1,-3,-1022
790,9.031081,1,0,1,0,-1,-1028
791,9.04269,0,0,0,-1,2,-1022
792,9.054244,1,0,0,-2,3,-1023
793,9.065809,0,0,0,1,1,-1021
794,9.077352,1,0,0,-2,0,-1025
795,9.088909,0,0,0,0,0,-1028
796,9.100581,1,-1,1,-1,-1,-1022
797,9.112265,1,0,1,-3,-1,-1024
798,9.123971,0,1,1,1,-1,-1025
799,9.135641,1,0,1,-2,-2,-1020
800,9.147301,0,0,0,0,-1,-1020
801,9.158985,0,0,0,-1,-1,-1026
802,9.170637,1,0,0,2,-3,-1024
803,9.182294,2,-1,1,1,-5,-1026
804,9.193945,0,0,0,2,-1,-1020
805,9.205504,1,-1,0,2,4,-1019
806,9.217087,1,0,0,-2,1,-1029
807,9.228637,1,0,1,4,0,-1023
808,9.240189,1,0,1,1,-3,-1025
809,9.251754,0,0,0,-2,1,-1023
810,9.263344,1,0,0,1,-2,-1025
811,9.274967,0,0,0,-5,-2,-1027
812,9.28657,0,1,0,-3,-1,-1020
813,9.298193,0,0,0,-2,0,-1018
814,9.309859,0,0,1,0,-1,-1028
815,9.321508,0,0,0,-5,1,-1025
816,9.33316,1,-2,1,-3,1,-1013
817,9.344829,1,-1,0,-1,3,-1026
818,9.356509,1,0,0,0,-5,-1017
819,9.36817,0,-1,0,-5,1,-1020
820,9.379836,1,0,0,3,1,-1024
821,9.391496,0,1,1,1,-3,-1026
822,9.40305,1,-1,1,1,1,-1025
823,9.414597,1,-1,0,-1,-1,-1021
824,9.426141,1,0,0,-2,-3,-1023
825,9.437694,1,0,0,-1,3,-1022
826,9.449261,0,-1,0,-2,-3,-1021
827,9.460814,1,-1,0,1,-2,-1027
828,9.472372,1,1,0,1,0,-1028
829,9.483964,1,1,0,1,1,-1025
830,9.495547,0,-1,0,-3,3,-1020
831,9.507173,0,1,1,0,-2,-1027
832,9.518862,1,-1,0,-1,0,-1017
833,9.530514,1,0,0,3,0,-1030
834,9.542164,1,0,0,-1,-1,-1020
835,9.553829,1,0,0,-1,1,-1027
836,9.565488,0,-1,1,0,-1,-1025
837,9.577138,1,1,0,4,1,-1027
838,9.588813,0,0,0,0,-3,-1023
839,9.600488,0,-1,0,3,3,-1024
840,9.612072,1,0,0,3,2,-1025
841,9.623631,1,0,1,4,3,-1026
842,9.635207,1,0,0,5,-1,-1028
843,9.646748,1,0,0,1,-6,-1021
844,9.658302,1,0,1,-5,3,-1027
845,9.669852,1,-1,0,3,0,-1024
846,9.681429,1,-2,0,-2,-1,-1027
847,9.692972,1,-1,-1,-3,0,-1019
848,9.704526,1,0,0,-5,-2,-1020
849,9.716152,1,0,0,1,-4,-1024
850,9.727805,1,0,0,0,-1,-1021
851,9.739487,1,-1,0,5,-1,-1022
852,9.75117,0,0,0,-3,5,-1022
853,9.762811,0,0,-1,-1,-6,-1025
854,9.774466,0,0,0,1,2,-1017
855,9.786125,1,-1,0,0,-4,-1019
856,9.797767,1,0,0,0,0,-1025
857,9.809411,0,0,0,-2,-2,-1022
858,9.82101,1,0,-1,-1,0,-1021
859,9.832577,1,0,0,1,-1,-1024
860,9.844155,0,0,0,1,-2,-1026
861,9.855702,1,0,0,2,1,-1020
862,9.867213,0,0,0,1,0,-1024
863,9.878756,1,-1,0,2,-2,-1021
864,9.890312,1,-1,0,-4,-3,-1023
865,9.901852,0,0,1,-1,-1,-1024
866,9.913403,0,-1,0,1,-4,-1026
867,9.925019,1,0,0,-2,-5,-1021
868,9.936669,1,0,0,-1,-1,-1027
869,9.948353,1,0,0,-1,-5,-1025
870,9.960043,1,0,0,1,-1,-1023
871,9.971697,0,0,1,1,4,-1024
872,9.983389,1,0,0,1,0,-1018
873,9.99505,0,0,0,1,-1,-1025
874,10.006701,0,0,1,0,-4,-1020
875,10.018387,1,-1,0,-2,3,-1026
876,10.030052,1,0,1,-1,-3,-1021
877,10.041601,1,0,0,3,-3,-1017
878,10.053152,1,0,0,-1,-3,-1022
879,10.064703,1,0,-1,1,-2,-1022
880,10.076258,1,0,0,-2,-2,-1020
881,10.08784,1,1,0,2,0,-1020
882,10.099453,0,1,0,-1,-4,-1024
883,10.110973,1,0,1,-2,-3,-1026
884,10.122566,1,0,0,0,-1,-1020
885,10.134249,1,0,0,2,-2,-1017
886,10.145893,0,0,0,-4,-4,-1022
887,10.157543,0,0,1,2,1,-1023
888,10.16922,1,-1,1,1,-1,-1023
889,10.180897,1,0,1,-1,0,-1022
890,10.192554,1,0,0,-4,-4,-1024
891,10.204213,1,0,0,-2,0,-1022
892,10.215894,1,0,0,4,-3,-1025
893,10.227573,1,0,1,0,-2,-1018
894,10.239282,1,0,0,2,-1,-1022
895,10.250854,1,0,0,5,-5,-1022
896,10.262457,0,0,0,-6,-1,-1026
897,10.274011,1,0,1,4,-1,-1028
898,10.285571,1,-1,0,1,-1,-1020
899,10.297115,1,0,0,-3,0,-1021
900,10.30866,1,-1,1,-1,4,-1025
901,10.320189,1,0,0,-3,1,-1030
902,10.331774,1,-1,0,1,2,-1025
903,10.343419,0,0,1,-3,-4,-1028
904,10.355112,0,0,0,0,0,-1025
905,10.366771,1,0,1,-2,2,-1032
906,10.37841,1,0,0,1,-4,-1019
907,10.390059,1,0,0,1,1,-1025
908,10.401745,1,0,0,2,-3,-1021
909,10.413401,1,0,1,2,0,-1024
910,10.42506,1,1,0,2,2,-1020
911,10.436725,1,0,0,0,1,-1028
912,10.448377,1,-1,0,1,-2,-1021
913,10.459956,1,0,0,0,2,-1026
914,10.471559,1,1,0,1,-1,-1026
915,10.483134,1,0,0,1,-2,-1025
916,10.494698,1,-1,-1,5,-2,-1019
917,10.50627,1,0,0,-3,3,-1023
918,10.517828,1,0,-1,-2,-3,-1023
919,10.529385,0,0,1,0,-1,-1027
920,10.540945,1,0,0,0,-3,-1022
921,10.552575,1,-1,0,2,-1,-1029
922,10.56427,1,0,1,-2,0,-1025
923,10.575975,1,0,0,-1,-2,-1026
924,10.587643,0,-1,1,0,-3,-1025
925,10.599301,1,1,0,0,1,-1020
926,10.610992,1,-1,0,-1,0,-1024
927,10.622637,0,1,1,1,1,-1025
928,10.634293,1,1,0,0,-3,-1025
929,10.646,0,0,0,-3,-1,-1029
930,10.657656,0,0,1,-3,-2,-1017
931,10.669216,1,0,0,1,-3,-1020
932,10.680809,1,0,0,-3,0,-1022
933,10.692365,1,-1,1,-3,0,-1028
934,10.703969,1,0,0,-3,1,-1025
935,10.715577,0,0,0,2,-3,-1022
936,10.727132,1,0,0,-2,0,-1022
937,10.738704,1,0,0,1,-1,-1023
938,10.750261,1,1,-1,1,0,-1020
939,10.761888,2,0,1,3,-6,-1023
940,10.773533,0,-1,1,-2,0,-1026
941,10.78518,0,0,0,-5,4,-1021
942,10.796873,0,0,0,-1,-1,-1023
943,10.808523,1,0,0,1,0,-1022
944,10.820179,1,0,0,-2,-2,-1028
945,10.831877,1,1,0,0,-2,-1025
946,10.843497,0,1,1,-5,-1,-1025
947,10.855154,0,0,-1,0,-4,-1019
948,10.866706,1,0,0,2,1,-1020
949,10.878246,1,-1,-1,1,5,-1025
950,10.889786,1,-1,0,6,-3,-1019
951,10.901337,1,-1,0,4,-2,-1024
952,10.912891,0,-1,0,-1,0,-1028
953,10.924443,1,0,1,-3,-1,-1023
954,10.935995,0,-1,0,0,-2,-1025
955,10.94758,1,0,0,-1,-6,-1020
956,10.959139,1,-1,0,2,-2,-1020
957,10.97076,1,0,0,-2,-3,-1024
958,10.98241,1,0,0,2,0,-1022
959,10.994075,1,0,1,-3,1,-1021
960,11.005738,1,0,1,-1,3,-1026
961,11.017397,1,-1,1,-3,0,-1025
962,11.029048,1,-1,0,2,0,-1026
963,11.040711,0,0,0,0,-2,-1022
964,11.052391,1,0,0,-2,-2,-1023
965,11.06404,1,0,0,2,0,-1021
966,11.075701,1,-1,1,2,0,-1021
967,11.08727,1,0,2,2,-1,-1028
968,11.098832,1,0,0,-1,-2,-1027
969,11.110371,1,0,0,5,0,-1020
970,11.121928,1,0,0,1,0,-1021
971,11.133478,0,0,1,-4,1,-1020
972,11.145044,0,1,0,0,-1,-1026
973,11.156596,0,1,0,1,0,-1027
974,11.168226,1,-1,0,2,-2,-1023
975,11.179905,1,0,1,-3,3,-1023
976,11.191591,1,0,0,-3,-2,-1023
977,11.203245,1,0,0,0,-3,-1022
978,11.21492,1,0,1,-5,0,-1024
979,11.226571,1,0,0,0,-1,-1026
980,11.238249,1,-1,0,2,-1,-1027
981,11.249895,1,0,0,-4,0,-1025
982,11.261542,0,0,0,-2,1,-1021
983,11.273214,0,0,1,-6,-2,-1025
984,11.284844,1,0,0,-2,0,-1028
985,11.296464,1,-1,0,1,0,-1021
986,11.308023,0,-1,0,0,-4,-1024
987,11.31959,1,0,1,3,-3,-1024
988,11.331147,1,-1,0,-3,2,-1021
989,11.342701,1,-1,0,0,1,-1023
990,11.354253,0,-1,0,1,-3,-1018
991,11.365803,0,0,0,-5,-2,-1022
992,11.377368,0,-1,1,0,-5,-1019
993,11.389058,1,0,1,-2,0,-1031
994,11.400739,1,0,0,2,4,-1022
995,11.412406,1,0,0,-2,1,-1026
996,11.424065,1,1,0,-2,-4,-1015
997,11.435777,0,0,1,3,-1,-1022
998,11.447446,0,0,1,-3,-3,-1022
999,11.45913,0,-1,1,-2,-3,-1034
1000,11.470789,1,0,1,-2,2,-1024
1001,11.482443,1,0,0,-3,-1,-1022
1002,11.494125,1,0,0,0,0,-1021
1003,11.505698,1,0,1,-2,-4,-1028
1004,11.517238,1,0,1,-4,6,-1024
1005,11.528792,0,-1,0,2,-4,-1024
1006,11.540348,1,-1,1,1,-3,-1021
1007,11.55192,1,-1,0,2,-1,-1022
1008,11.563468,0,1,0,1,-2,-1021
1009,11.575033,1,0,0,2,2,-1022
1010,11.586595,0,1,1,0,0,-1020
1011,11.598272,1,0,0,-4,-4,-1012
1012,11.609914,0,0,0,-1,-2,-1018
1013,11.621561,1,1,0,0,-3,-1016
1014,11.633239,1,0,0,2,-2,-1022
1015,11.6449,0,1,1,2,1,-1023
1016,11.656554,1,0,0,-1,0,-1026
1017,11.668252,1,1,-1,-1,2,-1023
1018,11.679903,1,1,0,0,2,-1029
1019,11.691572,1,0,1,-2,0,-1022
1020,11.703273,1,1,0,-3,2,-1025
1021,11.714917,0,0,0,1,0,-1021
1022,11.726579,1,0,0,1,0,-1023
1023,11.738235,1,-1,-1,0,4,-1025
1024,11.749893,1,0,0,1,0,-1025
1025,11.761544,1,0,0,0,1,-1023
1026,11.773189,1,0,0,-2,1,-1019
1027,11.784876,1,0,0,0,-1,-1028
1028,11.796601,1,0,0,0,-3,-1027
1029,11.808293,0,1,0,0,-1,-1025
1030,11.819862,0,0,0,1,0,-1016
1031,11.831468,1,-1,-1,-2,-1,-1024
1032,11.843025,0,0,0,0,3,-1024
1033,11.854588,1,0,0,0,-1,-1024
1034,11.86613,1,0,0,-1,-4,-1025
1035,11.877677,0,0,0,1,0,-1026
1036,11.889227,1,0,1,-1,-4,-1018
1037,11.900804,1,0,0,3,4,-1021
1038,11.912436,1,-1,0,1,-3,-1019
1039,11.924124,0,0,1,0,0,-1023
1040,11.935761,1,0,0,1,-6,-1017
1041,11.947422,0,0,0,-2,-2,-1026
1042,11.959095,1,0,1,1,-1,-1021
1043,11.970752,1,0,1,-2,0,-1028
1044,11.982408,1,-1,0,1,-2,-1027
1045,11.994056,1,0,0,-2,2,-1022
1046,12.005726,1,-1,0,0,-1,-1022
1047,12.017328,0,0,1,1,3,-1020
1048,12.02888,1,-1,0,-2,-2,-1026
1049,12.040454,1,0,-1,-2,0,-1025
1050,12.052001,0,0,-1,0,-1,-1022
1051,12.063571,0,-1,0,0,-2,-1027
1052,12.075126,0,0,0,2,-2,-1026
1053,12.086678,1,0,1,5,-2,-1017
1054,12.098227,0,0,0,3,0,-1019
1055,12.10982,1,0,0,1,-2,-1022
1056,12.121441,0,-1,-1,1,-1,-1023
1057,12.133123,1,0,1,-1,-1,-1024
1058,12.144776,1,0,0,2,0,-1022
1059,12.156427,1,0,-1,0,4,-1018
1060,12.168103,1,0,-1,-4,1,-1025
1061,12.179785,1,-1,1,0,3,-1023
1062,12.19144,1,0,1,1,3,-1028
1063,12.203134,1,0,1,-1,-3,-1023
1064,12.214794,1,-1,0,-1,-3,-1022
1065,12.226483,0,0,0,-5,0,-1017
1066,12.23805,1,1,1,-3,-5,-1028
1067,12.249601,1,0,0,6,-2,-1021
1068,12.261209,1,0,0,1,-4,-1031
1069,12.272765,0,0,0,-2,1,-1028
1070,12.284344,0,0,0,1,-1,-1025
1071,12.295918,0,-2,0,-1,-1,-1025
1072,12.307458,1,0,0,-2,-2,-1024
1073,12.319029,1,-1,0,2,-1,-1026
1074,12.330674,1,-1,0,1,-2,-1023
1075,12.342366,1,0,1,-1,2,-1029
1076,12.354019,1,0,1,-1,-3,-1022
1077,12.36567,0,0,2,-1,-3,-1019
1078,12.377323,1,0,0,2,3,-1025
1079,12.388978,0,0,0,5,-1,-1024
1080,12.400647,0,-1,0,-1,-4,-1022
1081,12.412286,1,0,0,-2,2,-1028
1082,12.423948,1,0,0,5,-2,-1024
1083,12.435627,0,0,1,2,-2,-1021
1084,12.447299,1,0,0,1,-3,-1023
1085,12.458992,0,0,0,-1,1,-1022
1086,12.47064,0,0,1,-1,-1,-1020
1087,12.4823,1,0,1,-6,2,-1032
1088,12.493959,0,0,0,2,-3,-1029
1089,12.50561,1,0,0,0,-2,-1024
1090,12.517285,1,-1,0,-2,2,-1025
1091,12.528989,0,0,0,0,1,-1029
1092,12.540663,1,0,1,2,1,-1029
1093,12.55221,1,0,1,0,-1,-1021
1094,12.563775,0,0,0,3,2,-1023
1095,12.575339,1,-1,1,-3,-3,-1026
1096,12.586888,1,0,0,-2,3,-1024
1097,12.598443,1,0,0,0,1,-1026
1098,12.60999,0,-1,1,-2,3,-1024
1099,12.621534,1,-1,1,-3,1,-1019
1100,12.633093,0,0,0,0,2,-1026
1101,12.644809,0,0,-1,-2,1,-1023
1102,12.656478,0,-1,0,-4,-1,-1030
1103,12.668152,0,0,0,-1,0,-1020
1104,12.679817,1,0,0,0,-4,-1028
1105,12.691504,1,1,0,-3,-1,-1024
1106,12.703165,0,0,0,-2,-1,-1023
1107,12.714815,1,-1,1,0,0,-1026
1108,12.726465,1,0,-1,-2,1,-1025
1109,12.738131,1,-1,0,0,1,-1025
1110,12.74979,0,-1,0,-5,3,-1023
1111,12.761463,1,-1,0,1,-5,-1026
1112,12.77314,1,0,0,0,-2,-1019
1113,12.784797,1,-1,0,-3,-3,-1023
1114,12.796478,1,0,1,-5,-2,-1024
1115,12.808146,1,-1,1,0,0,-1020
1116,12.819802,1,0,0,1,-2,-1023
1117,12.8315,1,0,0,1,1,-1024
1118,12.843173,0,0,0,-2,3,-1021
1119,12.85484,0,0,0,-1,-2,-1022
1120,12.866397,1,-1,0,0,2,-1024
1121,12.877965,1,-1,1,1,3,-1022
1122,12.889507,1,0,1,0,-1,-1024
1123,12.901061,1,-1,1,0,-3,-1021
1124,12.912608,0,0,0,0,-1,-1029
1125,12.924193,1,0,1,-1,4,-1031
1126,12.935751,1,0,0,1,-1,-1022
1127,12.947358,1,0,0,-1,1,-1026
1128,12.958984,0,1,-1,-5,-1,-1024
1129,12.970653,0,0,-1,-2,-1,-1022
1130,12.9823,1,-1,1,-2,-1,-1026
1131,12.993947,0,0,-1,3,-3,-1024
1132,13.005617,1,0,0,0,-3,-1019
1133,13.017272,0,0,0,1,2,-1026
1134,13.028922,0,-1,1,1,0,-1022
1135,13.040565,1,0,0,2,3,-1023
1136,13.052271,0,0,1,2,-3,-1025
1137,13.063931,0,0,1,-2,-2,-1016
1138,13.075498,1,-1,0,-3,0,-1022
1139,13.08709,1,-1,1,5,0,-1022
1140,13.098659,1,0,0,-1,1,-1023
1141,13.110234,0,0,1,2,0,-1028
1142,13.1218,1,0,0,0,-1,-1018
1143,13.133346,0,0,1,-3,-4,-1024
1144,13.144893,1,0,1,1,0,-1022
1145,13.156454,1,0,1,0,2,-1027
1146,13.168136,0,0,0,2,1,-1026
1147,13.179827,2,-1,0,0,-3,-1026
1148,13.191515,2,0,0,1,4,-1031
1149,13.203166,0,0,0,0,1,-1019
1150,13.214821,0,-1,0,-3,3,-1021
1151,13.22652,1,0,1,0,-1,-1026
1152,13.238165,0,1,1,-2,-5,-1024
1153,13.249817,1,0,0,-3,4,-1024
1154,13.261503,0,0,0,2,-1,-1024
1155,13.273089,1,-1,1,2,4,-1021
1156,13.284636,1,-1,0,0,5,-1026
1157,13.296207,1,0,1,-3,0,-1021
1158,13.307774,1,0,0,2,-1,-1027
1159,13.319341,1,0,0,-1,-2,-1023
1160,13.3309,1,0,1,1,0,-1031
1161,13.342481,1,0,0,3,-1,-1028
1162,13.354043,1,-1,1,-1,-1,-1022
1163,13.365665,1,0,0,-2,1,-1022
1164,13.377326,1,0,-1,0,4,-1027
1165,13.388974,1,0,0,2,-1,-1023
1166,13.400648,1,0,0,-4,1,-1024
1167,13.412282,0,0,0,2,3,-1026
1168,13.423934,0,0,0,-1,2,-1026
1169,13.435627,1,0,0,1,2,-1026
1170,13.447303,1,1,1,-2,-3,-1026
1171,13.458979,0,1,0,-1,0,-1023
1172,13.470653,0,0,0,1,-1,-1021
1173,13.48222,1,0,1,2,-3,-1031
1174,13.493769,1,0,0,0,-1,-1024
1175,13.505325,1,0,-1,0,-4,-1020
1176,13.516876,1,0,1,-3,3,-1021
1177,13.528459,0,-1,0,-1,-3,-1026
1178,13.540008,0,0,0,1,3,-1025
1179,13.551572,1,-1,1,1,1,-1025
1180,13.563139,1,0,0,-2,1,-1027
1181,13.574765,2,0,1,3,-1,-1025
1182,13.58642,0,0,0,0,2,-1021
1183,13.598087,0,0,0,-1,1,-1029
1184,13.609801,1,-1,0,0,-3,-1020
1185,13.621449,1,0,0,-2,1,-1023
1186,13.633093,1,-1,0,2,-3,-1028
1187,13.644753,1,-1,0,2,0,-1026
1188,13.656417,1,-1,0,0,3,-1022
1189,13.668113,0,0,0,-2,-2,-1021
1190,13.6798,1,0,0,-2,5,-1027
1191,13.691354,0,-1,1,-1,-1,-1027
1192,13.702919,0,-1,1,-1,2,-1022
1193,13.714584,0,0,0,0,-3,-1016
1194,13.726151,1,0,0,-3,-4,-1030
1195,13.737725,0,0,0,0,1,-1025
1196,13.749298,1,0,0,-3,1,-1024
1197,13.760884,1,0,0,-1,-2,-1023
1198,13.772483,1,0,1,-2,-1,-1025
1199,13.784174,0,0,1,2,1,-1024
1200,13.79583,1,0,0,4,1,-1019
1201,13.807516,1,-1,0,-3,-3,-1022
1202,13.819173,0,0,0,0,0,-1018
1203,13.830825,1,-1,0,0,1,-1018
1204,13.84248,1,0,0,-1,-1,-1022
1205,13.854152,1,-1,-1,-3,-5,-1015
1206,13.865799,1,-1,0,0,0,-1024
1207,13.877461,1,0,0,-2,0,-1021
1208,13.889135,1,-1,1,1,0,-1023
1209,13.900721,0,0,0,2,0,-1025
1210,13.912294,1,0,0,-2,2,-1024
1211,13.923849,0,0,1,-4,3,-1029
1212,13.935396,0,0,1,1,3,-1026
1213,13.946962,1,0,1,0,-2,-1025
1214,13.95851,0,0,0,0,-3,-1025
1215,13.970084,0,0,1,-2,2,-1018
1216,13.98164,0,0,0,3,0,-1021
1217,13.993279,1,0,0,-2,0,-1019
1218,14.004929,1,-1,0,0,0,-1024
1219,14.016582,1,-1,0,0,1,-1022
1220,14.028318,0,0,0,-3,-1,-1021
1221,14.040017,1,0,0,-1,-2,-1028
1222,14.051672,0,0,-1,-1,5,-1025
1223,14.063352,0,-1,0,-1,1,-1026
1224,14.075052,1,0,0,1,2,-1023
1225,14.086717,1,-1,0,0,-1,-1025
1226,14.098398,0,-1,0,3,1,-1031
1227,14.109977,0,0,1,-3,-4,-1019
1228,14.121521,1,-1,1,-2,-3,-1026
1229,14.133076,0,-1,0,0,0,-1024
1230,14.144625,1,0,0,0,2,-1030
1231,14.156178,1,0,0,-2,-1,-1023
1232,14.167718,0,0,0,1,1,-1029
1233,14.17927,0,0,0,-2,-1,-1022
1234,14.190857,0,-1,0,-4,-1,-1026
1235,14.202508,1,0,0,2,0,-1028
1236,14.214169,0,0,0,2,-1,-1024
1237,14.225816,0,0,0,-2,-2,-1023
1238,14.237467,1,0,0,1,0,-1020
1239,14.249144,1,0,1,1,-4,-1022
1240,14.260791,1,0,1,-1,-1,-1023
1241,14.272445,0,0,0,1,3,-1030
1242,14.284143,1,0,0,-2,-4,-1026
1243,14.295809,1,0,1,-5,0,-1026
1244,14.30748,0,0,1,3,0,-1022
1245,14.319056,1,0,0,1,0,-1019
1246,14.330608,0,-1,0,2,-3,-1022
1247,14.342155,0,0,0,2,-4,-1027
1248,14.353705,1,1,0,0,0,-1020
1249,14.365258,0,0,1,0,-3,-1022
1250,14.376828,1,-1,1,2,0,-1020
1251,14.38843,1,0,0,0,0,-1023
1252,14.400037,1,0,1,-1,1,-1027
1253,14.411672,1,-1,0,1,3,-1025
1254,14.423373,1,0,1,-2,3,-1014
1255,14.435037,0,0,1,0,-5,-1024
1256,14.446694,0,0,0,-2,0,-1028
1257,14.458363,1,0,0,-5,-2,-1020
1258,14.470064,1,-1,1,1,-4,-1022
1259,14.481851,1,0,1,-1,3,-1022
1260,14.493527,1,-1,0,2,-3,-1023
1261,14.505184,1,0,0,0,1,-1024
1262,14.51675,1,0,0,2,-1,-1019
1263,14.528353,1,-1,0,-3,2,-1028
1264,14.539942,0,0,0,-1,-2,-1022
1265,14.551504,0,0,1,0,-2,-1027
1266,14.563105,1,-1,0,-2,0,-1028
1267,14.574654,1,0,1,1,1,-1022
1268,14.586213,0,0,0,0,-2,-1026
1269,14.597774,0,0,0,3,0,-1029
1270,14.609342,1,-1,1,0,-1,-1028
1271,14.621027,0,0,0,-2,-1,-1022
1272,14.632824,0,0,0,0,1,-1022
1273,14.644524,1,0,0,0,1,-1029
1274,14.656182,1,0,0,1,0,-1032
1275,14.6679,0,0,0,0,1,-1022
1276,14.67956,0,1,0,-4,-1,-1022
1277,14.691247,1,0,0,2,0,-1017
1278,14.702907,0,-1,0,-1,-1,-1023
1279,14.714573,2,0,1,8,2,-1025
1280,14.726268,0,-1,0,-1,4,-1028
1281,14.73785,0,0,1,2,-1,-1024
1282,14.749396,0,0,1,-2,0,-1026
1283,14.760945,0,-1,0,0,-2,-1016
1284,14.772516,0,-1,0,0,1,-1022
1285,14.784099,0,-1,0,3,-3,-1025
1286,14.795701,0,0,0,-6,0,-1024
1287,14.807258,1,0,0,0,-1,-1027
1288,14.818844,0,0,0,-4,-4,-1028
1289,14.830488,1,0,1,4,1,-1020
1290,14.842151,1,0,0,0,-3,-1024
1291,14.853801,0,0,0,5,2,-1025
1292,14.865439,0,1,0,3,2,-1026
1293,14.877087,0,-1,-1,0,-1,-1020
1294,14.888776,1,-1,-1,-1,1,-1023
1295,14.900426,1,0,0,0,-1,-1023
1296,14.912084,1,0,0,-3,-1,-1017
1297,14.92378,1,-1,1,-1,-1,-1024
1298,14.935482,0,0,1,1,-2,-1021
1299,14.947039,0,1,0,-4,0,-1030
1300,14.958599,1,0,0,-2,0,-1021
1301,14.970148,1,0,0,2,1,-1017
1302,14.981728,1,0,0,-6,1,-1027
1303,14.993289,1,-1,-1,-1,-5,-1018
1304,15.004888,0,0,0,-1,-1,-1031
1305,15.016476,1,0,0,3,-1,-1022
1306,15.028063,1,0,0,6,-3,-1023
1307,15.039771,1,1,0,0,0,-1022
1308,15.051433,1,0,0,0,1,-1024
1309,15.063114,1,0,0,0,-4,-1026
1310,15.074794,1,-1,0,0,2,-1023
1311,15.086436,1,-1,-1,2,0,-1022
1312,15.098085,0,0,1,0,-1,-1023
1313,15.109759,1,0,0,-4,-2,-1023
1314,15.121419,0,0,0,2,1,-1021
1315,15.133066,1,0,0,-3,-1,-1030
1316,15.14467,1,0,0,0,0,-1019
1317,15.15624,0,0,0,4,-3,-1020
1318,15.167821,1,0,1,-1,0,-1029
1319,15.179374,1,0,0,3,3,-1022
1320,15.190979,0,0,0,-1,0,-1026
1321,15.202534,1,0,0,-2,4,-1027
1322,15.21411,0,-1,0,-1,-1,-1023
1323,15.225663,1,0,0,-2,0,-1017
1324,15.237292,1,0,0,0,0,-1022
1325,15.248938,0,-1,0,1,2,-1024
1326,15.26059,1,-1,0,-2,-4,-1025
1327,15.272292,0,-1,1,1,0,-1018
1328,15.283938,1,0,0,-1,-4,-1020
1329,15.29562,1,0,0,1,2,-1021
1330,15.307317,1,0,0,-1,1,-1023
1331,15.318989,0,0,0,-1,-3,-1025
1332,15.330725,1,1,-1,1,-2,-1022
1333,15.342402,0,0,0,3,1,-1017
1334,15.353961,1,0,0,2,2,-1022
1335,15.365523,1,0,1,1,0,-1025
1336,15.377126,1,0,1,-4,0,-1023
1337,15.388677,1,0,1,-2,2,-1022
1338,15.400239,1,0,0,4,0,-1018
1339,15.411813,1,1,0,-2,-2,-1024
1340,15.423371,0,0,1,-2,-2,-1021
1341,15.434996,0,-1,0,0,1,-1021
1342,15.446695,0,-1,0,-2,2,-1023
1343,15.458356,0,0,1,-1,0,-1028
1344,15.47002,1,0,0,1,-4,-1029
1345,15.481674,1,0,1,3,1,-1023
1346,15.493317,1,0,0,1,4,-1024
1347,15.504963,0,0,0,1,-4,-1022
1348,15.516672,1,0,0,-1,-6,-1023
1349,15.528335,1,0,0,3,-3,-1025
1350,15.540035,1,-1,0,-3,-4,-1027
1351,15.551729,1,-1,1,-2,-2,-1021
1352,15.563294,0,0,0,2,-2,-1022
1353,15.574853,0,0,-1,-1,-2,-1022
1354,15.586417,1,0,0,3,-4,-1023
1355,15.598009,1,-1,1,-2,2,-1023
1356,15.609585,0,0,0,3,-5,-1025
1357,15.62113,1,-1,0,1,-3,-1026
1358,15.632674,1,1,0,0,-1,-1028
1359,15.644268,1,-1,1,-4,-3,-1025
1360,15.656045,1,0,1,-1,0,-1025
1361,15.667755,1,-1,0,1,-4,-1026
1362,15.679435,0,0,0,2,1,-1027
1363,15.691122,1,0,1,-4,1,-1025
1364,15.702781,1,0,1,1,1,-1022
1365,15.714437,1,1,0,1,-4,-1025
1366,15.726094,1,0,0,2,0,-1026
1367,15.737742,0,0,0,-1,-3,-1028
1368,15.749436,0,0,1,-2,0,-1022
1369,15.761104,1,-1,-1,-1,1,-1020
1370,15.772664,0,0,-1,-1,-2,-1014
1371,15.784194,0,1,-1,-2,-5,-1029
1372,15.795745,0,0,0,1,-4,-1020
1373,15.807292,1,1,-1,-2,0,-1023
1374,15.818842,1,0,0,2,0,-1024
1375,15.830393,0,0,0,-3,9,-1023
1376,15.841977,0,0,0,-1,0,-1018
1377,15.85353,0,0,0,-4,2,-1019
1378,15.865165,1,-1,0,-2,-2,-1027
1379,15.876818,1,-1,0,-2,-1,-1027
1380,15.888502,1,-1,0,4,-2,-1022
1381,15.900176,1,-1,-1,2,0,-1022
1382,15.911818,0,-1,0,-1,-1,-1023
1383,15.923492,0,0,0,0,-2,-1023
1384,15.935163,0,0,0,1,-4,-1020
1385,15.94681,0,0,0,-3,2,-1023
1386,15.958471,1,0,0,2,-1,-1024
1387,15.970132,0,-1,1,1,-2,-1021
1388,15.981724,1,0,0,1,-5,-1025
1389,15.993269,1,0,-1,-3,1,-1030
1390,16.004825,0,0,0,2,-2,-1022
1391,16.016399,1,0,0,0,1,-1017
1392,16.027938,1,0,0,0,1,-1023
1393,16.039457,1,0,1,3,3,-1030
1394,16.050973,1,0,0,1,6,-1029
1395,16.062525,1,-1,0,-3,-3,-1020
1396,16.074188,0,0,0,-2,2,-1017
1397,16.085831,0,-1,1,-5,-2,-1023
1398,16.097477,1,-1,0,4,1,-1024
1399,16.109149,1,0,-1,0,-1,-1028
1400,16.1208,1,0,0,-2,-2,-1015
1401,16.132485,0,0,0,-1,2,-1025
1402,16.144171,1,0,0,0,2,-1024
1403,16.155863,1,0,0,-1,0,-1023
1404,16.167567,0,0,1,2,-1,-1026
1405,16.179142,0,-1,1,0,-3,-1022
1406,16.190732,1,0,0,-1,-2,-1021
1407,16.202288,1,-1,0,1,5,-1021
1408,16.213859,1,0,0,2,-1,-1019
1409,16.225396,1,0,0,1,0,-1023
1410,16.236941,1,-1,0,2,-4,-1022
1411,16.248493,1,0,1,-3,-3,-1019
1412,16.260094,1,0,-1,-3,-4,-1020
1413,16.271751,0,0,0,-1,0,-1025
1414,16.283435,0,0,1,-2,-2,-1024
1415,16.295121,1,0,0,0,-1,-1020
1416,16.306785,1,0,0,-1,1,-1017
1417,16.318441,1,0,1,1,3,-1027
1418,16.330099,1,-1,0,-1,-1,-1024
1419,16.341772,0,0,0,3,-1,-1024
1420,16.35343,1,0,1,1,-2,-1021
1421,16.365089,0,0,0,-2,-2,-1027
1422,16.37677,0,-1,0,2,1,-1024
1423,16.388341,1,-1,0,0,2,-1026
1424,16.399913,1,0,0,-1,1,-1022
1425,16.411462,1,0,0,1,-1,-1026
1426,16.423021,1,0,0,-2,2,-1024
1427,16.434601,1,-1,0,-1,-1,-1024
1428,16.446151,1,0,1,-6,3,-1020
1429,16.457731,0,0,1,-2,-1,-1032
1430,16.469281,0,-1,0,-2,2,-1021
1431,16.48092,1,-1,1,1,3,-1017
1432,16.492569,1,0,1,0,-3,-1021
1433,16.50425,1,0,0,2,-3,-1022
1434,16.51593,1,-1,-1,0,1,-1023
1435,16.527576,1,0,0,-1,-2,-1021
1436,16.539244,0,-1,-1,1,-1,-1025
1437,16.550919,0,0,0,0,2,-1024
1438,16.562579,1,0,0,0,-1,-1023
1439,16.574294,0,0,0,0,-1,-1022
1440,16.585867,0,0,0,2,2,-1019
1441,16.597425,0,-1,0,-1,4,-1027
1442,16.608997,1,1,0,-4,-2,-1022
1443,16.620552,1,0,0,-3,0,-1018
1444,16.632178,1,0,0,-2,1,-1021
1445,16.643739,1,0,0,3,1,-1029
1446,16.655289,1,0,0,5,0,-1028
1447,16.666864,0,-1,0,1,2,-1027
1448,16.678457,1,0,0,1,5,-1023
1449,16.690018,0,0,1,1,-3,-1020
1450,16.701563,0,0,1,2,-4,-1030
1451,16.713114,1,0,0,0,-1,-1022
1452,16.724658,1,0,0,-2,0,-1027
1453,16.736181,1,-1,0,-1,1,-1026
1454,16.747697,0,0,1,-2,-1,-1031
1455,16.759217,0,-1,0,-1,0,-1022
1456,16.770766,1,0,-1,-1,1,-1026
1457,16.782418,1,0,0,-1,2,-1020
1458,16.79407,1,0,1,-1,0,-1026
1459,16.805737,1,0,0,0,0,-1030
1460,16.817405,1,0,0,-1,0,-1027
1461,16.829074,0,-2,0,0,0,-1022
1462,16.840725,1,-1,1,1,-1,-1025
1463,16.852411,0,-1,0,-1,0,-1022
1464,16.864071,0,0,0,1,-2,-1023
1465,16.87577,1,-1,0,0,0,-1024
1466,16.887458,1,0,0,0,-2,-1023
1467,16.899131,1,-1,0,-1,1,-1019
1468,16.910805,1,-1,0,5,0,-1024
1469,16.922449,1,0,1,0,-3,-1019
1470,16.934094,0,0,0,4,-1,-1025
1471,16.945764,1,-1,-1,0,1,-1024
1472,16.957418,1,0,0,1,0,-1028
1473,16.969076,0,0,0,0,-2,-1028
1474,16.98079,1,0,0,-3,0,-1028
1475,16.992593,0,-1,0,4,-2,-1027
1476,17.004271,0,0,1,-4,1,-1032
1477,17.01584,1,-1,0,-4,-5,-1021
1478,17.027402,0,0,0,2,0,-1026
1479,17.038979,1,0,0,0,3,-1025
1480,17.050533,0,1,0,0,3,-1023
1481,17.062107,0,0,0,0,0,-1023
1482,17.073649,0,0,0,2,1,-1022
1483,17.085198,1,-1,-1,-2,2,-1020
1484,17.096754,1,0,-1,-1,-4,-1026
1485,17.108428,1,0,0,-1,-3,-1022
1486,17.120159,1,0,0,2,1,-1024
1487,17.131827,1,-1,0,-4,1,-1021
1488,17.143518,1,0,0,1,3,-1021
1489,17.155218,1,-1,0,2,0,-1031
1490,17.166871,1,0,0,3,0,-1026
1491,17.178548,1,-1,1,-3,-3,-1031
1492,17.190193,1,-1,0,-1,1,-1020
1493,17.201863,0,0,0,3,2,-1025
1494,17.213539,0,0,1,2,0,-1025
1495,17.225124,0,-1,1,3,3,-1024
1496,17.236672,1,0,1,1,0,-1023
1497,17.248231,2,0,0,3,0,-1023
1498,17.259812,1,0,0,1,1,-1026
1499,17.271377,1,0,1,1,0,-1021
1500,17.282964,1,0,1,1,1,-1021
1501,17.294523,1,0,0,2,1,-1022
1502,17.306112,1,-1,0,-3,5,-1025
1503,17.317726,1,0,0,1,0,-1021
1504,17.329398,1,0,0,1,-1,-1029
1505,17.34105,0,-1,0,-3,-3,-1021
1506,17.352705,0,1,-1,0,-1,-1020
1507,17.364435,1,0,0,-3,2,-1020
1508,17.376095,0,-1,0,2,-2,-1025
1509,17.387755,1,0,0,2,0,-1020
1510,17.399434,1,0,0,-5,-2,-1026
1511,17.411119,0,0,0,-3,0,-1020
1512,17.422789,1,0,1,0,-2,-1025
1513,17.434366,1,-1,1,-1,2,-1027
1514,17.445934,1,0,0,-6,2,-1029
1515,17.457505,1,1,0,1,-1,-1016
1516,17.469065,1,0,0,0,2,-1022
1517,17.480632,2,0,0,-2,3,-1029
1518,17.492177,1,0,0,-1,0,-1029
1519,17.503695,1,0,0,3,-2,-1031
1520,17.515233,0,0,0,-1,1,-1026
1521,17.526853,0,0,1,0,-2,-1024
1522,17.538511,1,0,0,-2,0,-1017
1523,17.550172,1,0,0,0,-3,-1023
1524,17.561821,0,0,0,-3,-2,-1020
1525,17.573459,0,0,0,-2,1,-1027
1526,17.585135,0,0,0,-1,3,-1021
1527,17.596847,0,-1,0,0,-1,-1029
1528,17.608584,1,0,0,4,-1,-1027
1529,17.620272,0,0,1,-5,1,-1028
1530,17.631871,1,0,0,-1,1,-1020
1531,17.643449,0,0,0,1,1,-1021
1532,17.654972,1,-1,0,1,3,-1024
1533,17.666517,1,0,0,-1,0,-1018
1534,17.67806,1,0,0,-3,-3,-1028
1535,17.689608,0,0,1,0,-1,-1026
1536,17.70116,1,0,0,-1,0,-1019
1537,17.712722,1,0,1,-2,1,-1019
1538,17.72432,1,0,0,2,-2,-1025
1539,17.735975,1,0,0,2,-2,-1021
1540,17.747661,1,0,1,0,1,-1024
1541,17.759311,1,1,0,2,0,-1022
1542,17.77098,0,-1,1,1,2,-1018
1543,17.782654,1,1,0,-6,3,-1026
1544,17.794306,1,0,0,0,0,-1024
1545,17.805956,0,1,0,-2,-1,-1027
1546,17.81762,0,-1,1,1,-2,-1019
1547,17.829287,0,-1,0,3,1,-1019
1548,17.840869,1,0,0,5,0,-1021
1549,17.85242,1,1,1,-2,-1,-1023
1550,17.863939,1,0,0,-2,-1,-1018
1551,17.875458,0,0,0,5,-5,-1024
1552,17.886973,1,0,0,2,-2,-1024
1553,17.898517,1,-1,0,0,0,-1024
1554,17.910094,1,-1,0,-2,-1,-1020
1555,17.921646,1,0,0,-2,-1,-1027
1556,17.933233,1,0,1,0,1,-1024
1557,17.944846,1,0,0,-2,-3,-1021
1558,17.956587,1,1,0,-2,0,-1027
1559,17.968337,1,0,0,1,1,-1025
1560,17.980017,0,-1,0,-3,2,-1025
1561,17.991757,1,-1,0,2,-6,-1027
1562,18.003445,1,0,0,-3,-1,-1015
1563,18.015119,1,0,0,-4,0,-1033
1564,18.026771,1,1,0,1,2,-1025
1565,18.038449,0,0,0,-1,-1,-1020
1566,18.050097,0,0,0,-4,-4,-1023
1567,18.06175,1,-1,0,0,-3,-1020
1568,18.073422,1,1,0,3,-1,-1035
1569,18.085073,1,0,0,-4,-2,-1021
1570,18.096765,2,1,0,0,0,-1015
1571,18.108455,1,0,0,-4,0,-1021
1572,18.120147,1,1,0,-1,-2,-1027
1573,18.131813,0,0,0,1,0,-1025
1574,18.143575,1,0,1,-1,-1,-1024
1575,18.155258,0,0,0,1,0,-1027
1576,18.168876,1,0,0,-1,0,-1029
1577,18.180452,0,0,0,3,-1,-1030
1578,18.192012,1,0,1,0,-2,-1021
1579,18.203581,1,-1,0,1,-1,-1021
1580,18.215154,1,0,0,-5,-1,-1027
1581,18.22671,0,0,0,-2,-1,-1026
1582,18.238263,1,0,0,0,-2,-1025
1583,18.249861,1,-1,0,2,-5,-1027
1584,18.261547,1,0,0,0,0,-1021
1585,18.273212,0,0,1,-1,3,-1029
1586,18.284892,1,0,0,-1,1,-1028
1587,18.296558,0,0,1,1,1,-1017
1588,18.308294,1,0,1,-2,3,-1023
1589,18.319943,1,0,1,0,-3,-1017
1590,18.331618,1,0,0,1,0,-1018
1591,18.343298,0,-1,0,2,-3,-1024
1592,18.354957,1,0,0,2,1,-1023
1593,18.366513,0,0,-1,2,-4,-1022
1594,18.378068,1,0,1,3,-2,-1022
1595,18.389612,1,0,0,2,-1,-1027
1596,18.401167,1,0,-1,-1,4,-1028
1597,18.412761,0,0,0,0,-1,-1020
1598,18.424332,1,-1,0,0,2,-1026
1599,18.435884,1,1,0,2,0,-1021
1600,18.447448,1,0,0,6,0,-1029
1601,18.458994,1,0,0,0,2,-1027
1602,18.470692,0,0,0,0,4,-1020
1603,18.482406,0,0,0,0,-3,-1026
1604,18.494067,1,0,0,2,-2,-1024
1605,18.50573,1,0,1,-1,-3,-1030
1606,18.517381,0,0,1,1,1,-1023
1607,18.529038,1,0,1,-2,-2,-1024
1608,18.540692,1,0,1,1,0,-1025
1609,18.55234,0,0,0,1,-4,-1028
1610,18.564041,0,0,-1,2,-1,-1022
1611,18.575728,1,0,0,-1,-3,-1031
1612,18.587295,0,0,0,2,1,-1021
1613,18.598885,0,-1,1,3,2,-1022
1614,18.610464,0,0,0,-1,1,-1015
1615,18.622031,0,0,1,-1,-3,-1022
1616,18.633601,1,0,0,-4,2,-1026
1617,18.645151,0,1,1,0,1,-1025
1618,18.656753,0,1,1,1,-2,-1032
1619,18.66832,0,0,1,-4,3,-1021
1620,18.679949,1,-1,0,0,-4,-1028
1621,18.691639,1,0,1,0,-1,-1023
1622,18.703311,1,0,0,0,-2,-1024
1623,18.714987,1,0,-1,3,-1,-1029
1624,18.726671,0,0,0,0,3,-1017
1625,18.738336,0,-1,0,-1,5,-1025
1626,18.74998,0,0,0,1,-5,-1020
1627,18.761622,1,-1,1,-2,3,-1016
1628,18.773303,1,0,0,-2,2,-1019
1629,18.784962,0,0,0,-2,5,-1028
1630,18.796529,1,0,-1,0,1,-1019
1631,18.808088,0,0,-1,-3,2,-1025
1632,18.819648,0,0,0,-2,0,-1024
1633,18.831215,1,0,0,-3,1,-1016
1634,18.842761,1,0,-1,1,2,-1027
1635,18.854344,0,0,0,4,0,-1019
1636,18.865894,1,1,0,4,1,-1027
1637,18.877479,1,-1,0,-1,-4,-1029
1638,18.889098,1,0,0,5,-1,-1022
1639,18.900754,0,0,1,-1,0,-1020
1640,18.912435,1,-1,0,-3,0,-1019
1641,18.92408,1,1,1,0,-5,-1022
1642,18.93575,0,0,0,-2,-5,-1021
1643,18.947427,1,0,0,-1,-2,-1019
1644,18.959106,1,0,0,-4,-1,-1027
1645,18.970754,1,0,0,-4,1,-1019
1646,18.982442,1,-1,-1,1,1,-1024
1647,18.994095,1,1,-1,3,0,-1027
1648,19.00565,0,0,0,0,5,-1019
1649,19.017255,0,0,0,-1,0,-1021
1650,19.028807,1,1,0,0,2,-1020
1651,19.040384,1,0,1,-1,-1,-1029
1652,19.051934,0,-1,0,2,-3,-1023
1653,19.063451,1,0,1,1,-4,-1023
1654,19.074971,0,0,0,-6,-2,-1024
1655,19.086551,0,0,1,1,1,-1024
1656,19.098178,0,-1,0,-1,4,-1024
1657,19.109837,1,0,0,-2,1,-1023
1658,19.121489,1,0,-1,4,-5,-1019
1659,19.133163,0,0,1,0,-2,-1026
1660,19.144819,0,0,0,0,3,-1026
1661,19.156482,0,0,0,-2,1,-1020
1662,19.168157,1,-1,0,0,-2,-1023
1663,19.179825,1,-1,0,-1,2,-1022
1664,19.191493,1,0,1,0,-4,-1027
1665,19.20315,1,0,-1,0,0,-1026
1666,19.214705,1,2,0,0,3,-1030
1667,19.226278,0,1,0,3,1,-1019
1668,19.23786,1,0,1,-1,0,-1015
1669,19.249412,1,-1,0,-1,2,-1024
1670,19.26098,1,0,0,-1,-1,-1027
1671,19.272524,1,1,1,-1,2,-1024
1672,19.284083,0,-1,1,-2,2,-1018
1673,19.295633,0,0,0,0,-2,-1020
1674,19.307312,1,0,0,4,-5,-1019
1675,19.318981,1,0,0,1,-3,-1024
1676,19.330655,0,0,2,1,-1,-1019
1677,19.342318,1,0,1,-3,-3,-1027
1678,19.353969,0,-1,0,-4,3,-1024
1679,19.365635,1,-1,0,3,-2,-1022
1680,19.377297,1,-1,0,-1,2,-1020
1681,19.388949,1,0,0,1,-2,-1021
1682,19.400592,0,0,0,3,-4,-1024
1683,19.412174,1,0,1,-3,0,-1017
1684,19.423758,1,0,0,1,-2,-1019
1685,19.435322,0,-1,0,-5,-3,-1023
1686,19.44687,0,0,0,0,0,-1018
1687,19.458414,0,0,-1,-3,-2,-1025
1688,19.469955,0,0,0,-1,0,-1022
1689,19.481497,1,-1,0,-2,0,-1017
1690,19.493055,1,0,1,0,1,-1021
1691,19.504691,1,0,0,-1,6,-1027
1692,19.516345,1,-1,0,-2,1,-1027
1693,19.528032,0,-1,1,2,3,-1022
1694,19.539689,0,0,0,-2,-2,-1022
1695,19.551361,1,-1,0,-4,-1,-1031
1696,19.563028,0,1,0,-3,-3,-1027
1697,19.574707,0,-1,0,-1,-1,-1018
1698,19.586354,0,0,0,1,0,-1020
1699,19.598046,1,0,0,-1,-1,-1025
1700,19.609713,0,0,1,-1,2,-1018
1701,19.621361,1,0,0,-2,2,-1034
1702,19.633007,1,0,1,-1,4,-1028
1703,19.644675,0,0,0,1,3,-1030
1704,19.656329,1,0,0,1,1,-1028
1705,19.668014,1,-1,0,-4,1,-1021
1706,19.679666,1,1,0,2,-4,-1026
1707,19.691327,0,0,0,-3,-1,-1021
1708,19.703015,0,0,0,3,-2,-1028
1709,19.714679,1,0,0,1,-1,-1022
1710,19.726326,1,0,0,-2,-3,-1024
1711,19.737978,0,0,0,-1,-3,-1022
1712,19.749619,0,0,0,-1,-3,-1023
1713,19.761299,0,0,0,-2,-4,-1028
1714,19.772944,0,0,0,-1,0,-1024
1715,19.784594,1,-1,0,-4,0,-1023
1716,19.796311,1,-1,0,1,4,-1027
1717,19.808055,0,0,0,-2,4,-1021
1718,19.819736,1,0,1,-2,1,-1016
1719,19.831292,1,0,1,-2,2,-1029
1720,19.842845,0,0,0,0,-2,-1019
1721,19.854402,1,0,0,1,2,-1031
1722,19.865945,1,0,0,-4,0,-1019
1723,19.877511,0,1,0,0,2,-1015
1724,19.889053,0,0,0,1,-1,-1025
1725,19.900596,1,0,0,3,1,-1021
1726,19.912186,1,1,0,1,1,-1025
1727,19.923822,1,0,0,0,2,-1030
1728,19.935504,0,0,0,2,-2,-1029
1729,19.947157,0,0,1,0,-2,-1022
1730,19.958818,1,0,0,-2,1,-1026
1731,19.970504,1,0,-1,1,-1,-1026
1732,19.982163,1,0,-1,-2,-4,-1026
1733,19.993815,1,0,0,1,-2,-1024
1734,20.005466,1,0,0,1,-4,-1026
1735,20.017133,1,-1,0,-2,-2,-1020
1736,20.028803,1,-1,1,-4,0,-1026
1737,20.040423,1,-1,1,0,-4,-1022
1738,20.052056,0,1,0,-1,0,-1022
1739,20.063648,1,0,1,-7,1,-1022
1740,20.075217,0,0,0,-1,0,-1026
1741,20.086773,0,0,0,4,-1,-1023
1742,20.098314,1,-1,0,1,3,-1022
1743,20.109862,1,0,1,-4,-1,-1024
1744,20.121429,0,1,1,-1,-3,-1020
1745,20.133103,0,-1,0,0,-2,-1019
1746,20.144765,1,0,1,1,-3,-1023
1747,20.156452,1,0,0,-3,2,-1020
1748,20.168142,1,0,-1,0,2,-1025
1749,20.179825,1,0,0,0,-1,-1020
1750,20.191486,1,0,0,2,1,-1016
1751,20.203151,1,0,1,1,-2,-1027
1752,20.214825,0,0,1,-1,6,-1019
1753,20.226482,1,0,0,1,5,-1020
1754,20.238179,0,0,0,-2,0,-1022
1755,20.249774,0,0,0,1,0,-1031
1756,20.261404,1,0,0,-3,3,-1025
1757,20.272962,0,0,0,2,0,-1026
1758,20.284514,1,0,0,2,-3,-1025
1759,20.296072,1,0,0,-1,-3,-1031
1760,20.307625,1,0,0,0,1,-1029
1761,20.319208,1,0,1,4,2,-1015
1762,20.330777,1,0,0,-3,0,-1027
1763,20.342403,0,0,0,-2,1,-1022
1764,20.353967,1,0,0,-1,1,-1022
1765,20.365526,1,0,1,3,2,-1029
1766,20.377074,1,0,0,-2,4,-1022
1767,20.388634,0,0,0,-3,1,-1023
1768,20.400181,0,0,0,-1,1,-1023
1769,20.411697,0,0,1,-2,-6,-1026
1770,20.423216,0,0,1,4,3,-1028
1771,20.434853,1,0,0,-1,-3,-1020
1772,20.446482,1,0,0,-5,-6,-1017
1773,20.458183,0,0,0,-2,2,-1022
1774,20.469869,1,0,0,-1,-4,-1019
1775,20.481736,1,0,-1,3,-1,-1026
1776,20.493522,1,0,1,-1,-1,-1025
1777,20.505208,0,0,0,-3,2,-1021
1778,20.516882,1,-1,0,-3,1,-1032
1779,20.528575,1,0,0,-1,3,-1018
1780,20.540383,1,0,1,-4,3,-1025
1781,20.552092,1,0,0,2,-3,-1028
1782,20.563706,1,0,0,-3,-1,-1015
1783,20.575267,1,0,0,1,-1,-1027
1784,20.586826,1,-1,0,0,1,-1020
1785,20.598398,0,-1,0,0,4,-1025
1786,20.609954,1,-1,1,-2,-1,-1021
1787,20.62152,0,0,1,3,0,-1028
1788,20.633059,0,0,0,-2,0,-1018
1789,20.644622,1,-1,1,4,4,-1030
1790,20.656276,1,-1,0,0,0,-1028
1791,20.668024,1,0,0,-1,2,-1022
1792,20.679753,1,0,0,-1,0,-1024
1793,20.691441,1,0,0,3,1,-1026
1794,20.703113,1,1,0,0,-3,-1019
1795,20.714826,1,0,0,-1,-1,-1024
1796,20.726492,1,0,0,0,-3,-1023
1797,20.73818,0,0,0,-1,-2,-1024
1798,20.749864,1,-1,0,3,0,-1023
1799,20.761584,1,0,1,0,0,-1019
1800,20.773157,0,0,0,0,0,-1025
1801,20.784714,1,-1,0,-2,2,-1025
1802,20.796309,0,0,-1,0,-2,-1024
1803,20.807866,1,0,0,2,0,-1028
1804,20.819445,1,0,0,-1,-6,-1022
1805,20.831033,0,0,1,2,0,-1025
1806,20.842585,1,0,1,1,-1,-1020
1807,20.85417,0,0,0,-2,-1,-1026
1808,20.86574,1,-1,-1,-1,-2,-1020
1809,20.87737,1,1,1,-3,-3,-1021
1810,20.888909,1,-1,1,-1,0,-1021
1811,20.900462,1,-1,1,1,-1,-1019
1812,20.912024,1,1,0,-1,0,-1032
1813,20.923584,0,1,0,-4,1,-1022
1814,20.935145,0,0,-1,-1,-3,-1025
1815,20.946693,0,0,0,-2,2,-1025
1816,20.95829,0,0,0,1,0,-1022
1817,20.969844,0,0,0,-5,0,-1027
1818,20.981402,1,0,0,-2,-2,-1021
1819,20.992969,1,0,1,2,-3,-1022
1820,21.004536,1,0,1,-7,1,-1032
1821,21.016099,1,-1,0,-4,1,-1020
1822,21.027683,1,0,0,-1,5,-1023
1823,21.039288,1,0,0,-1,2,-1024
1824,21.050841,0,0,0,-3,1,-1023
1825,21.062414,1,-1,0,2,-2,-1018
1826,21.074112,0,0,0,1,-2,-1025
1827,21.085893,1,0,0,-1,0,-1024
1828,21.097565,0,0,0,-1,-2,-1028
1829,21.109229,1,1,0,0,0,-1019
1830,21.120897,1,0,0,1,2,-1028
1831,21.132562,1,0,1,-3,1,-1021
1832,21.144251,0,0,0,-3,0,-1022
1833,21.155935,1,-1,-1,-3,-2,-1017
1834,21.167606,1,0,0,1,-1,-1023
1835,21.17919,1,-1,0,-1,1,-1027
1836,21.190772,1,-1,0,2,-1,-1024
1837,21.202323,1,-1,0,-2,0,-1024
1838,21.213897,1,0,1,0,-2,-1025
1839,21.225449,1,0,0,1,-1,-1028
1840,21.237019,1,0,0,2,-1,-1022
1841,21.248561,1,-1,0,1,-1,-1023
1842,21.260108,0,0,-1,-6,-3,-1021
1843,21.271718,0,0,0,-3,0,-1018
1844,21.283499,0,0,0,0,2,-1021
1845,21.295214,1,0,-1,-3,0,-1022
1846,21.306878,0,0,1,1,-2,-1025
1847,21.318533,0,0,0,2,-2,-1020
1848,21.330203,0,0,0,-1,-2,-1026
1849,21.341853,1,0,1,-1,1,-1022
1850,21.353512,1,0,0,-4,-2,-1022
1851,21.365205,0,0,0,-4,3,-1019
1852,21.376943,1,1,0,2,-1,-1022
1853,21.388537,1,-1,0,1,0,-1017
1854,21.400097,1,0,0,-4,3,-1028
1855,21.41166,1,0,1,-2,1,-1027
1856,21.423215,1,0,0,-3,2,-1021
1857,21.434763,1,0,0,0,-1,-1027
1858,21.446346,1,1,0,-1,-1,-1018
1859,21.457905,0,1,0,1,0,-1024
1860,21.469466,1,0,0,-2,2,-1018
1861,21.481092,1,0,1,-3,1,-1025
1862,21.492744,1,0,0,-1,2,-1030
1863,21.504439,0,0,0,1,2,-1020
1864,21.516129,0,0,0,0,2,-1021
1865,21.527819,1,0,0,2,-1,-1018
1866,21.539497,1,0,0,1,2,-1025
1867,21.551179,0,-1,0,1,1,-1022
1868,21.56284,1,0,1,2,-2,-1020
1869,21.574513,1,-1,1,-1,1,-1024
1870,21.586187,1,0,0,0,-1,-1024
1871,21.597773,0,0,1,0,-1,-1021
1872,21.609322,0,0,0,-3,-1,-1018
1873,21.620887,0,0,0,0,2,-1022
1874,21.632442,1,0,0,-3,1,-1024
1875,21.643995,1,0,0,-3,-3,-1022
1876,21.655583,1,0,0,-1,0,-1024
1877,21.667159,1,-1,0,-2,-1,-1025
1878,21.678719,0,0,1,-1,-5,-1023
1879,21.690339,1,0,0,0,5,-1023
1880,21.70199,1,-1,0,2,-3,-1024
1881,21.713631,1,0,0,-1,-1,-1019
1882,21.725279,1,1,0,0,1,-1018
1883,21.736951,0,1,0,-1,0,-1021
1884,21.748599,1,0,0,3,-3,-1027
1885,21.760281,0,0,1,3,1,-1021
1886,21.771964,1,1,0,-2,0,-1025
1887,21.78365,1,0,0,0,2,-1028
1888,21.795349,1,-1,0,-2,3,-1021
1889,21.806918,1,-1,0,0,-2,-1020
1890,21.818501,1,0,1,-3,-2,-1021
1891,21.83005,0,-1,1,-7,-2,-1023
1892,21.841594,0,0,0,-1,1,-1027
1893,21.853147,0,1,0,-3,1,-1029
1894,21.864689,1,-1,0,-4,1,-1024
1895,21.876245,1,0,0,-1,3,-1028
1896,21.88782,1,0,0,0,-1,-1025
1897,21.899498,1,-1,0,1,2,-1022
1898,21.911172,1,-1,0,3,1,-1024
1899,21.922834,1,0,0,0,-3,-1030
1900,21.934483,1,-1,1,2,2,-1024
1901,21.946132,1,-1,1,-1,-1,-1025
1902,21.957796,1,0,1,-1,1,-1022
1903,21.969459,0,0,0,1,-1,-1022
1904,21.98111,1,0,0,0,-1,-1021
1905,21.992775,0,0,0,-2,0,-1020
1906,22.00445,1,0,0,-3,-2,-1017
1907,22.016134,0,1,0,-1,-2,-1025
1908,22.027831,1,0,0,1,0,-1021
1909,22.039492,1,-1,1,-3,-2,-1025
1910,22.05115,1,0,1,-1,3,-1018
1911,22.06284,1,0,1,0,1,-1024
1912,22.074485,0,0,0,2,1,-1025
1913,22.086136,1,0,0,-2,0,-1023
1914,22.097844,1,0,0,-1,-1,-1023
1915,22.109488,0,0,1,0,-3,-1029
1916,22.121137,1,0,0,-4,1,-1020
1917,22.132825,0,0,0,1,2,-1020
1918,22.144503,0,0,0,-1,-2,-1027
1919,22.156178,1,0,0,0,0,-1023
1920,22.167867,1,-1,0,-1,0,-1020
1921,22.179499,1,0,1,0,-1,-1025
1922,22.191178,1,0,1,1,0,-1026
1923,22.202909,1,0,0,1,-4,-1020
1924,22.214584,1,0,0,1,1,-1023
1925,22.226168,0,-1,0,-4,-1,-1027
1926,22.237718,1,-1,0,-1,1,-1019
1927,22.249264,1,0,0,-2,0,-1022
1928,22.260815,0,0,0,2,-1,-1023
1929,22.272397,1,1,0,3,2,-1020
1930,22.283936,1,0,0,3,5,-1023
1931,22.295542,1,0,0,-2,0,-1027
1932,22.307172,1,1,0,2,-2,-1018
1933,22.318874,1,-1,0,-2,-2,-1029
1934,22.330547,0,-1,0,0,3,-1024
1935,22.342213,1,0,0,1,-1,-1023
1936,22.353867,0,0,1,-2,-3,-1021
1937,22.365533,1,0,0,2,1,-1024
1938,22.377199,1,0,0,-3,3,-1018
1939,22.388846,0,-1,0,0,3,-1018
1940,22.400561,0,0,0,1,2,-1027
1941,22.412267,1,0,0,-1,3,-1024
1942,22.423966,1,0,0,0,-2,-1021
1943,22.435539,0,0,0,-3,-5,-1021
1944,22.447107,1,-1,0,2,1,-1022
1945,22.458671,1,0,1,1,-1,-1027
1946,22.470225,0,0,0,0,-5,-1026
1947,22.481791,0,0,0,-2,-3,-1026
1948,22.493346,1,1,0,0,-2,-1029
1949,22.504913,1,0,0,2,0,-1021
1950,22.516506,0,1,0,2,0,-1028
1951,22.528179,1,0,0,-1,-4,-1017
1952,22.539879,1,-1,0,1,-3,-1021
1953,22.55154,1,1,0,0,-2,-1021
1954,22.56326,1,0,0,-2,0,-1024
1955,22.574912,1,-1,1,0,1,-1024
1956,22.586579,1,0,1,0,1,-1020
1957,22.598236,1,0,0,-2,-3,-1025
1958,22.609879,1,0,0,0,1,-1014
1959,22.621542,1,-1,1,0,2,-1028
1960,22.633209,1,0,1,1,0,-1026
1961,22.644791,0,-1,0,-1,-2,-1030
1962,22.656351,0,0,0,-1,1,-1028
1963,22.667929,0,-1,0,-5,-1,-1018
1964,22.679455,0,0,0,-6,-2,-1027
1965,22.690974,1,0,0,1,5,-1023
1966,22.702547,0,0,0,1,3,-1019
1967,22.714102,1,-1,0,-4,2,-1022
1968,22.725672,1,-1,0,0,4,-1023
1969,22.73738,1,-1,1,1,-2,-1025
1970,22.749055,0,0,1,0,3,-1018
1971,22.760707,0,0,0,-2,1,-1028
1972,22.77239,1,0,0,-4,-3,-1021
1973,22.784072,0,0,-1,-1,3,-1030
1974,22.795742,0,-1,0,-2,0,-1026
1975,22.807413,0,1,1,-2,0,-1023
1976,22.819114,1,1,0,0,1,-1023
1977,22.830815,1,0,0,1,3,-1027
1978,22.842505,1,0,0,1,1,-1025
1979,22.854064,1,-1,0,0,-4,-1024
1980,22.865609,1,-1,0,-3,-2,-1027
1981,22.877166,1,0,0,0,-2,-1022
1982,22.888714,1,0,0,1,1,-1021
1983,22.9003,1,0,0,2,-2,-1021
1984,22.911885,1,0,0,3,4,-1027
1985,22.92345,1,1,0,0,-4,-1024
1986,22.935079,0,1,0,-4,2,-1023
1987,22.946712,1,-1,1,2,-2,-1031
1988,22.958365,0,0,0,-4,-3,-1022
1989,22.970012,1,1,1,1,1,-1025
1990,22.981681,0,0,0,-3,2,-1022
1991,22.993341,1,0,0,-1,-3,-1019
1992,23.005018,0,0,0,-1,1,-1023
1993,23.016668,0,0,0,-4,0,-1030
1994,23.028336,1,0,0,3,1,-1023
1995,23.040022,1,0,0,-1,0,-1026
1996,23.051678,1,0,0,-1,-1,-1029
1997,23.063216,0,0,1,0,4,-1019
1998,23.07477,1,0,0,-2,2,-1020
1999,23.086322,0,0,0,-1,2,-1021
