sample,t_s,gyro_x,gyro_y,gyro_z,accel_x,accel_y,accel_z
0,1e-05,2,4,10,23,14,-1040
1,0.011413,1,5,8,23,11,-1035
2,0.022648,0,5,7,26,13,-1036
3,0.033859,1,5,9,27,13,-1038
4,0.045048,2,5,9,23,13,-1029
5,0.056238,1,6,8,24,8,-1034
6,0.067424,3,7,9,21,11,-1037
7,0.078608,2,6,10,25,13,-1035
8,0.089788,2,5,10,25,13,-1028
9,0.100974,1,5,8,23,13,-1033
10,0.112158,1,5,9,16,14,-1044
11,0.123342,1,4,9,25,14,-1041
12,0.134526,1,5,9,26,13,-1030
13,0.145715,1,5,10,24,14,-1034
14,0.1569,1,6,9,27,10,-1036
15,0.168088,2,5,9,22,8,-1035
16,0.17927,1,5,10,23,7,-1033
17,0.190457,2,6,9,25,12,-1039
18,0.201603,1,5,9,23,11,-1041
19,0.212786,2,6,11,19,14,-1038
20,0.223968,1,6,10,25,10,-1038
21,0.235153,3,7,9,23,11,-1034
22,0.246337,2,6,9,25,10,-1030
23,0.257549,2,7,9,21,11,-1034
24,0.268735,2,6,9,28,9,-1036
25,0.27992,2,5,8,23,11,-1038
26,0.29111,1,4,9,22,11,-1044
27,0.302292,1,5,9,29,12,-1037
28,0.313482,2,6,9,25,10,-1041
29,0.324667,2,6,8,25,12,-1042
30,0.33585,2,5,9,26,9,-1043
31,0.347037,3,4,10,23,10,-1039
32,0.358222,1,5,9,22,10,-1041
33,0.369418,1,5,9,26,9,-1034
34,0.380603,2,6,9,22,8,-1040
35,0.3918,2,7,9,23,10,-1033
36,0.403034,2,4,10,19,9,-1035
37,0.414245,1,5,9,29,11,-1036
38,0.425419,1,5,10,25,10,-1036
39,0.436605,3,7,9,23,13,-1038
40,0.447787,2,5,9,25,8,-1029
41,0.458973,1,5,8,26,10,-1039
42,0.470156,2,6,9,19,9,-1040
43,0.481343,1,6,10,24,11,-1037
44,0.49254,1,5,9,27,12,-1042
45,0.503759,1,5,9,27,13,-1033
46,0.514951,2,7,9,22,12,-1040
47,0.526175,2,6,9,19,12,-1032
48,0.537457,1,6,9,24,14,-1034
49,0.548654,2,5,8,23,14,-1037
50,0.559843,1,6,9,24,14,-1043
51,0.571029,1,6,9,23,14,-1035
52,0.582215,2,7,9,25,13,-1037
53,0.593417,1,6,9,28,15,-1037
54,0.604606,1,5,9,25,9,-1036
55,0.615791,1,5,9,25,9,-1038
56,0.626976,2,6,9,22,11,-1039
57,0.638164,2,5,9,23,9,-1038
58,0.649353,0,5,10,23,9,-1031
59,0.660537,1,4,10,26,12,-1031
60,0.671721,1,4,10,27,16,-1041
61,0.682912,1,5,9,21,12,-1034
62,0.694131,2,6,9,26,11,-1044
63,0.705342,2,6,9,24,9,-1041
64,0.716528,2,8,9,22,9,-1035
65,0.727716,2,7,9,25,9,-1037
66,0.738901,1,7,9,21,10,-1035
67,0.750093,1,7,10,25,14,-1039
68,0.76128,2,7,10,21,8,-1032
69,0.772485,1,6,9,26,9,-1039
70,0.783669,2,5,10,22,11,-1034
71,0.794855,2,6,9,24,12,-1039
72,0.806039,2,5,9,26,10,-1037
73,0.81723,2,4,8,25,11,-1032
74,0.828413,1,4,8,25,7,-1027
75,0.839594,2,5,9,23,10,-1036
76,0.850777,2,6,9,25,11,-1038
77,0.861983,1,5,9,26,8,-1034
78,0.873172,2,7,9,22,16,-1037
79,0.884355,2,7,8,24,10,-1041
80,0.895548,2,7,8,25,11,-1036
81,0.906783,2,6,9,23,10,-1038
82,0.917982,2,6,8,26,9,-1038
83,0.929174,2,6,9,24,9,-1030
84,0.940363,2,6,9,24,10,-1037
85,0.951549,2,7,10,23,13,-1033
86,0.962735,3,6,9,25,12,-1033
87,0.97395,2,6,9,25,13,-1037
88,0.985149,1,6,9,20,10,-1033
89,0.996342,1,6,9,26,10,-1038
90,1.007529,1,6,9,25,14,-1036
91,1.01872,1,4,9,25,13,-1034
92,1.029946,1,5,10,25,11,-1030
93,1.041157,1,7,9,26,11,-1036
94,1.052349,2,5,9,27,12,-1039
95,1.063542,1,4,9,20,9,-1035
96,1.074728,1,4,9,27,10,-1036
97,1.085917,1,5,8,25,8,-1033
98,1.097104,2,5,8,21,12,-1036
99,1.10829,2,6,9,27,9,-1037
100,1.119474,1,4,9,23,11,-1042
101,1.13068,2,5,9,22,12,-1033
102,1.141875,1,7,9,25,13,-1037
103,1.153107,2,5,11,23,11,-1036
104,1.164296,1,5,9,25,13,-1035
105,1.175483,2,5,9,20,9,-1037
106,1.186669,2,5,8,25,13,-1038
107,1.197856,2,4,9,18,11,-1037
108,1.209048,2,6,9,21,13,-1034
109,1.220232,3,6,9,24,11,-1040
110,1.231414,2,7,8,24,14,-1035
111,1.242597,1,5,9,24,12,-1042
112,1.253784,1,5,9,24,13,-1040
113,1.264967,2,6,9,23,7,-1036
114,1.276152,2,6,9,27,8,-1037
115,1.28734,2,5,10,28,11,-1032
116,1.298523,2,5,9,21,15,-1040
117,1.309787,2,5,9,24,10,-1038
118,1.321015,2,5,9,22,11,-1038
119,1.332212,3,7,9,23,12,-1035
120,1.343399,2,8,10,21,9,-1036
121,1.35459,2,7,10,25,10,-1039
122,1.365798,1,6,10,23,14,-1034
123,1.376983,2,6,9,23,12,-1046
124,1.388172,2,5,9,25,11,-1033
125,1.399397,1,7,10,24,7,-1036
126,1.41066,1,5,9,25,13,-1039
127,1.421859,2,6,10,25,9,-1035
128,1.433051,2,6,10,24,13,-1031
129,1.444237,1,5,9,23,15,-1038
130,1.455424,1,4,9,26,11,-1036
131,1.46661,1,4,9,27,8,-1031
132,1.477793,2,6,10,29,9,-1035
133,1.489001,2,6,10,23,7,-1042
134,1.50019,2,7,8,25,15,-1037
135,1.511391,2,6,10,24,12,-1040
136,1.522582,1,5,9,22,15,-1038
137,1.533796,2,6,9,24,11,-1035
138,1.544981,2,6,10,20,14,-1040
139,1.556168,1,6,10,25,12,-1031
140,1.567354,1,6,9,22,10,-1039
141,1.57854,2,6,9,27,12,-1040
142,1.58973,2,6,9,22,11,-1035
143,1.600916,1,5,9,27,11,-1035
144,1.6121,1,5,9,24,11,-1034
145,1.623282,2,5,9,24,9,-1034
146,1.63447,2,6,9,25,13,-1033
147,1.64567,2,6,9,22,13,-1040
148,1.656912,2,7,9,24,12,-1040
149,1.668106,1,6,9,24,11,-1034
150,1.679326,1,6,8,28,10,-1034
151,1.690557,3,7,9,21,14,-1029
152,1.70175,2,5,9,24,13,-1034
153,1.712936,2,5,9,28,12,-1043
154,1.724124,2,5,9,21,9,-1035
155,1.73531,2,6,9,21,11,-1042
156,1.746495,2,5,8,27,15,-1034
157,1.757685,2,7,8,24,12,-1039
158,1.768869,2,5,8,20,14,-1040
159,1.780051,2,4,9,26,11,-1035
160,1.791235,2,4,9,21,9,-1033
161,1.802419,2,4,9,24,13,-1038
162,1.813598,1,4,10,25,13,-1031
163,1.824784,1,5,10,26,12,-1039
164,1.835977,1,7,10,26,13,-1041
165,1.847181,1,5,9,23,13,-1035
166,1.858365,2,6,9,26,14,-1043
167,1.869548,2,7,8,29,14,-1033
168,1.88073,1,6,8,25,10,-1038
169,1.891913,2,5,9,25,10,-1033
170,1.903099,1,5,9,22,10,-1043
171,1.914291,1,5,9,22,15,-1036
172,1.925478,2,6,9,21,15,-1039
173,1.936666,1,5,9,25,11,-1038
174,1.947858,2,6,9,26,11,-1035
175,1.959042,2,6,9,22,13,-1039
176,1.970228,2,6,10,22,12,-1034
177,1.981417,2,6,10,22,9,-1038
178,1.992601,2,7,9,19,9,-1041
179,2.003788,2,6,9,24,14,-1037
180,2.014976,1,6,9,28,13,-1040
181,2.026159,3,7,9,22,8,-1040
182,2.037351,2,7,8,25,12,-1036
183,2.048534,2,6,9,25,11,-1039
184,2.059718,2,7,9,25,9,-1040
185,2.070906,2,7,9,22,12,-1038
186,2.082103,2,7,10,24,9,-1039
187,2.093293,2,5,10,21,13,-1037
188,2.104477,1,5,9,21,14,-1038
189,2.115668,2,5,9,25,13,-1038
190,2.126852,1,5,9,23,13,-1033
191,2.138044,1,4,9,24,14,-1037
192,2.14924,0,4,9,25,10,-1038
193,2.160433,2,7,9,24,9,-1039
194,2.171621,2,7,9,24,14,-1033
195,2.182801,2,7,9,23,17,-1034
196,2.193977,1,5,9,24,6,-1038
197,2.205186,2,4,9,23,12,-1039
198,2.216372,2,5,10,25,15,-1038
199,2.227557,2,6,9,28,14,-1037
200,2.23874,2,8,9,28,12,-1037
201,2.249928,1,7,10,25,14,-1042
202,2.261113,2,7,10,25,8,-1035
203,2.272296,2,7,9,23,10,-1045
204,2.283475,2,6,9,24,12,-1043
205,2.294658,2,6,9,28,14,-1037
206,2.305848,2,6,9,20,13,-1032
207,2.317048,2,6,10,26,13,-1035
208,2.32823,2,5,10,20,15,-1032
209,2.339413,1,5,10,20,12,-1035
210,2.350593,2,6,9,24,12,-1040
211,2.361792,2,7,9,22,11,-1037
212,2.372976,2,6,9,25,14,-1038
213,2.38417,2,7,9,26,8,-1045
214,2.395373,2,6,9,22,11,-1038
215,2.406559,2,6,8,24,9,-1038
216,2.417749,1,6,9,20,8,-1037
217,2.428932,2,6,10,23,14,-1034
218,2.440118,2,6,10,22,8,-1038
219,2.451299,2,5,9,24,10,-1037
220,2.462484,2,4,9,25,13,-1036
221,2.473677,2,4,10,24,8,-1036
222,2.48486,1,6,10,24,11,-1041
223,2.496046,2,6,10,22,14,-1038
224,2.507228,2,6,9,21,8,-1036
225,2.518416,2,5,9,24,15,-1033
226,2.529603,1,5,8,23,10,-1033
227,2.540789,2,4,9,26,10,-1040
228,2.551973,1,6,9,26,11,-1043
229,2.56317,2,5,9,21,7,-1039
230,2.574357,2,7,9,22,11,-1037
231,2.585599,2,7,9,19,8,-1040
232,2.596789,2,6,10,24,16,-1033
233,2.607986,1,6,9,26,10,-1041
234,2.619169,1,7,9,21,15,-1034
235,2.630358,2,6,8,24,10,-1032
236,2.641542,1,5,9,23,12,-1039
237,2.652726,2,5,9,23,11,-1034
238,2.66391,2,5,9,26,12,-1042
239,2.675105,2,4,9,24,9,-1037
240,2.68657,1,6,9,22,13,-1038
241,2.698131,1,5,10,22,12,-1041
242,2.709699,1,6,9,23,15,-1037
243,2.721248,2,6,9,24,14,-1031
244,2.732792,2,6,9,25,10,-1038
245,2.744341,2,7,8,25,10,-1037
246,2.755904,2,6,9,24,14,-1035
247,2.767463,2,7,9,27,12,-1034
248,2.779167,2,7,10,21,8,-1040
249,2.790861,1,7,9,25,12,-1041
250,2.802454,1,6,10,24,9,-1041
251,2.814088,1,5,10,24,10,-1037
252,2.825697,2,6,9,23,13,-1040
253,2.837248,2,6,10,26,14,-1036
254,2.848799,1,6,8,25,11,-1032
255,2.860347,2,6,9,21,13,-1035
256,2.871894,2,6,10,23,10,-1039
257,2.883492,2,6,9,21,11,-1040
258,2.895075,1,5,10,23,13,-1030
259,2.906632,1,5,8,22,16,-1037
260,2.918205,2,6,9,22,11,-1032
261,2.929808,1,6,9,23,12,-1034
262,2.941329,1,6,9,26,14,-1032
263,2.952898,1,6,10,24,8,-1032
264,2.964451,2,5,10,22,13,-1033
265,2.975994,1,6,10,23,14,-1035
266,2.987556,2,6,9,18,12,-1041
267,2.999247,2,6,10,24,13,-1040
268,3.010909,2,6,9,27,9,-1037
269,3.022595,2,6,9,23,14,-1038
270,3.034255,2,5,10,23,16,-1033
271,3.045958,2,6,9,25,12,-1037
272,3.057616,2,6,9,24,7,-1033
273,3.069268,2,6,10,24,13,-1034
274,3.080916,2,5,9,23,14,-1029
275,3.092589,3,5,9,25,13,-1032
276,3.104196,2,6,9,25,10,-1037
277,3.115742,2,6,9,26,9,-1039
278,3.127283,2,6,9,23,11,-1039
279,3.138826,2,6,10,23,16,-1034
280,3.15042,2,5,10,22,15,-1033
281,3.16198,1,6,9,26,11,-1040
282,3.173577,2,6,9,22,11,-1027
283,3.185126,1,6,9,23,14,-1035
284,3.196711,2,6,10,25,10,-1039
285,3.20833,2,5,11,19,12,-1041
286,3.219986,2,6,10,23,14,-1031
287,3.231644,2,6,9,23,11,-1035
288,3.243304,2,6,9,22,11,-1039
289,3.25501,1,6,9,24,14,-1039
290,3.266666,2,6,9,22,11,-1030
291,3.278326,2,6,9,22,12,-1033
292,3.290031,2,6,10,27,11,-1039
293,3.301711,1,5,9,21,12,-1038
294,3.313389,2,5,9,25,15,-1035
295,3.32495,2,6,9,28,10,-1041
296,3.336523,2,6,9,24,8,-1038
297,3.348093,1,6,10,22,7,-1038
298,3.35966,2,6,10,22,10,-1040
299,3.371206,2,7,10,20,11,-1037
300,3.382747,2,6,9,20,13,-1039
301,3.394293,2,5,10,28,10,-1029
302,3.405862,2,6,9,22,12,-1035
303,3.417502,2,5,9,22,9,-1036
304,3.429163,1,6,10,25,10,-1041
305,3.440844,2,6,9,22,12,-1036
306,3.452498,2,6,9,22,6,-1038
307,3.464148,2,6,9,25,16,-1041
308,3.475801,2,6,9,24,7,-1036
309,3.487481,1,5,9,27,13,-1037
310,3.499135,2,5,9,21,15,-1033
311,3.510801,2,5,10,22,15,-1042
312,3.522472,1,5,9,25,12,-1036
313,3.534091,1,6,9,25,10,-1039
314,3.545702,2,6,9,26,14,-1042
315,3.557257,2,6,9,24,13,-1038
316,3.568799,2,6,10,22,11,-1037
317,3.580344,2,6,10,22,11,-1034
318,3.591917,1,5,9,24,9,-1037
319,3.603581,1,6,9,26,14,-1032
320,3.615162,1,6,10,26,10,-1037
321,3.62671,2,5,9,24,14,-1032
322,3.638315,2,6,9,26,10,-1041
323,3.649866,2,6,9,18,11,-1039
324,3.661472,1,6,9,22,15,-1031
325,3.67302,2,6,9,25,12,-1034
326,3.684569,2,6,9,23,10,-1034
327,3.696116,1,6,10,23,15,-1036
328,3.707692,2,6,9,21,10,-1040
329,3.719321,2,6,9,24,11,-1031
330,3.730999,2,6,9,22,8,-1037
331,3.742667,2,6,10,29,12,-1034
332,3.754366,2,6,9,24,14,-1040
333,3.766029,2,6,8,24,12,-1039
334,3.777677,2,5,9,25,11,-1038
335,3.789346,1,5,9,24,10,-1033
336,3.801012,2,5,10,22,12,-1033
337,3.81266,2,6,9,26,11,-1034
338,3.82432,2,5,8,24,11,-1042
339,3.835994,2,6,8,25,13,-1037
340,3.847645,2,6,10,20,11,-1042
341,3.859292,2,6,10,23,11,-1041
342,3.870991,1,6,9,23,14,-1037
343,3.882641,2,6,9,21,9,-1042
344,3.894297,1,6,9,23,11,-1037
345,3.905991,1,6,10,25,11,-1037
346,3.917611,2,6,9,26,11,-1042
347,3.929306,2,6,9,22,12,-1039
348,3.94099,2,6,9,22,12,-1035
349,3.952643,2,6,10,25,11,-1032
350,3.964292,2,6,9,20,13,-1035
351,3.97596,2,6,9,22,11,-1038
352,3.987622,1,6,9,28,14,-1038
353,3.999281,1,6,9,26,8,-1033
354,4.010937,2,6,9,25,14,-1040
355,4.022648,2,6,9,24,12,-1041
356,4.034465,1,6,9,24,13,-1036
357,4.04613,1,6,9,21,6,-1032
358,4.057707,2,6,9,21,13,-1040
359,4.069262,1,5,9,25,13,-1036
360,4.08083,2,5,9,25,10,-1039
361,4.092394,2,6,9,23,9,-1030
362,4.103976,1,6,9,27,7,-1040
363,4.11557,2,6,8,23,13,-1035
364,4.127132,2,6,9,25,7,-1039
365,4.138714,1,6,9,23,10,-1035
366,4.150389,2,5,8,26,9,-1035
367,4.162068,2,6,9,27,14,-1034
368,4.173751,2,6,8,26,12,-1032
369,4.18541,2,6,9,25,11,-1037
370,4.197097,2,6,9,25,11,-1034
371,4.208759,2,6,10,25,10,-1038
372,4.220411,2,6,9,21,12,-1034
373,4.232076,2,5,9,24,12,-1034
374,4.24376,2,6,9,25,9,-1043
375,4.25542,2,5,10,26,12,-1030
376,4.266988,2,5,10,25,10,-1038
377,4.278587,2,6,9,23,15,-1034
378,4.290201,2,6,9,23,9,-1033
379,4.301766,2,6,10,20,12,-1039
380,4.313337,2,6,9,26,11,-1034
381,4.324887,1,6,10,20,14,-1030
382,4.336457,2,6,9,24,0,-1034
383,4.34801,1,6,9,27,11,-1035
384,4.359633,2,7,9,26,14,-1041
385,4.371276,1,6,9,23,10,-1039
386,4.382924,2,7,9,21,16,-1035
387,4.3946,2,7,9,25,10,-1032
388,4.406288,3,6,9,21,12,-1034
389,4.41794,1,6,9,20,10,-1035
390,4.429618,1,5,9,23,11,-1040
391,4.441278,1,6,10,24,10,-1038
392,4.452942,2,6,9,22,11,-1037
393,4.464611,1,5,9,22,13,-1039
394,4.476206,1,5,10,24,15,-1033
395,4.487748,2,6,10,25,11,-1036
396,4.499289,2,5,9,21,12,-1039
397,4.510836,2,5,9,27,15,-1034
398,4.522449,2,6,9,25,11,-1041
399,4.534041,1,6,9,22,15,-1038
400,4.545569,1,6,9,24,10,-1042
401,4.557102,2,6,9,25,9,-1044
402,4.568762,2,6,9,24,15,-1037
403,4.580422,2,7,9,27,9,-1034
404,4.592111,1,6,8,20,11,-1037
405,4.603765,2,6,10,25,13,-1034
406,4.615414,2,5,9,22,11,-1033
407,4.627081,2,5,9,25,12,-1028
408,4.638758,2,6,9,27,10,-1037
409,4.650382,1,6,9,24,12,-1036
410,4.662062,2,5,10,26,9,-1035
411,4.673726,2,5,10,26,10,-1039
412,4.685316,2,6,9,20,10,-1036
413,4.696867,2,5,9,20,12,-1035
414,4.708434,2,6,9,24,11,-1041
415,4.719979,1,5,9,23,12,-1040
416,4.73156,1,6,10,18,16,-1041
417,4.743107,2,6,9,22,12,-1039
418,4.754664,2,6,8,22,7,-1032
419,4.766233,1,5,8,25,8,-1044
420,4.777901,1,6,9,22,9,-1037
421,4.789587,1,6,9,20,10,-1039
422,4.801251,2,6,9,25,11,-1035
423,4.812903,2,6,9,25,11,-1040
424,4.824591,1,5,10,25,14,-1039
425,4.836359,2,7,9,24,12,-1036
426,4.848018,2,6,9,26,12,-1034
427,4.859669,2,6,9,26,11,-1039
428,4.871338,2,7,9,26,12,-1032
429,4.883034,1,6,9,22,9,-1033
430,4.894591,1,6,10,21,16,-1037
431,4.906174,2,6,10,23,15,-1032
432,4.917732,2,5,10,25,14,-1036
433,4.929305,2,6,9,24,11,-1032
434,4.940851,2,6,9,22,13,-1032
435,4.952431,2,6,9,24,12,-1035
436,4.963982,1,6,9,21,9,-1035
437,4.975568,1,6,10,25,11,-1041
438,4.987185,1,5,10,25,10,-1036
439,4.998856,2,6,9,26,11,-1035
440,5.010531,1,6,8,24,12,-1038
441,5.02225,2,6,9,21,14,-1030
442,5.033906,2,6,8,22,16,-1033
443,5.045602,2,6,9,23,12,-1035
444,5.057277,1,5,9,27,12,-1035
445,5.068924,2,6,9,27,9,-1032
446,5.080589,1,6,9,20,8,-1036
447,5.092272,1,6,10,26,12,-1037
448,5.103844,1,6,10,21,13,-1033
449,5.115386,2,7,9,24,14,-1037
450,5.126935,2,6,9,22,14,-1035
451,5.138509,2,6,9,23,8,-1036
452,5.150104,1,5,10,23,13,-1037
453,5.161678,2,5,9,25,9,-1037
454,5.173234,2,6,9,22,11,-1033
455,5.18479,2,5,9,27,8,-1040
456,5.196433,1,5,9,22,15,-1034
457,5.20819,1,6,9,23,15,-1037
458,5.219852,2,6,8,22,11,-1039
459,5.231521,2,6,9,23,13,-1039
460,5.24317,2,6,9,26,9,-1036
461,5.254819,1,6,10,22,12,-1035
462,5.266514,1,6,9,27,13,-1040
463,5.278169,2,6,9,26,14,-1039
464,5.289869,1,6,9,24,11,-1033
465,5.301534,2,5,9,25,13,-1039
466,5.313087,3,6,9,25,10,-1040
467,5.324654,2,6,10,23,10,-1038
468,5.336225,1,6,9,27,12,-1040
469,5.347779,2,5,10,24,16,-1042
470,5.359339,2,5,10,27,12,-1032
471,5.370882,2,6,9,26,14,-1034
472,5.382454,2,6,10,23,8,-1032
473,5.39404,1,6,9,23,11,-1040
474,5.405682,2,6,9,24,10,-1038
475,5.41736,1,6,9,24,11,-1033
476,5.429023,2,5,10,27,10,-1045
477,5.440673,2,6,9,23,11,-1036
478,5.452323,2,6,9,25,11,-1032
479,5.463978,1,6,9,23,12,-1031
480,5.475638,2,6,10,26,11,-1032
481,5.487294,1,5,10,23,11,-1034
482,5.498953,2,6,9,23,8,-1039
483,5.510651,1,6,9,24,11,-1036
484,5.522393,1,6,9,23,13,-1039
485,5.534047,1,6,9,25,9,-1040
486,5.545742,1,6,9,23,14,-1035
487,5.557401,2,5,9,21,13,-1036
488,5.569078,2,6,9,26,13,-1033
489,5.580729,1,5,9,24,6,-1038
490,5.592388,2,5,9,26,16,-1034
491,5.604059,1,6,8,21,11,-1040
492,5.615716,2,6,9,24,8,-1038
493,5.627278,2,6,9,19,7,-1043
494,5.638827,2,6,10,26,14,-1036
495,5.650426,2,5,9,27,15,-1035
496,5.661992,2,6,9,23,14,-1039
497,5.673563,2,6,9,24,15,-1037
498,5.685134,2,6,9,25,12,-1037
499,5.69669,1,6,10,25,12,-1043
500,5.70823,2,6,9,23,14,-1032
501,5.719937,1,6,9,23,13,-1036
502,5.731623,1,6,9,25,8,-1031
503,5.743288,2,6,9,24,9,-1036
504,5.754949,1,6,9,22,14,-1039
505,5.766653,2,5,9,29,9,-1039
506,5.778305,2,7,9,25,11,-1033
507,5.790008,1,6,9,24,12,-1040
508,5.80167,1,6,9,26,13,-1039
509,5.813355,1,6,10,23,15,-1034
510,5.825029,2,6,10,23,11,-1032
511,5.836687,2,6,9,21,12,-1041
512,5.848371,2,6,9,21,11,-1036
513,5.860017,2,6,9,25,12,-1040
514,5.87167,2,6,9,26,12,-1036
515,5.883323,1,5,9,25,10,-1040
516,5.89503,1,6,9,23,13,-1037
517,5.906687,2,5,9,26,9,-1041
518,5.918467,2,6,9,26,11,-1041
519,5.93013,1,6,9,23,10,-1037
520,5.941695,1,7,10,19,12,-1035
521,5.953263,2,6,9,23,13,-1031
522,5.964846,2,5,9,21,12,-1033
523,5.976399,1,6,10,23,13,-1043
524,5.987955,1,6,10,25,12,-1037
525,5.999496,1,5,9,22,9,-1037
526,6.011069,2,6,9,26,14,-1035
527,6.022624,2,5,9,24,9,-1036
528,6.034318,1,6,9,22,12,-1035
529,6.046001,1,6,9,23,13,-1036
530,6.057659,1,6,9,19,15,-1035
531,6.069348,2,5,9,28,13,-1033
532,6.081017,2,5,9,24,13,-1045
533,6.092661,1,5,10,26,13,-1038
534,6.104306,1,6,9,22,10,-1039
535,6.115965,2,5,9,25,8,-1032
536,6.127643,2,5,9,24,12,-1037
537,6.139303,1,5,9,27,13,-1036
538,6.150858,2,5,9,22,11,-1042
539,6.162455,2,5,9,24,13,-1042
540,6.174034,2,5,9,22,11,-1036
541,6.18557,1,6,9,24,13,-1032
542,6.197129,2,6,9,23,13,-1038
543,6.208698,2,6,9,23,13,-1039
544,6.220259,2,6,10,24,7,-1033
545,6.231869,2,6,9,25,9,-1030
546,6.243519,2,5,9,20,9,-1033
547,6.255207,1,5,9,27,11,-1035
548,6.266856,2,6,9,22,15,-1037
549,6.278533,1,6,10,28,9,-1036
550,6.290195,2,6,9,26,16,-1034
551,6.301865,1,5,9,23,11,-1034
552,6.313528,2,5,10,25,13,-1036
553,6.325219,2,5,10,23,14,-1036
554,6.336929,2,6,10,25,8,-1038
555,6.34858,2,6,9,25,7,-1036
556,6.360138,2,6,9,28,11,-1036
557,6.371688,1,6,9,21,12,-1036
558,6.383237,1,6,10,22,11,-1040
559,6.394842,2,7,9,25,12,-1037
560,6.406417,1,5,9,25,9,-1037
561,6.417982,2,6,9,26,12,-1032
562,6.429549,2,5,9,23,11,-1038
563,6.441096,1,5,9,26,9,-1035
564,6.452716,2,6,10,27,11,-1045
565,6.464378,2,5,9,25,10,-1029
566,6.476033,1,6,9,22,11,-1031
567,6.487685,1,5,9,23,10,-1037
568,6.49935,2,6,9,30,14,-1033
569,6.511025,2,5,9,21,10,-1031
570,6.52268,1,5,9,26,14,-1040
571,6.534358,2,5,9,23,10,-1034
572,6.546037,1,6,9,25,13,-1041
573,6.557698,1,6,10,21,11,-1044
574,6.569254,1,6,9,24,13,-1031
575,6.580803,2,5,9,22,13,-1044
576,6.592365,2,6,10,25,11,-1033
577,6.603926,2,6,9,23,11,-1042
578,6.615483,1,5,9,25,9,-1042
579,6.62706,1,5,10,27,13,-1037
580,6.638612,1,6,9,24,8,-1040
581,6.65018,2,6,10,24,12,-1036
582,6.661857,2,6,9,25,11,-1039
583,6.673529,2,6,9,25,13,-1039
584,6.685209,2,6,9,25,10,-1037
585,6.696859,2,5,10,24,15,-1038
586,6.708534,1,6,10,21,16,-1037
587,6.720188,1,5,10,25,7,-1036
588,6.731841,2,5,10,20,13,-1042
589,6.743485,2,6,9,23,9,-1040
590,6.755193,2,7,9,24,14,-1033
591,6.766854,1,7,9,22,15,-1039
592,6.77863,2,6,9,23,11,-1039
593,6.790304,1,6,9,23,11,-1037
594,6.802007,2,6,9,22,9,-1036
595,6.81367,2,7,9,24,11,-1034
596,6.825343,1,7,9,25,13,-1037
597,6.837011,2,6,9,24,12,-1039
598,6.848661,1,6,10,23,16,-1039
599,6.860327,1,5,10,26,12,-1041
600,6.871981,1,6,10,27,11,-1040
601,6.883624,1,6,9,22,15,-1039
602,6.895282,1,7,9,19,12,-1036
603,6.906927,2,6,9,23,11,-1037
604,6.918582,2,6,9,24,11,-1038
605,6.93026,2,6,9,24,11,-1038
606,6.941911,1,5,9,21,11,-1030
607,6.953584,2,6,9,27,7,-1043
608,6.965289,1,5,9,23,7,-1042
609,6.976938,1,5,8,20,14,-1040
610,6.988583,2,6,8,23,11,-1037
611,7.000289,2,6,9,22,12,-1042
612,7.011925,1,6,9,25,8,-1032
613,7.023571,2,6,9,29,8,-1034
614,7.035234,1,6,9,23,14,-1035
615,7.046895,1,6,9,24,10,-1035
616,7.05855,1,6,10,25,13,-1036
617,7.070226,2,6,9,24,11,-1035
618,7.08187,2,6,10,22,10,-1036
619,7.093541,2,6,10,23,13,-1042
620,7.105217,2,6,9,25,13,-1043
621,7.116886,2,6,10,24,13,-1037
622,7.128537,2,6,9,20,16,-1038
623,7.140178,1,6,9,19,13,-1028
624,7.151828,2,6,9,20,12,-1038
625,7.163464,2,6,9,21,13,-1037
626,7.175118,2,5,9,25,12,-1033
627,7.186787,1,6,9,26,12,-1034
628,7.19845,1,5,10,23,16,-1038
629,7.210127,2,5,10,26,7,-1039
630,7.221785,2,5,9,25,7,-1040
631,7.233477,2,6,9,21,11,-1043
632,7.245148,2,6,10,23,12,-1030
633,7.256796,2,5,10,26,13,-1038
634,7.268446,2,5,9,23,11,-1036
635,7.280111,1,6,9,25,11,-1034
636,7.29168,2,6,9,24,9,-1039
637,7.303235,2,6,9,26,14,-1041
638,7.314782,1,6,9,27,10,-1041
639,7.326356,2,5,9,19,10,-1037
640,7.337925,2,5,9,27,11,-1041
641,7.349477,1,5,9,23,11,-1036
642,7.361023,2,5,9,24,15,-1031
643,7.372624,2,6,9,19,9,-1040
644,7.38422,2,6,9,22,11,-1038
645,7.395909,2,6,9,23,12,-1032
646,7.407667,1,6,9,25,12,-1036
647,7.419341,1,6,10,23,15,-1043
648,7.430991,1,5,9,23,8,-1031
649,7.442646,1,6,10,22,13,-1034
650,7.454308,2,6,9,22,11,-1035
651,7.466014,0,6,9,23,10,-1036
652,7.477678,2,6,9,23,13,-1039
653,7.489387,2,5,9,17,4,-1039
654,7.501137,2,5,9,26,10,-1033
655,7.512723,2,6,9,20,10,-1032
656,7.524273,2,6,9,25,12,-1040
657,7.535853,2,6,9,18,14,-1030
658,7.547394,1,6,9,23,11,-1037
659,7.558947,2,6,9,25,16,-1037
660,7.570521,2,6,9,21,12,-1033
661,7.582046,1,6,8,23,15,-1036
662,7.593578,1,6,9,23,11,-1034
663,7.605232,2,5,9,22,11,-1036
664,7.616908,2,6,9,24,12,-1039
665,7.628563,2,6,10,24,13,-1043
666,7.640227,2,6,9,20,8,-1039
667,7.651894,2,5,9,21,9,-1035
668,7.663549,1,5,9,22,10,-1037
669,7.675195,2,6,9,23,9,-1034
670,7.686852,1,5,9,26,11,-1037
671,7.698521,2,6,10,20,12,-1033
672,7.710048,2,5,9,21,12,-1040
673,7.721571,2,6,10,27,16,-1038
674,7.733082,1,6,9,19,7,-1033
675,7.744654,1,7,10,24,13,-1035
676,7.756219,2,6,9,25,10,-1033
677,7.767763,2,6,9,25,10,-1035
678,7.779309,2,6,9,20,11,-1034
679,7.790849,1,5,9,20,10,-1038
680,7.802466,1,6,8,22,7,-1034
681,7.814143,1,5,9,24,12,-1035
682,7.82581,1,6,9,23,16,-1046
683,7.83748,1,6,9,26,10,-1038
684,7.849132,1,6,9,22,10,-1037
685,7.860793,1,6,10,24,10,-1038
686,7.872438,2,5,10,22,9,-1034
687,7.88409,2,7,9,22,11,-1035
688,7.895739,2,5,10,26,12,-1031
689,7.907414,2,6,8,27,14,-1032
690,7.919081,1,7,9,26,10,-1042
691,7.930648,2,6,10,28,10,-1037
692,7.942239,2,7,9,22,16,-1044
693,7.953795,2,6,9,24,13,-1035
694,7.965324,2,6,9,26,12,-1033
695,7.97687,2,5,9,23,9,-1031
696,7.988463,1,6,9,21,10,-1039
697,8.000016,1,6,9,26,11,-1037
698,8.011606,2,5,9,20,13,-1035
699,8.023255,2,6,9,23,13,-1039
700,8.034925,1,6,9,24,8,-1038
701,8.046585,2,6,9,24,15,-1035
702,8.058274,1,5,9,24,12,-1032
703,8.069927,1,6,9,22,12,-1035
704,8.081597,2,6,9,25,9,-1033
705,8.093249,1,6,10,23,11,-1040
706,8.104908,2,5,9,22,11,-1034
707,8.116591,1,6,9,22,11,-1034
708,8.128263,1,6,9,23,12,-1035
709,8.139809,2,6,10,26,11,-1038
710,8.151358,2,6,10,23,12,-1035
711,8.162908,1,6,9,24,8,-1033
712,8.174475,2,5,9,28,10,-1036
713,8.186042,1,5,9,29,9,-1034
714,8.197576,1,6,9,28,10,-1038
715,8.209129,2,5,9,22,11,-1037
716,8.220693,1,6,9,27,12,-1040
717,8.232311,1,6,9,23,12,-1039
718,8.243963,2,5,9,24,17,-1033
719,8.255613,1,5,9,24,12,-1035
720,8.267286,2,6,9,23,10,-1037
721,8.278933,2,6,9,24,11,-1034
722,8.290616,1,6,9,22,9,-1033
723,8.30229,1,5,9,22,14,-1037
724,8.313935,1,6,9,25,12,-1030
725,8.325617,1,6,9,22,13,-1038
726,8.337294,1,7,9,21,13,-1040
727,8.34887,2,6,8,24,12,-1038
728,8.360425,2,5,9,21,8,-1031
729,8.371995,1,6,10,27,11,-1037
730,8.383546,2,5,9,25,10,-1041
731,8.395113,2,6,9,24,11,-1035
732,8.406668,1,6,8,24,14,-1042
733,8.418242,2,7,9,23,12,-1033
734,8.429814,2,6,8,23,9,-1038
735,8.44147,1,6,9,23,12,-1042
736,8.453137,1,6,9,21,12,-1033
737,8.4648,2,6,9,28,11,-1032
738,8.47649,2,5,10,23,13,-1036
739,8.488159,2,6,10,20,12,-1043
740,8.499815,2,5,10,22,11,-1031
741,8.511484,1,5,10,24,14,-1030
742,8.523205,2,6,9,28,13,-1036
743,8.534873,2,6,9,26,10,-1033
744,8.546584,1,6,10,22,15,-1034
745,8.558177,2,6,9,24,11,-1039
746,8.569741,2,6,9,21,11,-1028
747,8.58131,1,6,10,26,8,-1040
748,8.592858,1,5,10,23,11,-1033
749,8.604404,2,5,10,25,10,-1036
750,8.615952,3,6,9,24,13,-1045
751,8.6275,2,5,9,29,9,-1031
752,8.639095,2,6,8,22,14,-1032
753,8.650715,1,5,9,23,12,-1038
754,8.662383,2,5,9,26,13,-1036
755,8.67405,2,5,10,22,9,-1025
756,8.68574,2,5,10,20,13,-1034
757,8.6974,2,6,9,18,8,-1033
758,8.709092,2,6,9,25,12,-1029
759,8.722469,2,7,8,26,14,-1035
760,8.734177,2,7,9,22,10,-1026
761,8.745881,1,6,9,26,11,-1032
762,8.757603,2,6,9,23,10,-1034
763,8.769184,2,6,9,23,8,-1034
764,8.780941,2,6,10,22,7,-1035
765,8.792626,1,5,9,22,11,-1038
766,8.804234,1,7,9,22,12,-1037
767,8.815807,1,6,9,26,10,-1037
768,8.827374,1,6,10,23,13,-1043
769,8.838929,2,6,10,24,15,-1024
770,8.850595,1,6,9,21,8,-1037
771,8.862249,2,7,9,23,15,-1035
772,8.873911,2,6,10,26,9,-1030
773,8.885592,2,6,9,25,8,-1039
774,8.897261,2,7,9,23,11,-1035
775,8.908931,2,6,9,25,11,-1038
776,8.920574,1,6,9,23,8,-1030
777,8.932228,1,6,9,21,10,-1041
778,8.943904,2,6,9,25,12,-1033
779,8.955563,2,7,9,20,12,-1034
780,8.967247,2,5,9,27,11,-1041
781,8.978861,2,5,9,23,13,-1036
782,8.990427,1,6,9,24,9,-1034
783,9.001997,2,6,10,22,8,-1041
784,9.013565,2,6,9,26,15,-1033
785,9.025128,2,6,9,24,13,-1037
786,9.036704,2,5,9,27,11,-1039
787,9.048254,2,6,10,28,16,-1035
788,9.059818,2,6,9,22,15,-1035
789,9.071433,1,6,9,20,11,-1032
790,9.083085,2,6,9,24,15,-1035
791,9.094726,2,6,9,21,13,-1038
792,9.106375,2,6,9,23,11,-1039
793,9.118034,2,6,10,25,12,-1053
794,9.129686,2,6,9,26,16,-1044
795,9.141361,2,6,10,24,12,-1042
796,9.153033,2,5,10,26,11,-1034
797,9.164695,2,6,9,24,9,-1039
798,9.176401,1,6,10,23,13,-1030
799,9.187955,2,6,9,23,8,-1032
800,9.199505,3,5,9,23,13,-1043
801,9.211112,1,6,8,22,12,-1032
802,9.22271,2,5,9,23,11,-1038
803,9.234279,2,5,9,24,11,-1039
804,9.245809,2,6,9,24,9,-1040
805,9.257326,2,7,9,24,10,-1039
806,9.268883,1,6,9,24,7,-1037
807,9.280431,1,7,9,25,11,-1027
808,9.291997,2,6,9,23,14,-1034
809,9.303553,2,5,9,25,10,-1034
810,9.315119,2,6,10,22,11,-1033
811,9.326668,2,6,9,23,13,-1039
812,9.338249,2,6,9,25,14,-1032
813,9.349801,2,5,9,19,13,-1028
814,9.361323,2,6,9,25,9,-1039
815,9.372921,1,7,10,21,15,-1036
816,9.384576,1,6,10,26,5,-1036
817,9.396232,2,6,9,23,11,-1036
818,9.407905,2,6,10,22,10,-1036
819,9.419558,2,6,10,24,11,-1040
820,9.431202,1,6,9,27,12,-1037
821,9.442852,2,4,10,28,12,-1040
822,9.454532,2,6,10,23,13,-1037
823,9.466182,1,6,9,20,10,-1040
824,9.477882,1,5,9,26,12,-1038
825,9.48954,1,6,9,25,16,-1035
826,9.501213,2,6,10,23,16,-1035
827,9.512876,2,6,10,21,14,-1036
828,9.524546,2,6,9,24,11,-1037
829,9.53619,1,6,10,25,10,-1031
830,9.54784,1,6,9,22,9,-1035
831,9.559477,2,6,9,22,6,-1032
832,9.571125,2,5,10,26,14,-1033
833,9.582809,2,6,10,23,12,-1039
834,9.594476,2,6,8,23,13,-1033
835,9.606123,1,6,8,26,12,-1035
836,9.617802,2,6,9,27,13,-1035
837,9.62947,1,5,9,27,9,-1045
838,9.641095,2,6,9,24,9,-1039
839,9.652765,2,5,9,21,12,-1039
840,9.664423,2,5,10,23,10,-1036
841,9.676073,2,6,9,22,15,-1040
842,9.687747,1,5,9,22,11,-1041
843,9.699403,2,5,10,22,12,-1037
844,9.711054,2,6,9,25,8,-1037
845,9.722697,2,6,9,22,13,-1032
846,9.734376,2,5,9,23,10,-1036
847,9.746047,2,5,9,22,12,-1041
848,9.757715,1,6,9,25,10,-1036
849,9.769356,2,6,10,22,11,-1041
850,9.781024,2,7,9,24,15,-1047
851,9.792691,2,6,8,27,14,-1037
852,9.804396,1,6,8,27,11,-1035
853,9.815949,2,6,9,23,11,-1040
854,9.827506,2,6,10,25,9,-1038
855,9.839096,2,6,9,26,11,-1037
856,9.85065,2,6,10,24,12,-1036
857,9.862247,2,7,8,23,10,-1033
858,9.873805,2,6,10,23,13,-1035
859,9.885328,2,5,10,23,16,-1037
860,9.896884,1,6,9,28,14,-1036
861,9.908506,2,6,9,29,11,-1037
862,9.92018,2,6,9,26,15,-1039
863,9.931821,1,7,9,29,13,-1033
864,9.943467,2,6,10,28,19,-1035
865,9.955143,1,6,9,21,11,-1039
866,9.966831,1,5,9,25,16,-1040
867,9.978535,1,5,9,30,15,-1033
868,9.990202,2,6,9,23,11,-1040
869,10.001885,2,6,8,26,12,-1043
870,10.01358,2,6,9,26,16,-1033
871,10.025137,2,5,10,24,7,-1034
872,10.036686,1,6,9,24,12,-1035
873,10.048256,2,5,9,23,13,-1043
874,10.059832,2,6,9,25,10,-1038
875,10.071385,2,6,9,23,13,-1038
876,10.082939,2,6,9,23,12,-1036
877,10.094509,1,6,10,23,9,-1036
878,10.106055,1,6,10,26,16,-1043
879,10.117685,1,6,9,21,12,-1036
880,10.129352,1,6,10,24,7,-1037
881,10.141018,2,6,9,27,14,-1036
882,10.152669,1,6,9,24,15,-1031
883,10.164321,1,6,8,25,14,-1040
884,10.175969,1,7,9,27,16,-1032
885,10.187646,2,7,9,26,13,-1033
886,10.199303,2,6,9,23,11,-1038
887,10.210993,2,6,9,24,14,-1037
888,10.222669,2,6,9,25,11,-1032
889,10.234253,1,6,9,19,9,-1039
890,10.245812,1,7,9,22,11,-1034
891,10.257381,1,6,9,22,8,-1034
892,10.268935,2,5,9,21,12,-1033
893,10.280494,2,7,8,26,11,-1037
894,10.29204,2,6,9,23,13,-1037
895,10.303587,1,6,9,24,9,-1035
896,10.315151,2,6,9,25,11,-1034
897,10.3268,2,6,9,22,10,-1032
898,10.338482,2,5,9,23,9,-1038
899,10.350146,1,5,10,22,9,-1035
900,10.361808,2,5,9,26,8,-1042
901,10.37348,1,5,9,25,8,-1030
902,10.385154,2,6,10,21,11,-1037
903,10.396819,2,7,8,22,9,-1034
904,10.40847,2,6,9,24,11,-1031
905,10.420144,2,6,9,24,8,-1038
906,10.431712,1,6,9,23,14,-1038
907,10.44326,2,6,10,23,11,-1034
908,10.454821,1,6,9,26,9,-1040
909,10.466373,2,6,10,26,12,-1039
910,10.477933,1,7,10,25,11,-1040
911,10.489507,2,5,9,24,14,-1037
912,10.501072,2,5,9,23,10,-1036
913,10.512631,2,6,9,21,10,-1036
914,10.524179,1,6,10,19,10,-1036
915,10.535833,1,6,9,26,14,-1036
916,10.547477,2,7,9,20,14,-1041
917,10.559123,1,6,10,24,8,-1032
918,10.570797,2,5,10,24,13,-1037
919,10.582451,2,6,9,22,10,-1036
920,10.594119,2,6,9,23,14,-1034
921,10.605803,2,7,9,22,13,-1036
922,10.617488,1,7,9,19,12,-1034
923,10.629153,2,5,9,23,14,-1039
924,10.640821,1,5,9,25,13,-1036
925,10.652465,2,5,10,22,9,-1042
926,10.664111,2,6,9,26,10,-1037
927,10.675782,2,6,9,25,9,-1033
928,10.687442,2,6,10,25,12,-1033
929,10.699096,1,6,9,28,13,-1037
930,10.710761,2,5,8,20,12,-1030
931,10.722385,2,5,9,26,14,-1039
932,10.73409,1,6,9,26,13,-1037
933,10.745745,2,6,10,23,15,-1038
934,10.757402,1,6,9,22,13,-1031
935,10.769091,2,5,9,22,10,-1042
936,10.780771,2,6,8,22,9,-1036
937,10.792437,1,5,9,23,13,-1039
938,10.804091,1,6,10,22,13,-1033
939,10.815734,2,6,9,20,9,-1039
940,10.827378,1,6,9,25,5,-1039
941,10.839065,2,6,10,26,16,-1043
942,10.850769,2,5,9,26,8,-1029
943,10.862389,2,6,9,21,9,-1040
944,10.873954,1,6,10,24,14,-1036
945,10.885512,2,5,9,21,10,-1034
946,10.897076,1,5,9,23,13,-1036
947,10.908627,2,5,9,24,10,-1039
948,10.920175,2,6,9,24,8,-1037
949,10.931719,1,5,10,26,16,-1032
950,10.943332,2,6,9,23,13,-1038
951,10.954999,1,6,10,27,13,-1049
952,10.966671,1,6,10,23,11,-1041
953,10.978357,1,6,10,25,9,-1043
954,10.99002,2,5,10,24,16,-1040
955,11.001688,1,5,10,21,10,-1040
956,11.013359,2,5,9,24,7,-1036
957,11.025006,2,5,8,23,13,-1038
958,11.036667,2,6,8,23,7,-1030
959,11.048331,2,6,8,25,11,-1035
960,11.059981,1,6,9,25,12,-1033
961,11.071627,2,6,9,26,11,-1033
962,11.083315,1,5,9,24,12,-1029
963,11.094992,2,7,9,21,9,-1039
964,11.106643,2,6,9,25,14,-1039
965,11.118307,1,6,10,24,12,-1038
966,11.129983,2,6,9,26,12,-1035
967,11.141618,2,6,9,21,11,-1037
968,11.153347,2,6,9,24,13,-1039
969,11.165029,2,6,9,22,11,-1035
970,11.176642,2,5,10,24,11,-1035
971,11.188196,1,6,9,25,19,-1036
972,11.199759,1,5,9,26,11,-1035
973,11.211337,2,5,9,24,15,-1041
974,11.222896,1,6,9,25,12,-1036
975,11.234469,1,5,9,24,9,-1029
976,11.246039,2,6,9,23,11,-1036
977,11.257582,2,6,9,24,13,-1037
978,11.269224,2,5,9,23,13,-1040
979,11.280874,1,5,9,19,12,-1031
980,11.292561,1,6,9,24,16,-1039
981,11.304216,1,5,9,21,7,-1035
982,11.315859,1,5,9,23,11,-1037
983,11.327509,2,5,9,23,13,-1036
984,11.339201,2,6,9,26,8,-1036
985,11.350845,2,6,9,27,11,-1036
986,11.362555,2,5,9,25,11,-1038
987,11.374229,1,6,9,23,15,-1044
988,11.385808,2,6,10,20,13,-1039
989,11.397365,1,6,9,24,15,-1042
990,11.408909,2,6,9,26,12,-1035
991,11.420455,1,6,9,26,8,-1037
992,11.432017,2,6,8,25,11,-1033
993,11.443586,1,6,8,22,9,-1037
994,11.45517,1,5,9,23,10,-1036
995,11.46675,2,6,9,25,10,-1033
996,11.478362,2,6,9,23,14,-1034
997,11.490051,1,6,9,27,11,-1035
998,11.501729,1,6,10,24,13,-1040
999,11.513353,2,6,9,23,11,-1035
1000,11.525,2,6,9,25,11,-1039
1001,11.536693,1,6,9,22,12,-1035
1002,11.548376,2,6,9,20,12,-1037
1003,11.56011,1,6,9,23,8,-1040
1004,11.571819,2,5,9,21,16,-1039
1005,11.583547,2,6,10,25,12,-1038
1006,11.595133,2,5,9,25,9,-1032
1007,11.606681,1,6,8,26,10,-1033
1008,11.61827,1,6,8,22,15,-1040
1009,11.629808,2,6,9,24,13,-1039
1010,11.641329,2,6,9,26,11,-1037
1011,11.652881,1,6,9,24,15,-1031
1012,11.664437,2,6,9,25,14,-1032
1013,11.676021,1,7,8,19,13,-1036
1014,11.687662,2,7,9,20,16,-1032
1015,11.69933,1,6,9,24,13,-1039
1016,11.710987,1,6,10,27,9,-1040
1017,11.722663,1,6,9,26,9,-1037
1018,11.734319,1,5,9,25,10,-1033
1019,11.746006,1,6,10,25,12,-1036
1020,11.757683,2,6,9,18,9,-1032
1021,11.769364,1,6,10,25,14,-1037
1022,11.781055,2,6,9,24,13,-1038
1023,11.792726,2,6,10,25,9,-1042
1024,11.804279,2,6,9,24,8,-1039
1025,11.81582,2,6,9,28,11,-1041
1026,11.827408,2,5,8,21,7,-1033
1027,11.838978,2,6,9,25,12,-1033
1028,11.850526,2,6,9,22,12,-1037
1029,11.862104,2,6,9,21,11,-1041
1030,11.873677,2,6,9,24,9,-1037
1031,11.885275,2,6,9,25,11,-1040
1032,11.896904,2,6,9,21,14,-1032
1033,11.908563,1,6,9,21,11,-1035
1034,11.920223,2,6,9,24,8,-1033
1035,11.931913,1,6,10,24,11,-1040
1036,11.943584,1,6,9,23,12,-1039
1037,11.955236,2,6,10,24,9,-1035
1038,11.96692,1,6,10,28,12,-1040
1039,11.978576,1,6,9,27,9,-1028
1040,11.990274,1,6,9,23,12,-1034
1041,12.001943,2,6,9,30,8,-1036
1042,12.013524,2,6,9,26,16,-1036
1043,12.025086,2,6,9,22,13,-1033
1044,12.036645,2,5,10,29,12,-1037
1045,12.048192,2,6,9,25,9,-1039
1046,12.059759,1,6,9,27,11,-1036
1047,12.071318,2,7,9,24,10,-1032
1048,12.082894,1,6,8,22,8,-1040
1049,12.094468,2,7,9,25,11,-1036
1050,12.106122,2,6,9,26,16,-1032
1051,12.117806,1,6,9,27,8,-1037
1052,12.12948,1,5,9,22,10,-1043
1053,12.141159,1,6,9,24,11,-1042
1054,12.152822,1,5,10,24,12,-1036
1055,12.164475,1,5,9,24,9,-1039
1056,12.176142,2,5,9,24,12,-1035
1057,12.187839,2,6,9,24,11,-1033
1058,12.199514,1,6,9,23,11,-1039
1059,12.211166,2,6,9,21,12,-1031
1060,12.222729,2,5,9,27,11,-1041
1061,12.234294,2,6,9,24,11,-1041
1062,12.245883,2,6,9,23,14,-1035
1063,12.257442,2,5,9,25,9,-1037
1064,12.268997,2,6,9,26,13,-1040
1065,12.280547,2,6,9,21,14,-1039
1066,12.29209,2,6,10,24,11,-1031
1067,12.303649,2,6,9,20,12,-1034
1068,12.315419,2,6,9,23,13,-1033
1069,12.327081,1,5,10,25,13,-1035
1070,12.338734,2,6,9,23,8,-1033
1071,12.350389,2,7,9,22,11,-1041
1072,12.362046,2,7,8,25,13,-1035
1073,12.37373,1,6,9,26,10,-1034
1074,12.385397,1,6,9,23,11,-1034
1075,12.397086,2,6,9,23,9,-1037
1076,12.408752,2,6,10,27,11,-1039
1077,12.42042,2,5,10,27,8,-1040
1078,12.432011,2,6,10,24,12,-1035
1079,12.443572,1,7,8,25,12,-1035
1080,12.455147,2,6,9,24,13,-1041
1081,12.466699,2,6,9,24,12,-1040
1082,12.478284,2,6,9,25,4,-1039
1083,12.489902,2,6,9,26,12,-1040
1084,12.501469,2,5,10,24,11,-1029
1085,12.513037,2,5,10,21,11,-1038
1086,12.524665,2,6,10,23,11,-1036
1087,12.536318,1,6,9,26,11,-1037
1088,12.547972,2,5,10,30,9,-1037
1089,12.559661,1,5,9,24,14,-1034
1090,12.571323,2,6,9,22,8,-1036
1091,12.583008,1,6,9,25,10,-1033
1092,12.594704,1,6,9,25,13,-1036
1093,12.606398,2,5,10,26,11,-1037
1094,12.618126,1,5,10,21,10,-1038
1095,12.629795,1,6,10,23,13,-1033
1096,12.641396,1,6,9,21,9,-1036
1097,12.652941,2,6,9,24,8,-1034
1098,12.664504,1,6,9,24,11,-1034
1099,12.676051,1,6,9,25,12,-1042
1100,12.687596,2,6,9,25,9,-1041
1101,12.699143,2,6,10,21,13,-1037
1102,12.710696,1,6,8,25,10,-1038
1103,12.722289,3,5,9,23,15,-1041
1104,12.733984,2,6,9,22,10,-1034
1105,12.745611,1,6,8,23,14,-1037
1106,12.757282,1,5,9,25,12,-1034
1107,12.768942,1,5,9,26,11,-1036
1108,12.780593,2,6,9,23,9,-1039
1109,12.792239,2,6,9,26,10,-1035
1110,12.80391,2,6,9,21,14,-1039
1111,12.815562,1,6,9,21,13,-1035
1112,12.827232,2,5,9,21,15,-1036
1113,12.838895,1,5,9,25,10,-1041
1114,12.850563,1,6,10,20,15,-1037
1115,12.862238,1,6,9,23,11,-1039
1116,12.873868,2,6,9,25,14,-1029
1117,12.885513,2,6,9,22,14,-1031
1118,12.89717,2,6,9,27,14,-1041
1119,12.908833,2,6,9,24,10,-1035
1120,12.920478,1,5,10,26,10,-1034
1121,12.932241,2,6,9,27,11,-1033
1122,12.943918,1,5,10,24,12,-1042
1123,12.955568,2,6,9,26,10,-1041
1124,12.967217,1,6,9,22,12,-1047
1125,12.978867,2,6,9,20,9,-1041
1126,12.990518,2,6,9,23,9,-1031
1127,13.00219,1,6,9,24,13,-1039
1128,13.013867,2,6,9,23,9,-1024
1129,13.02554,2,6,9,27,12,-1038
1130,13.037247,2,6,9,19,11,-1038
1131,13.048895,2,6,9,26,16,-1033
1132,13.060569,2,6,9,27,10,-1033
1133,13.072211,2,6,10,25,11,-1034
1134,13.083862,2,6,9,27,10,-1034
1135,13.095524,2,6,9,21,12,-1029
1136,13.107189,2,7,9,24,14,-1038
1137,13.118842,2,6,9,26,11,-1031
1138,13.130519,2,6,9,24,11,-1034
1139,13.142203,2,7,10,24,12,-1032
1140,13.153866,2,6,9,28,12,-1036
1141,13.165541,1,6,9,24,10,-1033
1142,13.17722,1,5,9,25,14,-1037
1143,13.188867,2,5,9,21,14,-1038
1144,13.200542,2,6,9,20,9,-1034
1145,13.212198,1,6,9,28,14,-1038
1146,13.223849,2,6,9,27,17,-1040
1147,13.235491,2,5,9,24,12,-1031
1148,13.247178,2,6,9,28,11,-1040
1149,13.258837,2,5,9,22,13,-1036
1150,13.270525,2,6,8,23,8,-1032
1151,13.282194,2,7,9,22,10,-1030
1152,13.293865,2,7,10,20,14,-1034
1153,13.305553,2,6,10,24,13,-1031
1154,13.317225,3,7,8,22,11,-1037
1155,13.328874,2,5,9,22,11,-1041
1156,13.340546,2,5,9,20,11,-1029
1157,13.352213,2,6,9,27,12,-1040
1158,13.363886,2,6,9,24,13,-1041
1159,13.375447,1,6,10,27,9,-1041
1160,13.387028,1,6,9,21,10,-1042
1161,13.398574,2,6,9,22,12,-1037
1162,13.410133,1,5,9,22,10,-1033
1163,13.421701,1,5,9,24,11,-1034
1164,13.43331,1,6,10,23,13,-1041
1165,13.444904,1,5,8,23,11,-1039
1166,13.456469,2,5,9,22,10,-1040
1167,13.468087,1,6,10,25,12,-1038
1168,13.479742,1,6,10,27,10,-1032
1169,13.49138,1,5,9,21,13,-1031
1170,13.50306,1,6,10,23,13,-1039
1171,13.514711,1,6,9,22,9,-1037
1172,13.526403,1,7,9,23,11,-1037
1173,13.538096,1,6,10,26,12,-1037
1174,13.549756,2,6,9,25,8,-1032
1175,13.561443,2,6,9,23,9,-1037
1176,13.573099,2,5,9,25,12,-1037
1177,13.584663,2,6,9,23,10,-1037
1178,13.596211,1,6,9,23,10,-1035
1179,13.607774,2,6,9,27,13,-1035
1180,13.619321,2,6,9,21,14,-1039
1181,13.630871,2,6,9,25,10,-1039
1182,13.642426,2,6,9,27,13,-1039
1183,13.654004,2,6,9,26,11,-1041
1184,13.66558,2,6,9,23,12,-1034
1185,13.67725,1,5,9,25,7,-1036
1186,13.688923,2,5,10,24,13,-1035
1187,13.700586,3,6,10,26,11,-1040
1188,13.712233,2,7,9,24,12,-1040
1189,13.723887,2,6,10,25,11,-1041
1190,13.735532,2,7,9,26,13,-1037
1191,13.747188,2,6,10,28,13,-1035
1192,13.758843,1,6,9,24,11,-1033
1193,13.770518,2,5,10,25,11,-1037
1194,13.78217,2,5,10,19,6,-1032
1195,13.793735,2,6,9,24,9,-1034
1196,13.80532,2,5,9,24,12,-1037
1197,13.816907,2,5,9,19,13,-1031
1198,13.828461,2,6,10,25,11,-1036
1199,13.840032,2,6,9,27,11,-1035
1200,13.851583,2,6,9,26,12,-1040
1201,13.863137,2,6,9,19,12,-1029
1202,13.874701,2,6,9,26,12,-1033
1203,13.886365,2,7,9,24,8,-1039
1204,13.898041,1,6,9,24,12,-1037
1205,13.909732,1,6,9,24,11,-1040
1206,13.921411,1,6,9,25,11,-1026
1207,13.933094,1,6,9,22,11,-1038
1208,13.944746,2,5,9,25,9,-1036
1209,13.956401,2,6,10,26,13,-1034
1210,13.968074,1,6,9,27,11,-1040
1211,13.979741,1,6,10,23,10,-1044
1212,13.991401,2,6,9,23,13,-1034
1213,14.002959,1,6,9,23,12,-1040
1214,14.014545,2,7,9,28,11,-1034
1215,14.026131,1,7,9,24,8,-1036
1216,14.037706,2,6,10,25,13,-1036
1217,14.049281,1,6,9,19,8,-1032
1218,14.060828,2,6,9,23,9,-1033
1219,14.072371,2,6,10,24,10,-1030
1220,14.083942,2,6,10,22,11,-1034
1221,14.095579,1,6,9,24,11,-1039
1222,14.107244,2,7,9,20,11,-1043
1223,14.118887,2,7,9,28,11,-1038
1224,14.130572,1,6,9,23,12,-1031
1225,14.142254,1,6,9,22,11,-1032
1226,14.153917,2,5,9,28,13,-1034
1227,14.165603,2,5,9,24,7,-1036
1228,14.177268,1,6,9,22,11,-1040
1229,14.18893,1,6,10,25,7,-1031
1230,14.200599,1,6,9,25,11,-1038
1231,14.212165,2,6,9,26,6,-1035
1232,14.223712,2,6,10,27,10,-1031
1233,14.235285,1,6,9,21,10,-1033
1234,14.246873,2,5,9,22,7,-1032
1235,14.258456,1,6,9,25,9,-1037
1236,14.270043,1,5,8,15,15,-1040
1237,14.28157,2,7,8,23,8,-1035
1238,14.29314,2,6,9,21,8,-1038
1239,14.304742,2,6,9,24,11,-1034
1240,14.316423,2,6,10,21,15,-1033
1241,14.328079,2,6,9,25,10,-1037
1242,14.339732,2,6,10,24,12,-1035
1243,14.351394,2,5,9,23,13,-1035
1244,14.363195,1,5,10,25,15,-1035
1245,14.374858,2,7,10,23,10,-1035
1246,14.386521,2,6,10,25,11,-1033
1247,14.398207,1,6,9,24,12,-1036
1248,14.409903,2,5,10,22,8,-1033
1249,14.421472,2,6,9,23,14,-1034
1250,14.433029,2,6,9,22,13,-1037
1251,14.444576,2,6,9,27,13,-1035
1252,14.456122,2,6,9,24,12,-1035
1253,14.467672,2,6,10,23,12,-1039
1254,14.479243,2,6,9,23,16,-1040
1255,14.490791,2,5,9,23,13,-1036
1256,14.502359,1,6,10,19,8,-1039
1257,14.513998,2,6,10,24,11,-1035
1258,14.525676,2,6,9,25,10,-1040
1259,14.537355,2,6,10,23,12,-1038
1260,14.549,1,7,9,21,11,-1038
1261,14.560648,2,6,9,26,14,-1041
1262,14.57232,2,6,9,24,9,-1041
1263,14.583966,1,6,10,24,9,-1032
1264,14.595616,1,6,9,23,9,-1034
1265,14.607275,2,6,9,22,11,-1036
1266,14.618933,2,6,9,27,11,-1041
1267,14.630532,2,5,8,25,15,-1039
1268,14.642083,2,6,9,28,9,-1030
1269,14.653643,2,6,10,23,9,-1026
1270,14.665212,1,6,9,22,9,-1039
1271,14.676782,2,6,10,24,11,-1034
1272,14.688332,2,6,9,23,11,-1041
1273,14.699904,2,7,9,27,10,-1036
1274,14.711457,2,6,9,27,12,-1039
1275,14.723094,1,6,10,21,10,-1036
1276,14.734747,2,6,10,28,13,-1044
1277,14.746377,2,5,9,19,12,-1040
1278,14.758053,2,6,9,22,8,-1035
1279,14.769754,2,6,9,24,8,-1038
1280,14.781551,2,6,9,24,11,-1032
1281,14.793316,1,5,8,23,6,-1032
1282,14.804976,2,6,9,23,10,-1038
1283,14.816648,2,6,9,23,9,-1036
1284,14.828344,2,6,9,24,12,-1037
1285,14.839906,2,6,10,24,17,-1038
1286,14.851454,1,6,10,21,12,-1037
1287,14.863058,2,6,8,21,12,-1036
1288,14.874685,1,5,10,24,10,-1034
1289,14.886299,1,6,9,23,13,-1034
1290,14.897848,2,5,9,26,10,-1040
1291,14.909448,2,6,9,25,12,-1041
1292,14.921047,1,6,9,25,13,-1038
1293,14.9326,1,5,9,26,12,-1033
1294,14.944158,1,6,9,24,14,-1033
1295,14.955711,2,5,9,27,11,-1038
1296,14.967283,1,6,9,27,12,-1037
1297,14.978829,2,6,9,25,9,-1042
1298,14.990415,1,6,9,25,12,-1040
1299,15.001966,2,5,9,24,12,-1033
1300,15.01351,2,5,9,23,13,-1039
1301,15.025087,2,6,9,24,13,-1036
1302,15.036735,1,6,9,23,13,-1041
1303,15.04839,1,5,9,27,10,-1034
1304,15.060064,2,6,10,30,13,-1033
1305,15.071715,2,6,10,24,11,-1031
1306,15.083364,2,6,10,22,7,-1039
1307,15.09502,2,5,9,25,11,-1042
1308,15.106691,2,6,9,24,10,-1037
1309,15.118371,2,6,9,22,12,-1033
1310,15.130054,2,5,9,26,12,-1041
1311,15.141738,2,6,9,25,12,-1038
1312,15.153421,2,5,9,23,11,-1042
1313,15.165096,2,5,9,28,11,-1030
1314,15.176738,2,6,9,26,10,-1037
1315,15.18838,2,6,9,22,5,-1034
1316,15.200048,1,7,9,28,13,-1034
1317,15.211709,2,6,10,21,10,-1034
1318,15.223358,2,6,8,26,14,-1041
1319,15.235036,2,5,9,25,12,-1031
1320,15.246701,2,5,9,25,12,-1038
1321,15.258374,2,6,8,20,16,-1040
1322,15.270018,1,6,9,23,13,-1036
1323,15.281673,1,6,9,26,10,-1036
1324,15.293355,2,6,9,26,12,-1038
1325,15.305005,2,6,10,23,12,-1034
1326,15.316664,2,6,9,25,13,-1037
1327,15.328321,2,5,9,26,16,-1035
1328,15.339996,2,5,9,26,11,-1036
1329,15.351659,2,6,9,26,15,-1036
1330,15.3633,2,5,9,24,16,-1044
1331,15.374998,2,7,9,22,12,-1033
1332,15.386852,1,7,9,21,13,-1040
1333,15.39851,2,6,9,25,9,-1037
1334,15.410211,1,6,10,22,12,-1038
1335,15.42186,2,5,9,26,13,-1037
1336,15.433516,2,6,9,21,14,-1033
1337,15.44523,1,6,9,23,9,-1036
1338,15.45692,2,6,10,25,12,-1033
1339,15.468476,2,5,10,22,14,-1039
1340,15.480046,2,6,9,28,10,-1037
1341,15.491619,2,5,9,24,7,-1040
1342,15.503172,1,6,10,30,10,-1036
1343,15.51472,2,6,10,22,11,-1038
1344,15.526318,2,6,9,25,11,-1036
1345,15.537865,1,6,9,26,8,-1035
1346,15.549452,1,6,9,23,12,-1037
1347,15.561101,2,6,9,22,10,-1035
1348,15.572758,2,7,9,23,13,-1043
1349,15.584394,2,6,10,26,9,-1039
1350,15.59606,1,7,9,24,14,-1040
1351,15.60772,1,6,9,26,12,-1034
1352,15.619361,1,6,9,23,11,-1033
1353,15.631012,1,6,9,24,12,-1039
1354,15.642685,1,5,9,19,14,-1039
1355,15.654373,2,6,9,23,10,-1043
1356,15.666031,2,7,9,25,12,-1035
1357,15.677567,2,6,9,24,15,-1035
1358,15.689168,2,6,9,23,10,-1035
1359,15.700718,2,6,9,24,13,-1042
1360,15.712295,2,6,9,25,10,-1035
1361,15.72384,2,6,10,28,12,-1039
1362,15.735382,1,6,9,28,11,-1033
1363,15.746929,2,6,10,25,10,-1033
1364,15.758485,1,6,10,24,14,-1032
1365,15.770122,2,6,10,25,14,-1037
1366,15.781798,2,6,9,23,12,-1024
1367,15.793487,2,7,10,18,14,-1038
1368,15.805136,2,7,10,21,16,-1036
1369,15.816806,2,6,9,23,12,-1034
1370,15.828452,1,6,9,27,11,-1033
1371,15.840101,1,7,9,23,11,-1033
1372,15.851747,2,5,9,22,12,-1041
1373,15.863396,1,6,9,26,10,-1034
1374,15.875051,1,6,10,22,11,-1041
1375,15.886669,2,6,8,21,11,-1036
1376,15.898365,1,6,9,22,10,-1035
1377,15.909936,1,6,9,26,9,-1039
1378,15.921487,2,6,10,27,14,-1040
1379,15.933035,1,6,10,27,10,-1037
1380,15.94459,2,7,9,23,11,-1030
1381,15.956179,2,6,9,26,9,-1041
1382,15.96779,2,6,9,21,12,-1032
1383,15.97942,2,6,9,24,13,-1033
1384,15.991099,2,6,10,25,10,-1035
1385,16.002755,2,6,9,26,14,-1038
1386,16.014377,1,7,9,26,12,-1040
1387,16.026055,2,6,9,21,11,-1036
1388,16.037739,2,6,9,25,10,-1032
1389,16.049355,1,5,9,19,14,-1042
1390,16.061008,2,5,9,26,9,-1036
1391,16.07267,1,5,9,23,15,-1041
1392,16.084344,2,7,10,27,9,-1035
1393,16.095992,2,5,9,25,11,-1040
1394,16.107642,2,6,10,24,10,-1041
1395,16.119313,2,5,9,18,8,-1040
1396,16.130999,1,7,9,26,14,-1036
1397,16.142652,2,7,9,21,8,-1035
1398,16.154325,2,6,10,22,11,-1033
1399,16.165999,2,5,10,26,14,-1034
1400,16.177721,2,6,10,21,9,-1032
1401,16.189373,1,6,10,20,9,-1034
1402,16.200919,2,6,10,23,8,-1033
1403,16.212468,1,5,10,26,11,-1037
1404,16.224042,2,6,9,22,15,-1036
1405,16.235623,1,6,9,23,10,-1035
1406,16.247175,2,5,9,24,10,-1038
1407,16.258715,1,6,10,20,10,-1042
1408,16.270313,2,6,9,24,15,-1036
1409,16.281883,2,6,9,24,16,-1032
1410,16.293511,2,6,9,23,10,-1036
1411,16.30521,2,7,9,22,11,-1034
1412,16.316866,2,6,9,26,15,-1032
1413,16.328513,2,5,9,22,12,-1038
1414,16.34016,2,5,10,25,12,-1038
1415,16.351836,2,6,10,20,12,-1040
1416,16.363506,1,5,9,25,14,-1041
1417,16.375236,1,5,10,28,11,-1032
1418,16.386941,2,6,10,23,13,-1035
1419,16.398669,2,6,10,26,9,-1032
1420,16.410321,2,6,9,22,11,-1040
1421,16.42193,1,6,9,27,17,-1037
1422,16.433477,2,6,9,22,11,-1037
1423,16.445024,2,6,9,23,9,-1041
1424,16.456569,2,6,9,23,14,-1040
1425,16.468111,1,6,9,25,9,-1038
1426,16.479661,2,6,10,22,11,-1037
1427,16.491223,2,5,9,26,12,-1033
1428,16.502849,2,6,9,23,13,-1034
1429,16.514509,2,6,9,26,10,-1037
1430,16.526179,2,6,10,24,12,-1032
1431,16.537862,1,7,9,21,10,-1040
1432,16.549522,2,6,9,26,10,-1040
1433,16.561212,2,6,9,23,11,-1046
1434,16.572868,2,6,9,25,18,-1033
1435,16.584509,2,6,9,24,15,-1034
1436,16.596164,2,6,9,28,12,-1039
1437,16.607845,2,6,9,24,13,-1039
1438,16.619422,2,6,10,22,12,-1038
1439,16.630995,1,6,9,26,12,-1031
1440,16.642575,2,7,9,23,11,-1032
1441,16.654124,2,6,9,25,12,-1036
1442,16.665694,2,6,9,26,13,-1039
1443,16.677303,2,5,9,23,13,-1039
1444,16.688854,2,6,10,25,10,-1039
1445,16.700429,2,6,9,24,12,-1040
1446,16.712128,2,5,9,26,11,-1040
1447,16.723863,2,6,9,25,9,-1036
1448,16.735513,1,6,10,23,12,-1034
1449,16.747163,1,6,9,26,12,-1037
1450,16.758848,2,6,9,24,15,-1034
1451,16.770515,2,5,9,23,13,-1030
1452,16.78218,1,5,9,24,9,-1036
1453,16.793873,1,5,9,22,10,-1037
1454,16.805559,1,6,9,21,11,-1037
1455,16.817256,2,7,9,21,8,-1031
1456,16.828814,2,6,9,23,12,-1034
1457,16.840359,1,7,9,21,12,-1036
1458,16.851914,1,6,9,23,15,-1032
1459,16.863456,2,5,9,20,11,-1040
1460,16.875018,2,6,9,25,13,-1031
1461,16.886607,2,6,9,24,11,-1043
1462,16.898192,2,5,10,26,15,-1038
1463,16.909757,2,5,9,23,11,-1034
1464,16.921419,2,5,9,23,13,-1038
1465,16.933103,1,7,9,24,11,-1037
1466,16.944761,2,6,10,23,11,-1031
1467,16.956405,2,7,9,24,10,-1034
1468,16.968071,1,6,9,20,9,-1030
1469,16.979732,2,6,9,23,9,-1041
1470,16.99137,1,6,10,23,11,-1030
1471,17.00302,2,6,9,21,14,-1040
1472,17.014727,2,6,10,26,13,-1032
1473,17.026375,2,5,9,22,13,-1038
1474,17.038035,2,6,9,23,11,-1038
1475,17.049738,1,6,10,26,8,-1034
1476,17.061354,2,6,9,24,11,-1040
1477,17.073004,2,6,10,25,13,-1037
1478,17.084656,1,5,8,27,10,-1032
1479,17.096336,2,6,9,20,13,-1033
1480,17.10799,1,6,9,21,15,-1038
1481,17.119628,1,6,9,24,9,-1037
1482,17.131187,2,6,9,20,8,-1041
1483,17.142737,2,6,9,25,9,-1037
1484,17.154307,2,5,9,23,12,-1040
1485,17.165857,2,6,9,25,11,-1040
1486,17.177401,1,6,9,22,13,-1042
1487,17.18895,1,6,9,22,12,-1032
1488,17.200496,2,6,9,26,13,-1036
1489,17.212061,1,6,9,24,12,-1039
1490,17.223685,2,6,9,23,12,-1038
1491,17.235317,2,5,9,21,9,-1034
1492,17.246985,1,6,9,20,12,-1039
1493,17.258642,2,6,9,20,10,-1038
1494,17.270309,2,7,10,27,8,-1033
1495,17.281989,1,6,8,24,11,-1043
1496,17.293612,2,6,10,24,10,-1029
1497,17.30527,2,6,10,23,8,-1042
1498,17.31694,2,6,9,25,15,-1042
1499,17.328616,3,6,9,22,13,-1040
1500,17.340273,2,7,9,28,15,-1039
1501,17.351922,2,6,10,26,13,-1039
1502,17.363568,2,6,9,25,12,-1039
1503,17.375251,3,6,10,25,9,-1044
1504,17.386933,2,6,9,24,11,-1034
1505,17.398618,2,6,9,25,13,-1032
1506,17.410284,2,6,9,21,11,-1034
1507,17.421936,2,6,10,27,15,-1038
1508,17.433742,2,6,8,27,10,-1035
1509,17.445419,1,6,9,29,16,-1037
1510,17.456987,2,6,9,23,9,-1037
1511,17.468553,1,5,10,25,14,-1030
1512,17.480102,2,6,9,25,9,-1036
1513,17.491668,2,6,9,21,11,-1040
1514,17.503207,2,6,9,20,10,-1040
1515,17.514742,2,6,9,26,8,-1040
1516,17.526332,2,5,8,21,14,-1031
1517,17.537973,2,6,9,24,9,-1036
1518,17.549617,2,6,9,24,9,-1029
1519,17.561282,1,6,9,25,10,-1038
1520,17.572935,2,6,9,27,11,-1037
1521,17.584613,1,5,9,26,12,-1037
1522,17.596269,1,6,10,23,10,-1038
1523,17.607956,1,6,9,28,9,-1043
1524,17.619607,2,6,9,22,13,-1036
1525,17.631255,2,6,9,21,13,-1034
1526,17.642903,1,6,10,28,11,-1042
1527,17.654459,2,6,9,25,9,-1036
1528,17.666062,2,5,9,23,12,-1030
1529,17.677636,1,6,9,26,9,-1037
1530,17.689206,3,6,9,24,11,-1042
1531,17.700766,2,6,9,23,9,-1038
1532,17.712321,2,6,9,24,12,-1033
1533,17.72387,1,6,10,22,11,-1033
1534,17.735435,2,6,9,26,15,-1038
1535,17.747105,2,5,9,23,11,-1035
1536,17.758793,2,5,10,27,11,-1045
1537,17.77046,1,6,10,25,11,-1033
1538,17.782124,2,5,9,24,13,-1030
1539,17.793782,2,6,9,23,8,-1037
1540,17.805419,2,6,9,23,11,-1041
1541,17.817094,1,6,9,18,9,-1038
1542,17.828747,1,6,9,23,12,-1042
1543,17.840401,1,6,9,24,9,-1035
1544,17.852086,2,5,9,24,10,-1038
1545,17.863636,1,6,9,22,13,-1036
1546,17.875214,2,5,9,26,14,-1035
1547,17.886785,2,6,9,23,15,-1040
1548,17.89835,1,6,9,23,14,-1037
1549,17.909958,2,5,9,24,15,-1039
1550,17.921562,2,6,9,21,12,-1039
1551,17.933086,2,5,9,21,13,-1036
1552,17.944639,2,6,10,24,12,-1038
1553,17.956263,2,5,9,28,15,-1037
1554,17.967909,2,5,9,22,11,-1038
1555,17.979551,2,6,9,20,13,-1042
1556,17.99122,2,5,9,26,12,-1032
1557,18.002859,1,6,9,26,15,-1038
1558,18.014525,1,6,9,23,12,-1030
1559,18.026227,2,6,9,23,10,-1034
1560,18.037863,1,6,9,28,10,-1036
1561,18.049526,2,6,9,20,11,-1035
1562,18.061195,1,6,10,21,8,-1042
1563,18.072769,2,6,9,22,7,-1034
1564,18.084321,2,6,8,24,14,-1035
1565,18.095858,2,6,9,25,11,-1037
1566,18.107409,2,6,9,19,10,-1038
1567,18.118977,1,6,9,22,12,-1039
1568,18.130521,1,6,9,23,11,-1038
1569,18.142053,2,6,9,25,10,-1035
1570,18.153575,1,6,9,23,12,-1043
1571,18.165213,2,6,9,26,10,-1035
1572,18.176873,2,5,9,24,14,-1039
1573,18.18852,3,6,9,25,11,-1040
1574,18.200185,2,6,9,23,12,-1039
1575,18.211827,1,5,9,24,9,-1036
1576,18.223487,2,5,9,23,10,-1041
1577,18.235149,2,6,9,21,13,-1040
1578,18.246794,2,6,10,24,10,-1034
1579,18.258459,2,5,9,28,11,-1038
1580,18.27014,2,5,9,22,10,-1037
1581,18.281701,2,6,9,21,12,-1037
1582,18.29326,2,5,9,24,11,-1039
1583,18.304811,2,6,10,22,12,-1033
1584,18.316356,2,7,9,24,14,-1037
1585,18.327907,2,6,10,23,18,-1037
1586,18.339449,2,6,9,24,11,-1036
1587,18.35099,2,6,10,19,10,-1036
1588,18.362582,2,6,9,24,14,-1036
1589,18.374267,2,6,10,20,12,-1037
1590,18.385924,2,5,9,23,9,-1032
1591,18.39762,2,6,8,29,13,-1037
1592,18.409272,2,6,9,23,11,-1033
1593,18.420916,2,6,9,23,17,-1036
1594,18.432581,2,6,9,25,10,-1039
1595,18.444236,2,6,9,22,13,-1040
1596,18.455889,1,7,9,20,12,-1033
1597,18.467577,1,6,9,22,15,-1036
1598,18.479237,2,5,9,25,10,-1034
1599,18.490915,1,6,9,24,10,-1041
1600,18.502589,1,5,10,28,12,-1036
1601,18.51426,2,6,9,24,9,-1035
1602,18.525913,1,5,10,23,12,-1031
1603,18.53761,2,6,9,24,13,-1044
1604,18.549254,2,6,9,26,10,-1034
1605,18.560904,2,5,9,24,11,-1038
1606,18.572595,1,6,9,22,12,-1042
1607,18.584244,1,6,10,24,8,-1033
1608,18.595891,1,5,10,21,10,-1040
1609,18.60754,2,6,10,29,17,-1035
1610,18.619207,2,6,9,23,9,-1031
1611,18.630872,2,6,9,28,10,-1037
1612,18.645242,2,6,9,23,11,-1031
1613,18.656949,2,7,8,22,11,-1043
1614,18.668608,2,7,9,23,12,-1031
1615,18.680274,2,6,10,27,13,-1035
1616,18.691967,2,5,9,24,11,-1036
1617,18.70351,1,5,9,22,11,-1034
1618,18.715056,1,6,9,22,12,-1029
1619,18.726601,2,7,9,24,11,-1039
1620,18.738164,1,6,9,26,11,-1031
1621,18.749721,2,6,9,22,10,-1040
1622,18.761325,2,6,9,24,9,-1032
1623,18.772874,2,5,9,24,12,-1029
1624,18.784465,2,6,9,24,10,-1043
1625,18.796095,2,6,9,23,12,-1038
1626,18.807745,2,6,9,22,10,-1034
1627,18.819396,2,6,10,24,10,-1037
1628,18.831044,2,5,9,23,15,-1035
1629,18.842717,1,5,9,25,12,-1032
1630,18.854385,2,7,9,22,17,-1036
1631,18.866119,2,6,9,24,11,-1038
1632,18.877767,2,6,9,25,11,-1037
1633,18.889453,2,6,9,24,13,-1042
1634,18.9011,2,6,8,27,11,-1041
1635,18.912661,2,6,9,22,8,-1036
1636,18.924208,2,6,9,22,10,-1039
1637,18.935789,2,6,10,26,12,-1041
1638,18.947339,2,6,10,26,9,-1038
1639,18.95891,1,6,10,23,13,-1038
1640,18.970483,2,6,10,24,9,-1035
1641,18.982066,2,6,10,24,12,-1036
1642,18.993631,2,6,10,28,11,-1036
1643,19.005255,2,5,9,22,13,-1034
1644,19.016915,2,6,10,25,9,-1042
1645,19.028561,2,6,9,23,10,-1034
1646,19.040227,2,5,9,28,10,-1039
1647,19.051884,2,5,9,24,14,-1035
1648,19.063523,2,6,9,27,11,-1035
1649,19.075171,2,6,10,23,10,-1034
1650,19.086842,2,6,9,23,10,-1042
1651,19.098528,2,6,9,27,14,-1036
1652,19.110229,2,6,9,24,10,-1031
1653,19.121825,2,5,10,23,12,-1042
1654,19.13339,1,5,9,24,10,-1044
1655,19.144937,2,6,8,22,10,-1033
1656,19.156482,2,6,9,20,14,-1032
1657,19.168056,2,6,9,26,15,-1039
1658,19.179603,2,5,9,23,10,-1039
1659,19.191182,2,6,9,24,12,-1040
1660,19.202735,1,7,9,24,12,-1037
1661,19.214371,2,6,9,28,12,-1035
1662,19.226029,2,6,10,27,11,-1035
1663,19.237677,1,6,10,26,8,-1035
1664,19.24936,1,5,9,23,14,-1034
1665,19.261035,2,6,9,23,14,-1032
1666,19.272684,1,6,9,23,14,-1036
1667,19.284358,2,6,10,21,13,-1033
1668,19.296004,1,5,10,22,8,-1040
1669,19.307662,2,5,9,26,10,-1035
1670,19.319325,1,6,8,25,11,-1039
1671,19.330883,2,6,10,20,13,-1033
1672,19.342448,2,5,10,26,12,-1033
1673,19.354001,2,6,9,25,13,-1033
1674,19.365576,2,6,10,26,7,-1037
1675,19.377127,2,6,9,25,11,-1042
1676,19.38869,1,6,9,22,14,-1030
1677,19.400237,2,6,10,20,8,-1042
1678,19.411822,1,6,9,24,10,-1039
1679,19.423455,1,5,9,20,13,-1038
1680,19.435122,2,5,9,24,11,-1041
1681,19.446768,2,5,10,23,15,-1044
1682,19.458422,2,5,9,23,14,-1026
1683,19.470113,1,5,9,29,14,-1035
1684,19.481845,1,5,9,25,13,-1031
1685,19.493531,2,6,10,27,8,-1037
1686,19.505214,2,6,10,27,9,-1033
1687,19.516903,1,6,9,24,9,-1031
1688,19.528573,1,6,10,22,12,-1035
1689,19.540228,1,7,9,25,10,-1031
1690,19.551894,2,7,9,20,13,-1033
1691,19.563549,2,6,9,30,14,-1031
1692,19.575194,2,6,9,21,13,-1039
1693,19.586868,1,5,9,20,10,-1035
1694,19.59853,2,6,9,23,11,-1037
1695,19.61019,2,6,9,24,10,-1037
1696,19.621887,2,6,9,24,10,-1041
1697,19.63358,2,6,9,26,8,-1041
1698,19.645144,1,7,9,18,9,-1036
1699,19.656705,2,6,9,27,6,-1040
1700,19.668255,2,6,9,22,17,-1043
1701,19.679814,2,6,9,26,11,-1029
1702,19.69135,2,7,10,21,12,-1035
1703,19.702894,1,6,10,24,10,-1037
1704,19.714443,2,6,9,26,12,-1044
1705,19.72599,1,6,9,24,11,-1043
1706,19.737648,1,6,10,23,12,-1039
1707,19.749328,2,6,9,23,11,-1040
1708,19.761016,2,5,8,23,13,-1034
1709,19.772662,1,6,9,27,11,-1034
1710,19.784317,1,6,9,22,10,-1031
1711,19.795994,1,6,9,19,14,-1035
1712,19.807641,2,5,9,28,14,-1038
1713,19.819292,1,6,10,22,14,-1032
1714,19.830984,2,6,8,22,11,-1028
1715,19.842553,1,6,10,20,7,-1037
1716,19.854208,2,6,10,25,11,-1042
1717,19.865782,2,6,10,28,7,-1029
1718,19.877329,1,6,9,24,12,-1034
1719,19.888866,2,5,8,22,9,-1033
1720,19.900407,2,5,10,28,10,-1045
1721,19.911973,2,5,9,23,10,-1039
1722,19.923554,2,5,10,18,13,-1033
1723,19.935164,1,6,9,23,10,-1039
1724,19.946826,2,5,10,22,8,-1029
1725,19.9585,1,5,9,26,10,-1036
1726,19.970124,2,6,10,20,13,-1037
1727,19.981785,2,6,9,23,13,-1041
1728,19.993423,2,6,10,23,10,-1035
1729,20.005113,2,6,9,27,9,-1031
1730,20.016763,2,5,9,27,15,-1036
1731,20.028417,2,6,9,25,11,-1033
1732,20.040105,1,7,9,20,14,-1039
1733,20.051695,1,6,10,28,9,-1037
1734,20.063252,1,6,10,26,10,-1035
1735,20.074827,1,6,9,23,11,-1040
1736,20.086401,2,5,9,27,11,-1040
1737,20.097959,2,6,9,23,11,-1037
1738,20.109507,2,6,9,26,11,-1038
1739,20.121086,2,6,9,23,10,-1037
1740,20.132652,2,5,9,27,11,-1034
1741,20.14427,1,6,9,24,14,-1033
1742,20.155926,2,6,9,24,12,-1040
1743,20.167596,2,6,9,23,12,-1036
1744,20.179253,2,6,9,26,11,-1041
1745,20.190907,1,6,9,25,11,-1040
1746,20.202565,3,6,9,24,14,-1040
1747,20.214256,2,6,9,24,11,-1036
1748,20.225913,1,5,10,21,10,-1036
1749,20.237615,1,6,9,26,11,-1028
1750,20.249265,2,6,9,25,11,-1038
1751,20.260825,1,6,9,27,13,-1033
1752,20.272373,2,5,10,21,6,-1030
1753,20.283918,2,6,9,24,7,-1034
1754,20.295463,2,5,10,26,10,-1034
1755,20.307048,1,6,10,28,14,-1035
1756,20.319281,2,6,9,27,7,-1040
1757,20.332825,1,3,9,25,11,-1035
1758,20.344777,2,6,9,24,10,-1036
1759,20.356367,2,6,9,22,10,-1036
1760,20.367847,2,6,9,19,11,-1034
1761,20.379338,2,5,9,25,17,-1038
1762,20.390824,2,5,9,23,7,-1032
1763,20.40238,2,6,9,27,11,-1040
1764,20.413886,2,6,9,23,13,-1040
1765,20.425376,2,6,9,25,11,-1034
1766,20.436847,2,6,9,22,11,-1031
1767,20.448409,1,6,9,26,12,-1037
1768,20.460036,2,6,9,22,12,-1038
1769,20.471737,2,6,9,22,9,-1047
1770,20.483405,2,6,8,25,9,-1043
1771,20.495072,2,6,9,20,10,-1038
1772,20.506915,1,7,8,23,8,-1041
1773,20.518591,1,5,9,25,10,-1037
1774,20.530265,2,6,10,22,10,-1035
1775,20.541926,1,6,9,24,11,-1043
1776,20.553661,2,5,9,23,11,-1037
1777,20.56535,2,6,10,25,10,-1039
1778,20.577013,1,6,9,26,9,-1037
1779,20.588669,1,6,10,25,12,-1040
1780,20.600321,2,6,10,23,12,-1035
1781,20.611989,2,6,10,26,13,-1035
1782,20.623646,3,6,9,26,9,-1032
1783,20.635299,2,5,9,21,14,-1042
1784,20.646948,2,6,8,25,10,-1036
1785,20.658652,2,6,10,21,12,-1030
1786,20.670359,1,7,10,22,13,-1037
1787,20.681959,3,5,10,23,13,-1035
1788,20.693504,2,7,9,26,11,-1031
1789,20.705079,2,6,9,25,13,-1034
1790,20.716624,1,6,9,22,13,-1048
1791,20.728168,2,6,9,22,13,-1041
1792,20.739715,1,6,9,23,12,-1032
1793,20.751322,2,6,10,25,12,-1034
1794,20.762886,2,5,9,23,10,-1030
1795,20.774661,2,6,9,23,10,-1036
1796,20.786418,1,5,10,23,9,-1037
1797,20.798129,2,6,10,22,11,-1034
1798,20.809857,2,6,10,23,15,-1032
1799,20.82154,2,5,9,23,10,-1034
1800,20.833222,1,6,9,24,13,-1036
1801,20.844923,1,6,9,26,9,-1039
1802,20.856598,1,6,9,23,14,-1035
1803,20.86826,2,6,9,24,11,-1043
1804,20.879917,2,6,9,26,14,-1039
1805,20.891583,2,6,9,23,12,-1038
1806,20.903242,2,7,9,25,10,-1035
1807,20.914904,2,7,9,23,11,-1041
1808,20.926579,1,6,9,24,12,-1042
1809,20.938263,1,6,9,22,8,-1035
1810,20.949916,1,6,9,23,9,-1034
1811,20.961599,1,5,9,27,9,-1033
1812,20.973303,2,6,9,23,13,-1041
1813,20.985007,2,5,9,22,14,-1033
1814,20.996582,1,6,10,23,12,-1033
1815,21.00814,1,5,10,25,12,-1031
1816,21.019707,1,6,9,24,11,-1032
1817,21.031254,2,6,9,25,13,-1036
1818,21.042826,2,6,9,21,9,-1038
1819,21.054389,2,6,9,25,12,-1034
1820,21.065942,2,6,9,26,16,-1041
1821,21.0775,2,6,9,20,11,-1034
1822,21.089139,1,6,9,27,11,-1034
1823,21.100806,2,6,10,21,12,-1039
1824,21.112539,2,6,10,22,10,-1035
1825,21.124185,2,6,9,26,12,-1037
1826,21.135851,1,5,9,27,8,-1043
1827,21.147523,2,6,9,22,13,-1043
1828,21.159167,2,6,9,23,11,-1040
1829,21.17082,2,6,9,24,7,-1042
1830,21.182516,1,6,8,23,12,-1041
1831,21.194069,2,5,9,22,8,-1031
1832,21.205621,2,6,9,23,11,-1031
1833,21.217193,1,6,9,25,14,-1035
1834,21.228746,2,6,9,23,9,-1029
1835,21.240314,1,5,10,23,14,-1039
1836,21.251878,2,6,9,24,7,-1038
1837,21.263452,1,6,9,23,11,-1030
1838,21.275008,2,6,9,25,10,-1038
1839,21.286597,1,6,9,25,7,-1034
1840,21.298298,1,6,9,26,14,-1033
1841,21.309979,2,6,10,24,13,-1038
1842,21.321609,2,6,10,21,15,-1036
1843,21.333286,2,6,9,24,14,-1035
1844,21.344964,2,7,9,26,11,-1031
1845,21.35664,1,6,9,22,9,-1036
1846,21.368294,1,6,9,29,10,-1033
1847,21.379938,2,6,9,23,13,-1042
1848,21.391599,2,6,9,23,12,-1031
1849,21.403261,2,5,9,24,12,-1036
1850,21.414827,2,6,9,22,13,-1037
1851,21.426448,2,5,9,24,12,-1038
1852,21.438024,2,6,9,25,12,-1035
1853,21.449563,2,6,9,27,9,-1036
1854,21.461083,1,6,9,24,10,-1036
1855,21.472632,1,6,10,23,7,-1039
1856,21.484244,1,6,9,24,8,-1039
1857,21.495833,1,5,9,21,13,-1029
1858,21.507443,1,5,9,29,12,-1035
1859,21.519116,1,7,9,22,10,-1031
1860,21.530921,1,6,9,22,12,-1038
1861,21.542571,1,5,10,25,13,-1035
1862,21.554249,1,6,10,23,9,-1038
1863,21.565912,2,6,9,27,12,-1036
1864,21.577587,2,6,9,28,12,-1037
1865,21.589252,2,7,9,22,10,-1039
1866,21.600903,2,7,8,23,12,-1041
1867,21.612452,2,6,8,21,10,-1037
1868,21.624,1,6,9,24,11,-1038
1869,21.635581,2,6,9,23,15,-1039
1870,21.647133,1,5,10,27,12,-1031
1871,21.658707,1,5,9,23,13,-1040
1872,21.670272,2,6,9,26,13,-1042
1873,21.681807,2,6,9,23,11,-1035
1874,21.693325,1,6,9,22,18,-1038
1875,21.704884,1,6,9,25,14,-1035
1876,21.71651,2,6,9,22,15,-1035
1877,21.728161,1,5,10,22,15,-1039
1878,21.739805,1,5,9,28,8,-1029
1879,21.751452,2,6,9,22,14,-1037
1880,21.763121,2,5,10,23,12,-1037
1881,21.774773,1,5,9,23,10,-1043
1882,21.786534,2,6,10,26,10,-1036
1883,21.798325,2,7,9,20,13,-1036
1884,21.810058,2,6,10,21,9,-1037
1885,21.821747,1,6,9,23,10,-1038
1886,21.833496,2,6,10,25,13,-1043
1887,21.845162,2,7,9,23,13,-1031
1888,21.856828,2,6,10,22,14,-1036
1889,21.868494,2,5,9,25,10,-1032
1890,21.880148,2,6,9,24,12,-1037
1891,21.891789,1,6,10,23,11,-1040
1892,21.903437,1,6,9,23,12,-1035
1893,21.915103,2,6,8,21,10,-1038
1894,21.926648,1,6,9,23,12,-1029
1895,21.938212,2,6,9,22,10,-1039
1896,21.94981,2,5,10,26,9,-1037
1897,21.961327,2,6,9,28,8,-1037
1898,21.972872,2,6,9,21,9,-1036
1899,21.984417,2,6,9,28,6,-1041
1900,21.995962,1,6,10,23,14,-1042
1901,22.007516,1,6,9,25,10,-1032
1902,22.019096,1,6,9,22,10,-1034
1903,22.030746,1,6,9,21,11,-1039
1904,22.042404,2,6,9,24,16,-1033
1905,22.054058,1,5,9,23,9,-1039
1906,22.065733,1,6,9,23,9,-1031
1907,22.077406,2,5,9,22,11,-1035
1908,22.089075,2,6,9,27,11,-1034
1909,22.100727,1,6,9,23,13,-1033
1910,22.112397,1,6,9,27,11,-1038
1911,22.124053,2,6,9,25,11,-1037
1912,22.135737,2,6,9,24,12,-1033
1913,22.147332,2,6,10,25,12,-1039
1914,22.158876,2,6,9,26,8,-1042
1915,22.170426,2,6,9,25,12,-1035
1916,22.181984,2,7,9,25,15,-1036
1917,22.193559,1,6,10,26,14,-1037
1918,22.205083,2,5,9,25,10,-1035
1919,22.216622,2,5,10,20,9,-1032
1920,22.228197,1,5,9,20,17,-1038
1921,22.239816,2,6,9,25,10,-1033
1922,22.251463,2,5,9,21,12,-1039
1923,22.263144,2,6,9,26,8,-1036
1924,22.274796,1,6,9,24,17,-1033
1925,22.286443,2,6,8,23,12,-1036
1926,22.298133,2,5,8,24,12,-1036
1927,22.309794,2,5,9,26,9,-1037
1928,22.32149,2,5,9,25,11,-1039
1929,22.333179,1,6,9,26,11,-1043
1930,22.344854,1,6,9,24,10,-1038
1931,22.356409,1,6,9,24,9,-1040
1932,22.367965,2,6,9,27,16,-1039
1933,22.379508,1,5,9,25,13,-1036
1934,22.391069,2,5,9,28,14,-1038
1935,22.402622,2,6,9,21,11,-1035
1936,22.414231,2,5,9,25,15,-1036
1937,22.425798,2,5,9,25,9,-1039
1938,22.437349,2,6,9,26,10,-1037
1939,22.4491,1,5,9,21,14,-1039
1940,22.460782,2,6,9,27,12,-1032
1941,22.47245,2,6,9,27,7,-1033
1942,22.484131,2,6,9,24,9,-1043
1943,22.495781,2,5,10,28,15,-1038
1944,22.507435,1,6,10,25,13,-1034
1945,22.519103,2,6,9,24,12,-1037
1946,22.530761,2,5,9,25,14,-1035
1947,22.54244,1,6,9,27,14,-1037
1948,22.554195,2,6,9,24,9,-1037
1949,22.565764,2,6,9,24,11,-1033
1950,22.577325,1,5,9,24,12,-1041
1951,22.588873,1,6,10,27,14,-1036
1952,22.600447,2,6,9,22,10,-1041
1953,22.612,2,6,9,24,12,-1039
1954,22.62358,2,6,10,22,12,-1039
1955,22.635129,1,6,9,23,12,-1032
1956,22.64673,2,6,10,23,10,-1038
1957,22.658379,2,5,9,22,13,-1034
1958,22.670037,1,6,9,26,11,-1029
1959,22.68172,1,5,8,27,7,-1033
1960,22.6934,1,6,8,26,8,-1031
1961,22.705075,1,6,9,20,11,-1035
1962,22.716727,1,6,9,20,12,-1039
1963,22.728382,2,6,9,27,13,-1032
1964,22.740031,1,5,9,21,10,-1035
1965,22.751696,2,6,9,25,11,-1036
1966,22.763376,2,6,9,24,13,-1035
1967,22.774982,1,5,8,22,9,-1037
1968,22.786595,1,6,9,26,9,-1039
1969,22.798163,1,6,9,24,8,-1040
1970,22.809729,1,6,9,22,7,-1036
1971,22.821328,1,6,9,27,8,-1039
1972,22.832886,2,6,11,26,12,-1034
1973,22.844495,2,6,10,27,12,-1039
1974,22.856121,2,6,8,24,12,-1039
1975,22.867793,2,6,9,23,10,-1036
1976,22.879445,1,6,9,24,12,-1036
1977,22.8911,2,6,9,21,13,-1039
1978,22.902781,2,6,9,24,13,-1034
1979,22.91443,2,6,9,23,9,-1033
1980,22.92614,1,5,9,27,10,-1039
1981,22.937798,1,7,9,18,11,-1038
1982,22.949467,2,6,9,23,12,-1037
1983,22.96117,1,5,9,24,10,-1035
1984,22.972908,2,6,9,27,9,-1037
1985,22.984477,2,5,10,25,12,-1037
1986,22.996049,2,5,9,24,14,-1043
1987,23.007606,2,6,9,26,8,-1037
1988,23.019166,1,6,10,25,11,-1039
1989,23.030726,1,7,10,21,13,-1034
1990,23.042289,2,7,10,21,9,-1041
1991,23.053821,2,6,9,25,12,-1044
1992,23.065528,3,5,9,22,14,-1039
1993,23.077226,1,5,9,21,12,-1033
1994,23.088909,1,5,9,18,10,-1037
1995,23.10056,2,5,9,24,11,-1035
1996,23.112228,1,6,9,23,9,-1040
1997,23.123879,3,6,9,23,11,-1037
1998,23.135533,2,6,10,18,11,-1038
1999,23.147187,1,7,9,22,8,-1035
