sample,t_s,gyro_x,gyro_y,gyro_z,accel_x,accel_y,accel_z
0,1e-05,1,7,8,1,52,-1028
1,0.011503,0,9,5,-8,48,-1031
2,0.022731,2,7,9,-4,45,-1020
3,0.033922,2,7,9,3,51,-1025
4,0.045107,3,7,9,1,53,-1020
5,0.056299,3,7,9,1,53,-1020
6,0.067531,1,8,7,-2,51,-1020
7,0.078729,2,5,9,-2,53,-1026
8,0.089915,3,6,8,-1,51,-1029
9,0.101104,2,7,8,1,53,-1017
10,0.112288,4,7,7,3,50,-1022
11,0.123474,3,7,8,1,53,-1024
12,0.134662,2,6,8,5,54,-1025
13,0.145846,3,6,8,4,49,-1018
14,0.15703,1,6,8,-2,51,-1024
15,0.168214,3,5,7,-3,54,-1025
16,0.179398,2,6,8,0,52,-1024
17,0.190586,2,5,8,-2,53,-1024
18,0.201775,3,6,8,-8,48,-1021
19,0.212958,1,6,8,-3,51,-1031
20,0.224144,2,5,8,-1,51,-1027
21,0.235339,4,6,9,3,49,-1024
22,0.246552,1,6,9,1,56,-1021
23,0.257738,4,5,8,3,53,-1025
24,0.26892,2,5,8,-1,58,-1021
25,0.280102,2,5,9,-4,53,-1025
26,0.291286,4,4,9,-2,50,-1019
27,0.302473,2,6,9,-3,55,-1026
28,0.313656,3,4,9,0,50,-1026
29,0.324839,2,5,9,0,51,-1025
30,0.336023,2,7,8,2,55,-1025
31,0.347215,3,7,9,0,53,-1018
32,0.358398,2,6,9,1,53,-1022
33,0.369585,2,5,9,-2,53,-1019
34,0.380769,2,6,8,0,51,-1020
35,0.391955,2,5,9,3,52,-1026
36,0.403167,3,6,10,-1,54,-1022
37,0.41435,2,7,8,-5,53,-1022
38,0.42553,3,6,9,-2,52,-1020
39,0.436711,2,5,9,-3,55,-1026
40,0.447894,2,6,9,-3,51,-1023
41,0.459093,2,6,8,-4,47,-1019
42,0.470277,4,6,8,-2,50,-1021
43,0.481462,3,7,8,4,51,-1029
44,0.492646,2,7,8,3,54,-1024
45,0.503828,4,7,9,-5,53,-1025
46,0.514978,3,6,8,0,53,-1016
47,0.526163,3,5,8,1,55,-1026
48,0.537343,2,5,8,0,54,-1023
49,0.548524,1,3,8,0,54,-1021
50,0.559705,2,5,8,2,48,-1027
51,0.570902,3,7,9,1,52,-1030
52,0.582082,3,5,9,1,48,-1022
53,0.593267,2,5,10,3,50,-1023
54,0.604448,1,5,10,2,53,-1025
55,0.615633,2,5,10,0,49,-1019
56,0.626794,2,6,9,0,52,-1019
57,0.637975,2,5,8,-3,50,-1015
58,0.649159,2,4,8,-1,53,-1024
59,0.660352,3,5,8,-4,47,-1021
60,0.67154,2,5,9,3,54,-1022
61,0.682729,3,6,8,1,49,-1027
62,0.693915,3,7,8,4,55,-1017
63,0.7051,2,7,8,-1,55,-1021
64,0.716283,3,6,9,1,54,-1018
65,0.727471,2,6,8,-2,53,-1022
66,0.738658,3,6,9,-5,53,-1032
67,0.74984,3,6,8,0,52,-1023
68,0.761039,3,6,9,-3,52,-1023
69,0.772223,2,7,9,1,48,-1021
70,0.783407,3,7,9,4,52,-1020
71,0.794604,3,6,9,-5,54,-1018
72,0.805785,3,6,9,-2,52,-1017
73,0.816964,2,7,8,0,52,-1017
74,0.828146,2,6,9,-1,57,-1018
75,0.839338,2,6,9,-1,55,-1025
76,0.850529,3,6,8,-2,54,-1026
77,0.861717,2,7,9,-3,55,-1022
78,0.872898,3,6,9,-1,57,-1019
79,0.884078,3,6,8,-3,51,-1023
80,0.895268,3,7,8,-3,55,-1027
81,0.906424,3,7,8,-1,51,-1022
82,0.91761,2,7,9,0,52,-1024
83,0.928792,2,7,9,2,49,-1021
84,0.939979,3,7,9,1,52,-1029
85,0.951162,2,8,9,-3,49,-1020
86,0.962356,1,6,10,3,49,-1026
87,0.973541,3,6,9,-1,56,-1015
88,0.984725,2,7,8,-1,53,-1023
89,0.995909,3,6,8,-1,51,-1023
90,1.007097,3,7,9,0,52,-1027
91,1.018278,3,7,9,-2,53,-1021
92,1.029463,3,7,9,-2,52,-1021
93,1.040648,3,7,9,1,49,-1022
94,1.051831,2,7,9,0,53,-1020
95,1.062975,3,7,8,-3,51,-1027
96,1.074159,2,6,8,-2,52,-1017
97,1.085338,2,6,8,-2,52,-1022
98,1.096518,3,5,8,0,50,-1023
99,1.107699,3,6,9,0,53,-1030
100,1.118893,2,6,9,1,51,-1021
101,1.130075,2,5,9,0,51,-1023
102,1.14126,2,6,9,-2,53,-1016
103,1.152441,2,5,8,-3,54,-1020
104,1.16363,2,7,10,1,54,-1023
105,1.174793,3,6,9,0,54,-1025
106,1.185977,3,6,9,1,55,-1025
107,1.197159,2,5,8,0,50,-1021
108,1.20836,2,5,8,0,52,-1025
109,1.219553,3,7,9,-3,49,-1020
110,1.230741,2,7,9,-2,53,-1024
111,1.24193,2,6,8,1,50,-1023
112,1.253116,3,6,9,-2,53,-1023
113,1.264304,2,6,9,0,55,-1023
114,1.275496,3,5,9,0,55,-1020
115,1.286688,2,5,9,0,51,-1026
116,1.297874,2,5,8,-1,52,-1025
117,1.309059,2,5,8,0,54,-1020
118,1.320246,2,5,8,0,57,-1027
119,1.331434,3,6,8,2,53,-1023
120,1.342608,2,6,7,-1,51,-1024
121,1.35379,2,5,8,1,50,-1023
122,1.364967,2,6,9,0,47,-1015
123,1.37615,2,7,9,-1,52,-1021
124,1.387342,3,6,9,0,52,-1020
125,1.398531,2,8,8,-2,54,-1020
126,1.409712,2,7,8,-2,54,-1019
127,1.420893,3,7,9,-3,54,-1020
128,1.432076,3,7,9,0,52,-1020
129,1.44328,3,6,9,-5,49,-1026
130,1.454424,2,5,9,0,54,-1020
131,1.465619,2,5,9,-4,52,-1020
132,1.476825,3,6,9,-2,53,-1022
133,1.488005,3,6,9,-2,48,-1026
134,1.499161,3,7,9,0,49,-1020
135,1.510341,3,6,8,-4,53,-1021
136,1.521523,3,6,9,0,50,-1023
137,1.532705,3,7,9,-3,55,-1027
138,1.543888,3,6,8,2,48,-1019
139,1.555084,2,7,8,-3,51,-1021
140,1.566267,3,6,8,0,53,-1021
141,1.577453,4,6,8,3,47,-1021
142,1.588633,3,6,8,4,54,-1028
143,1.599821,3,5,8,1,54,-1019
144,1.610977,2,6,8,-2,50,-1029
145,1.622158,3,6,9,1,49,-1024
146,1.633341,3,6,9,0,52,-1026
147,1.644521,3,6,8,-3,56,-1028
148,1.655703,2,5,8,2,51,-1020
149,1.666905,3,5,8,-2,53,-1021
150,1.678087,3,7,8,3,54,-1024
151,1.689266,4,6,8,1,51,-1016
152,1.700445,1,5,8,-4,53,-1027
153,1.711627,2,5,9,-4,53,-1018
154,1.722792,2,6,9,-4,52,-1027
155,1.733972,3,6,9,0,50,-1024
156,1.745153,2,6,9,4,52,-1024
157,1.756332,2,6,9,3,56,-1026
158,1.767526,1,4,8,0,52,-1022
159,1.778717,1,4,9,-1,56,-1030
160,1.789898,2,4,9,2,51,-1028
161,1.801079,2,5,9,0,51,-1024
162,1.812261,2,5,9,3,53,-1022
163,1.823455,3,5,9,0,56,-1025
164,1.834621,1,5,9,-2,51,-1024
165,1.845813,2,6,9,0,50,-1026
166,1.856993,2,6,9,1,58,-1023
167,1.868182,3,8,9,4,54,-1019
168,1.879349,3,6,9,2,54,-1021
169,1.890556,2,6,9,0,54,-1022
170,1.901743,3,6,9,-6,55,-1018
171,1.912925,2,7,9,-3,53,-1022
172,1.924113,2,8,9,-3,54,-1023
173,1.9353,3,7,9,-4,50,-1020
174,1.946486,2,7,9,0,54,-1032
175,1.957672,3,6,8,1,53,-1018
176,1.968851,3,8,9,2,55,-1027
177,1.980028,3,7,8,1,56,-1026
178,1.991217,2,6,8,0,49,-1022
179,2.002401,2,6,9,-1,54,-1020
180,2.013586,2,6,8,-3,55,-1026
181,2.024768,4,4,8,-2,55,-1023
182,2.035951,3,5,9,2,52,-1028
183,2.047141,2,4,8,0,52,-1018
184,2.058332,3,5,9,1,52,-1026
185,2.069604,4,7,9,-2,50,-1021
186,2.080894,3,5,9,1,56,-1027
187,2.092087,2,7,9,0,53,-1025
188,2.103276,2,7,9,0,52,-1024
189,2.114423,3,6,9,-1,53,-1022
190,2.125609,2,6,9,-4,49,-1024
191,2.136796,2,6,9,1,52,-1018
192,2.147982,3,7,9,-4,55,-1023
193,2.159162,3,6,10,-1,52,-1020
194,2.170345,3,7,9,-2,49,-1022
195,2.181526,3,7,8,2,53,-1024
196,2.192733,3,6,8,1,56,-1015
197,2.203926,2,6,8,-3,53,-1019
198,2.215119,3,5,9,3,56,-1023
199,2.226303,3,5,8,0,55,-1021
200,2.237488,3,5,9,-1,51,-1025
201,2.248677,3,6,8,0,51,-1020
202,2.259863,2,6,9,0,55,-1025
203,2.271048,2,6,9,1,49,-1012
204,2.282233,4,6,8,-1,53,-1030
205,2.293425,3,6,9,-1,52,-1019
206,2.304612,3,6,9,0,52,-1027
207,2.315809,2,6,9,1,51,-1022
208,2.326976,2,7,8,4,56,-1026
209,2.338155,2,5,9,-1,52,-1022
210,2.349338,2,5,9,-3,50,-1020
211,2.360518,2,5,9,0,54,-1021
212,2.3717,2,6,8,-2,51,-1021
213,2.382906,3,5,9,0,53,-1022
214,2.394088,2,6,8,0,51,-1025
215,2.40527,2,5,8,1,52,-1024
216,2.416451,1,4,9,-1,57,-1022
217,2.42763,2,6,9,-3,53,-1024
218,2.438793,2,6,9,-1,51,-1025
219,2.449982,3,5,9,1,51,-1022
220,2.461167,3,5,9,-5,50,-1020
221,2.472351,2,5,9,-6,52,-1029
222,2.483532,2,5,9,-4,53,-1024
223,2.494721,3,6,8,2,52,-1024
224,2.505911,2,5,8,0,51,-1018
225,2.517096,2,5,9,-4,49,-1029
226,2.528281,2,5,9,-3,52,-1026
227,2.539468,2,6,9,-3,51,-1028
228,2.550668,3,5,8,1,50,-1012
229,2.561863,2,7,9,-1,53,-1020
230,2.573051,4,5,8,-2,51,-1026
231,2.584239,2,5,9,3,52,-1020
232,2.595426,2,6,8,0,53,-1021
233,2.606609,2,6,9,0,51,-1023
234,2.617792,1,5,10,-2,52,-1024
235,2.628974,3,5,9,0,50,-1023
236,2.640158,3,7,9,0,51,-1014
237,2.651344,1,6,8,-2,57,-1010
238,2.662534,3,7,8,3,51,-1020
239,2.673717,1,7,9,3,49,-1019
240,2.684897,2,6,9,0,50,-1025
241,2.696078,4,6,9,-2,53,-1025
242,2.707271,2,6,8,-1,54,-1024
243,2.718423,4,7,8,-1,50,-1020
244,2.729621,0,7,9,2,54,-1022
245,2.740802,0,6,9,-3,54,-1029
246,2.751991,3,6,9,-2,48,-1024
247,2.763166,2,5,9,2,57,-1025
248,2.774357,4,6,9,2,50,-1017
249,2.785546,2,6,10,1,56,-1018
250,2.796731,1,6,9,2,54,-1024
251,2.80792,3,5,9,0,54,-1017
252,2.81911,1,5,8,-1,57,-1020
253,2.830293,2,4,9,0,55,-1021
254,2.841483,2,4,8,1,44,-1022
255,2.852667,2,5,8,-1,48,-1017
256,2.863852,3,6,8,0,50,-1016
257,2.875038,2,4,9,-4,49,-1022
258,2.886222,2,4,9,0,52,-1017
259,2.897404,2,6,9,-5,56,-1019
260,2.908599,2,7,9,-5,53,-1022
261,2.919784,3,6,9,2,54,-1018
262,2.930973,1,5,8,1,56,-1029
263,2.942158,3,5,9,0,50,-1026
264,2.95334,3,5,9,-2,50,-1022
265,2.964526,1,6,9,0,55,-1018
266,2.975709,3,6,9,0,53,-1024
267,2.986903,1,5,10,-1,53,-1023
268,2.998087,2,5,9,1,49,-1021
269,3.00927,2,5,8,2,49,-1024
270,3.020464,2,6,9,1,52,-1029
271,3.031647,3,5,9,1,54,-1020
272,3.042795,2,5,9,-3,52,-1020
273,3.053987,2,5,9,0,53,-1025
274,3.065172,3,6,8,0,52,-1024
275,3.076363,2,5,9,0,51,-1020
276,3.08755,3,7,9,-2,52,-1021
277,3.098738,2,7,8,-2,54,-1023
278,3.10992,3,7,9,0,49,-1022
279,3.121104,4,6,8,-1,57,-1020
280,3.132287,2,6,8,0,57,-1015
281,3.143475,3,7,8,1,56,-1019
282,3.154662,3,7,8,-3,54,-1022
283,3.165844,3,6,8,-4,54,-1024
284,3.177024,2,6,9,0,50,-1023
285,3.188207,3,6,8,-4,54,-1023
286,3.19939,2,5,8,0,52,-1021
287,3.210575,2,5,9,-1,52,-1021
288,3.221755,2,5,8,-3,49,-1020
289,3.232938,3,6,9,2,51,-1019
290,3.244118,2,7,9,0,52,-1024
291,3.255314,2,8,8,0,56,-1020
292,3.266476,1,5,9,-1,53,-1019
293,3.277673,2,5,8,2,55,-1020
294,3.28886,4,5,9,-4,52,-1019
295,3.300053,2,7,8,-3,54,-1029
296,3.311289,2,5,9,-5,53,-1021
297,3.322484,2,5,9,-7,52,-1020
298,3.333669,2,6,8,-1,52,-1025
299,3.34485,3,6,9,-1,54,-1037
300,3.356036,3,5,7,-3,51,-1023
301,3.367225,3,6,8,0,50,-1024
302,3.378422,3,6,9,-6,50,-1022
303,3.38961,3,6,8,-1,47,-1030
304,3.400793,2,6,8,0,48,-1021
305,3.411982,3,7,9,0,50,-1020
306,3.423163,2,7,9,-2,52,-1018
307,3.434351,2,7,9,2,49,-1022
308,3.445534,3,7,9,0,53,-1023
309,3.45674,3,7,9,-3,52,-1021
310,3.467926,3,5,9,1,48,-1017
311,3.47911,1,5,9,0,51,-1024
312,3.490301,1,6,9,4,54,-1020
313,3.501495,2,6,8,1,56,-1027
314,3.512679,3,6,8,-1,51,-1022
315,3.523895,1,5,9,-1,50,-1020
316,3.535092,3,6,9,-1,50,-1018
317,3.546272,2,6,9,3,51,-1025
318,3.557453,3,6,8,0,52,-1025
319,3.568634,2,5,9,4,53,-1018
320,3.579815,2,5,9,0,54,-1021
321,3.590985,3,6,8,1,51,-1023
322,3.602173,3,6,8,3,56,-1026
323,3.613381,2,7,9,13,48,-1023
324,3.624564,2,5,8,0,48,-1020
325,3.635745,2,5,9,-4,55,-1020
326,3.646934,2,6,9,-2,51,-1020
327,3.658115,2,6,9,0,50,-1022
328,3.669297,2,6,9,-1,52,-1022
329,3.680485,2,7,9,2,57,-1023
330,3.691674,2,6,8,0,53,-1028
331,3.70286,3,5,8,2,54,-1018
332,3.714045,2,5,8,0,54,-1028
333,3.725237,2,5,10,0,54,-1022
334,3.736422,2,5,10,-2,54,-1022
335,3.747611,2,5,8,0,52,-1027
336,3.758791,2,5,9,0,52,-1021
337,3.769979,2,6,9,1,53,-1026
338,3.781163,2,5,9,-1,53,-1025
339,3.79235,2,5,9,-4,52,-1024
340,3.803532,3,6,9,-2,52,-1017
341,3.814727,2,6,9,-1,55,-1024
342,3.825909,1,5,9,3,52,-1023
343,3.837092,2,5,9,-2,56,-1017
344,3.848273,2,5,9,-2,57,-1028
345,3.859461,2,7,10,1,58,-1025
346,3.870609,2,6,9,-3,56,-1023
347,3.881794,1,6,9,0,52,-1024
348,3.892979,2,7,9,1,52,-1027
349,3.90417,2,7,9,0,48,-1019
350,3.915352,3,7,9,0,55,-1025
351,3.926541,2,6,8,1,55,-1027
352,3.937733,2,5,9,-2,54,-1024
353,3.948919,2,5,8,2,53,-1025
354,3.960112,2,6,8,2,47,-1018
355,3.971306,2,5,9,-4,48,-1012
356,3.98249,2,6,8,2,52,-1029
357,3.993672,4,6,8,2,54,-1021
358,4.004856,2,7,8,-2,56,-1029
359,4.016044,3,6,9,0,50,-1021
360,4.027235,3,6,9,3,55,-1031
361,4.038424,2,6,8,-1,53,-1021
362,4.049611,2,7,8,1,52,-1025
363,4.060802,3,7,8,0,52,-1032
364,4.07199,3,7,8,-1,54,-1021
365,4.08316,2,6,9,0,56,-1026
366,4.094346,3,6,9,-2,54,-1021
367,4.105539,3,6,9,2,55,-1021
368,4.116723,3,7,9,0,50,-1016
369,4.127906,3,7,9,2,48,-1019
370,4.139095,2,6,8,-3,55,-1023
371,4.150278,3,7,8,-2,53,-1029
372,4.161461,2,7,8,-2,54,-1024
373,4.172641,2,6,8,0,50,-1024
374,4.183822,2,7,8,-2,51,-1020
375,4.194979,2,6,9,-1,53,-1023
376,4.206159,2,6,8,1,49,-1026
377,4.217346,2,5,8,0,57,-1021
378,4.228528,2,5,8,-1,49,-1015
379,4.239716,2,6,9,-2,50,-1024
380,4.250904,2,5,9,-3,51,-1026
381,4.262089,2,5,9,1,53,-1018
382,4.273276,3,6,8,0,56,-1029
383,4.284459,3,5,9,-1,50,-1019
384,4.295642,2,4,9,-2,58,-1016
385,4.306792,2,5,9,3,56,-1017
386,4.317977,2,5,9,1,51,-1024
387,4.329177,2,5,9,0,53,-1024
388,4.340357,3,5,8,0,51,-1020
389,4.351543,3,5,8,2,53,-1023
390,4.362728,2,5,8,1,52,-1025
391,4.373912,2,5,7,1,52,-1022
392,4.385094,3,5,8,1,48,-1019
393,4.396283,2,6,9,-1,48,-1027
394,4.407467,3,5,9,-5,50,-1022
395,4.418653,2,6,8,-2,50,-1027
396,4.429845,1,4,8,-3,54,-1014
397,4.441027,2,5,9,3,55,-1022
398,4.45221,3,6,9,0,52,-1027
399,4.463396,3,6,8,2,55,-1025
400,4.474578,2,5,9,0,53,-1021
401,4.485766,2,6,9,-3,53,-1024
402,4.496945,2,6,8,3,47,-1020
403,4.508127,2,6,8,0,51,-1021
404,4.519312,2,6,9,-2,50,-1017
405,4.530514,2,7,8,3,54,-1026
406,4.542198,2,6,9,-5,51,-1020
407,4.553848,3,6,9,1,52,-1020
408,4.5655,2,6,9,1,54,-1019
409,4.57718,2,6,9,-6,52,-1019
410,4.588838,2,6,9,2,53,-1025
411,4.600482,2,5,8,1,49,-1024
412,4.612136,2,5,9,-1,52,-1020
413,4.623827,2,5,8,-2,52,-1031
414,4.635498,2,5,8,0,51,-1023
415,4.647077,1,7,9,-3,50,-1023
416,4.658642,2,6,8,-1,55,-1025
417,4.670183,2,7,9,-2,52,-1024
418,4.681735,2,7,9,1,55,-1022
419,4.69331,3,6,9,2,56,-1016
420,4.704855,2,5,9,0,56,-1021
421,4.716404,2,6,9,-1,51,-1020
422,4.728021,3,6,8,2,56,-1022
423,4.739685,2,7,9,0,53,-1020
424,4.751367,3,6,8,0,52,-1024
425,4.763022,3,5,9,1,51,-1020
426,4.774727,2,5,8,-2,53,-1020
427,4.786396,3,6,9,2,53,-1022
428,4.798052,2,5,9,-4,53,-1021
429,4.809705,2,6,9,1,51,-1032
430,4.821357,2,6,9,-2,56,-1022
431,4.833016,2,5,9,-3,55,-1014
432,4.844694,2,6,8,-4,50,-1023
433,4.856259,2,6,8,0,54,-1026
434,4.867807,2,5,8,-2,54,-1023
435,4.879371,3,6,7,-3,51,-1027
436,4.890933,3,6,9,1,52,-1024
437,4.902522,3,6,9,1,54,-1020
438,4.914092,2,6,9,-1,54,-1023
439,4.925655,2,6,9,0,53,-1022
440,4.937209,1,6,9,0,54,-1020
441,4.948831,2,5,9,-2,55,-1023
442,4.960477,2,6,9,-3,49,-1020
443,4.97213,3,6,9,2,48,-1020
444,4.983802,2,6,8,-4,50,-1014
445,4.995479,2,7,8,1,53,-1026
446,5.007156,3,6,9,2,55,-1018
447,5.018845,2,6,8,-1,57,-1023
448,5.030472,3,7,8,-1,54,-1020
449,5.042135,2,6,9,3,51,-1017
450,5.053808,3,7,9,0,55,-1024
451,5.065401,3,6,9,0,51,-1024
452,5.076964,3,6,9,1,54,-1027
453,5.088508,3,6,9,-2,49,-1024
454,5.100045,2,6,8,-3,56,-1019
455,5.111593,3,6,9,1,53,-1025
456,5.123167,2,6,8,0,54,-1022
457,5.134703,3,5,9,-1,54,-1021
458,5.146264,2,6,9,-3,54,-1020
459,5.157878,2,6,8,-3,50,-1025
460,5.169545,3,6,9,-4,54,-1025
461,5.181196,2,6,9,1,51,-1017
462,5.192844,2,5,9,-1,53,-1022
463,5.2045,3,5,8,-4,53,-1021
464,5.216161,3,6,9,0,53,-1024
465,5.227812,3,6,9,-2,51,-1024
466,5.239503,3,6,9,-2,56,-1034
467,5.25117,2,6,8,-3,48,-1018
468,5.262843,2,5,9,-2,49,-1026
469,5.27447,3,6,9,3,53,-1019
470,5.286111,1,6,9,0,53,-1023
471,5.297754,2,6,9,-1,50,-1021
472,5.309425,2,5,9,-3,54,-1025
473,5.321073,3,6,9,4,54,-1019
474,5.332722,2,6,8,0,50,-1020
475,5.34439,3,6,9,-2,50,-1027
476,5.356052,3,5,9,4,51,-1021
477,5.367708,2,6,9,0,51,-1027
478,5.379278,2,5,9,0,53,-1012
479,5.390866,3,6,8,-1,53,-1023
480,5.402439,2,6,9,2,53,-1024
481,5.414032,3,6,9,3,52,-1025
482,5.425601,3,6,8,0,55,-1022
483,5.437156,2,6,8,-1,51,-1020
484,5.448694,2,5,8,2,54,-1025
485,5.460246,3,6,9,0,51,-1020
486,5.471931,2,6,8,0,53,-1022
487,5.48362,2,6,8,0,53,-1028
488,5.495249,2,6,8,1,52,-1028
489,5.506922,2,6,9,0,58,-1024
490,5.518593,3,6,9,-1,52,-1031
491,5.530241,2,6,8,0,53,-1023
492,5.541916,3,6,9,-2,52,-1020
493,5.553561,2,6,8,0,53,-1026
494,5.565212,2,7,8,-3,54,-1018
495,5.576795,2,6,10,0,54,-1027
496,5.588373,2,7,9,0,51,-1025
497,5.599924,2,6,9,0,54,-1023
498,5.611499,2,5,9,0,55,-1026
499,5.623063,3,6,9,-1,50,-1020
500,5.634634,1,5,9,1,56,-1025
501,5.646211,3,5,9,-1,50,-1023
502,5.657759,3,6,9,-5,54,-1027
503,5.669348,3,6,9,3,55,-1022
504,5.680969,2,6,8,-5,53,-1020
505,5.692635,2,5,9,2,49,-1024
506,5.704292,2,6,9,0,51,-1020
507,5.715944,2,5,8,-1,54,-1028
508,5.727639,3,6,9,1,50,-1022
509,5.739299,2,6,9,-4,55,-1020
510,5.750973,3,5,8,0,49,-1012
511,5.762644,3,5,9,0,51,-1020
512,5.774305,2,5,8,-2,49,-1028
513,5.785962,3,7,9,0,52,-1027
514,5.797645,2,6,9,0,55,-1023
515,5.809464,3,6,9,1,55,-1022
516,5.821112,3,6,9,0,52,-1023
517,5.83276,2,7,9,-1,53,-1019
518,5.844429,2,6,8,4,55,-1018
519,5.856072,3,5,8,0,53,-1022
520,5.867752,3,6,8,-3,54,-1021
521,5.879532,3,6,8,-5,52,-1018
522,5.891316,2,6,8,-1,54,-1021
523,5.902917,2,6,8,-3,53,-1028
524,5.914462,2,6,9,0,50,-1019
525,5.926014,2,6,8,-3,51,-1028
526,5.937593,2,6,8,-5,48,-1022
527,5.949145,2,6,9,-5,55,-1024
528,5.960728,2,5,9,-3,56,-1019
529,5.972268,3,6,9,0,54,-1014
530,5.98383,2,6,9,2,55,-1016
531,5.995499,2,5,9,-2,53,-1031
532,6.007174,2,5,9,-2,55,-1022
533,6.018867,2,6,9,1,51,-1025
534,6.030537,3,7,9,0,54,-1022
535,6.042188,3,5,9,-1,53,-1030
536,6.053836,2,6,8,0,54,-1025
537,6.065479,2,6,9,0,52,-1029
538,6.077126,2,6,8,0,54,-1025
539,6.088768,2,5,9,0,48,-1017
540,6.100321,2,7,8,0,54,-1023
541,6.111893,2,6,9,-1,52,-1022
542,6.123424,3,6,8,0,49,-1027
543,6.13494,3,5,9,0,51,-1020
544,6.14646,3,6,9,0,52,-1021
545,6.158003,2,6,9,1,51,-1019
546,6.16957,3,6,10,3,52,-1021
547,6.18112,3,5,8,1,57,-1022
548,6.192677,2,5,9,0,52,-1027
549,6.204296,2,6,8,0,52,-1016
550,6.215946,2,6,9,-2,54,-1024
551,6.227636,2,5,9,0,49,-1024
552,6.239298,2,5,9,0,51,-1026
553,6.250975,2,6,9,-2,52,-1028
554,6.262652,2,5,9,-2,52,-1019
555,6.274297,2,6,9,-3,51,-1015
556,6.285946,2,6,9,-1,53,-1027
557,6.297604,2,6,9,1,50,-1025
558,6.309273,2,5,8,-2,53,-1015
559,6.320862,3,6,9,-2,54,-1016
560,6.33241,3,6,9,0,47,-1027
561,6.343961,2,6,9,-1,49,-1015
562,6.355546,2,6,10,1,53,-1023
563,6.367118,2,6,9,0,49,-1025
564,6.378696,2,6,9,-3,57,-1025
565,6.390251,2,7,8,2,53,-1026
566,6.40185,2,7,9,1,55,-1024
567,6.413473,2,6,9,-1,54,-1019
568,6.425147,3,6,8,-1,50,-1026
569,6.436819,2,6,9,-2,52,-1022
570,6.448462,3,6,9,0,55,-1020
571,6.460116,3,6,9,2,50,-1022
572,6.471793,2,6,8,-6,51,-1026
573,6.483474,3,6,10,-2,52,-1024
574,6.495161,2,6,9,0,50,-1024
575,6.506861,2,6,8,2,53,-1023
576,6.518527,2,6,9,0,56,-1021
577,6.530112,3,5,9,1,52,-1022
578,6.541687,2,6,9,-2,50,-1021
579,6.55325,2,6,9,-1,53,-1025
580,6.564792,2,6,8,-5,50,-1027
581,6.576373,2,6,8,0,54,-1024
582,6.587922,2,6,9,1,52,-1021
583,6.599496,2,7,9,0,49,-1022
584,6.611072,3,6,9,-2,50,-1023
585,6.622731,2,6,9,-1,53,-1019
586,6.634381,2,6,7,0,50,-1020
587,6.646042,4,6,9,-1,50,-1021
588,6.657693,3,5,9,0,51,-1018
589,6.669336,2,5,9,-3,54,-1019
590,6.680998,2,6,8,-1,51,-1022
591,6.692663,2,5,8,-3,56,-1022
592,6.704304,1,6,9,0,51,-1024
593,6.715979,3,7,8,-2,50,-1026
594,6.727644,2,6,8,-3,48,-1026
595,6.739183,3,6,10,-5,51,-1023
596,6.7507,3,7,9,0,55,-1019
597,6.762246,2,6,8,5,52,-1018
598,6.773792,2,7,8,-4,51,-1019
599,6.785361,1,6,9,-2,53,-1021
600,6.796915,2,6,9,4,52,-1019
601,6.808486,2,5,9,1,53,-1016
602,6.820047,2,6,9,-1,51,-1013
603,6.831676,2,6,8,-2,54,-1023
604,6.843384,3,7,9,0,51,-1030
605,6.855059,3,5,9,-1,52,-1023
606,6.866748,3,6,9,1,53,-1026
607,6.878418,3,6,8,0,54,-1023
608,6.890102,2,6,10,-2,51,-1019
609,6.901789,2,6,9,-3,52,-1021
610,6.913453,2,7,9,0,52,-1017
611,6.925145,2,7,9,2,52,-1021
612,6.936801,2,7,8,1,49,-1026
613,6.948371,2,7,9,0,56,-1021
614,6.959921,2,7,8,1,56,-1023
615,6.971494,2,5,9,-1,51,-1023
616,6.983059,2,6,9,0,54,-1026
617,6.994644,1,6,8,2,53,-1024
618,7.006239,2,7,9,-3,53,-1022
619,7.017795,3,6,8,-2,52,-1017
620,7.029375,1,6,8,0,49,-1025
621,7.041025,2,6,8,0,49,-1022
622,7.052684,2,7,9,0,53,-1015
623,7.064325,2,6,8,-2,52,-1027
624,7.076023,3,6,9,0,52,-1019
625,7.087681,2,5,9,-1,49,-1028
626,7.099358,2,6,8,1,54,-1024
627,7.110987,3,6,8,3,54,-1018
628,7.122657,3,6,8,0,55,-1020
629,7.134319,2,6,9,2,52,-1017
630,7.145981,3,6,9,-1,52,-1019
631,7.157541,1,7,9,0,56,-1022
632,7.16911,2,6,9,-1,51,-1027
633,7.180661,2,6,9,1,52,-1025
634,7.192209,2,6,9,0,52,-1019
635,7.203783,3,5,9,0,51,-1021
636,7.215364,3,6,8,1,49,-1023
637,7.226949,3,6,9,-3,54,-1024
638,7.238517,2,6,9,0,54,-1024
639,7.250174,2,6,9,0,56,-1020
640,7.261836,2,6,9,0,52,-1023
641,7.273491,2,6,9,2,56,-1023
642,7.285186,2,6,9,-1,52,-1018
643,7.296846,3,6,8,0,56,-1017
644,7.3085,2,6,9,-2,53,-1029
645,7.320172,2,6,8,-4,50,-1023
646,7.331842,2,7,8,-3,50,-1020
647,7.343519,2,6,10,-4,53,-1018
648,7.355184,2,6,8,-1,52,-1028
649,7.3667,3,6,9,-1,52,-1025
650,7.378244,2,6,10,-1,51,-1023
651,7.389807,3,6,9,0,53,-1022
652,7.401364,2,6,8,-3,53,-1024
653,7.412908,3,6,8,-2,52,-1018
654,7.424456,3,7,8,0,54,-1019
655,7.436001,2,6,9,1,54,-1022
656,7.447568,2,6,9,-1,53,-1024
657,7.459214,2,6,9,0,52,-1022
658,7.470869,2,6,9,1,47,-1023
659,7.482536,2,6,9,-1,51,-1023
660,7.49419,2,6,9,-3,52,-1016
661,7.505831,3,6,9,0,54,-1023
662,7.517473,3,6,9,1,53,-1023
663,7.529147,2,6,8,-2,60,-1018
664,7.540789,2,6,8,1,52,-1024
665,7.55245,2,6,9,0,50,-1021
666,7.564104,2,6,9,3,55,-1023
667,7.575696,3,6,9,0,50,-1019
668,7.58726,1,6,7,1,56,-1024
669,7.598848,2,6,8,-2,52,-1017
670,7.610397,2,6,9,-5,57,-1022
671,7.621988,3,6,9,-1,56,-1023
672,7.633538,2,6,8,-3,54,-1027
673,7.645106,2,5,9,-1,50,-1022
674,7.656688,3,6,9,4,52,-1019
675,7.668305,2,6,8,0,49,-1020
676,7.679961,2,6,9,-2,53,-1019
677,7.691652,3,6,9,0,50,-1017
678,7.703315,2,6,10,-1,55,-1021
679,7.714999,3,6,9,-2,50,-1024
680,7.726658,2,6,9,0,54,-1023
681,7.738301,2,5,9,-2,54,-1016
682,7.749954,3,6,8,0,54,-1017
683,7.761638,2,6,8,0,50,-1027
684,7.773288,3,6,8,2,50,-1019
685,7.784859,2,6,9,-2,55,-1021
686,7.796412,2,7,9,0,54,-1014
687,7.807975,2,7,9,0,51,-1019
688,7.819539,2,6,9,2,50,-1025
689,7.8311,2,6,8,2,53,-1025
690,7.842644,2,5,9,-1,49,-1025
691,7.854191,2,6,9,0,52,-1018
692,7.865743,2,7,8,-1,52,-1022
693,7.87744,2,7,8,0,54,-1017
694,7.889112,2,7,9,0,54,-1023
695,7.900771,3,7,9,2,53,-1022
696,7.912424,2,6,9,0,53,-1022
697,7.924066,2,6,9,0,50,-1022
698,7.935763,2,5,8,-2,51,-1023
699,7.94746,2,5,9,4,53,-1029
700,7.959151,3,6,9,-2,55,-1022
701,7.970852,2,6,9,-2,49,-1022
702,7.982523,2,6,8,1,49,-1021
703,7.994177,2,6,8,1,50,-1023
704,8.005833,2,6,9,-2,52,-1026
705,8.017484,2,7,8,0,50,-1024
706,8.029169,2,6,8,1,53,-1024
707,8.040815,2,6,9,1,55,-1020
708,8.052498,2,6,9,0,54,-1023
709,8.064235,2,6,9,-1,51,-1023
710,8.07609,2,6,9,-1,46,-1019
711,8.087667,2,6,8,0,54,-1028
712,8.099238,3,6,9,-2,49,-1019
713,8.110781,3,5,9,0,52,-1020
714,8.122334,2,6,9,0,52,-1023
715,8.133881,2,6,9,1,54,-1027
716,8.145427,3,6,9,-2,53,-1024
717,8.156974,2,6,9,1,51,-1023
718,8.168524,2,6,9,-1,55,-1020
719,8.180099,2,6,9,0,53,-1016
720,8.191768,2,6,9,1,52,-1021
721,8.203427,2,6,9,1,53,-1021
722,8.215129,3,6,9,-1,51,-1015
723,8.226785,2,6,9,-1,51,-1025
724,8.23846,2,6,9,-1,51,-1025
725,8.250134,3,5,9,2,54,-1021
726,8.261782,2,6,8,-1,53,-1021
727,8.273441,2,6,9,0,51,-1019
728,8.285118,1,6,8,-2,56,-1026
729,8.296774,2,7,9,-2,50,-1022
730,8.308424,2,6,9,-1,48,-1024
731,8.320076,2,6,7,2,52,-1024
732,8.331761,3,5,9,-1,52,-1024
733,8.34342,2,6,8,-1,51,-1021
734,8.355116,3,6,8,-2,51,-1022
735,8.366777,2,6,8,0,55,-1022
736,8.378456,2,6,8,0,51,-1020
737,8.389999,2,6,9,0,49,-1024
738,8.401559,2,6,9,0,50,-1020
739,8.41311,3,5,9,0,52,-1024
740,8.424652,2,6,9,1,55,-1020
741,8.436199,2,6,8,-1,48,-1030
742,8.447742,2,6,9,0,50,-1025
743,8.459323,2,5,9,-3,50,-1020
744,8.470874,2,6,9,0,48,-1020
745,8.482502,3,6,9,2,57,-1021
746,8.494139,2,5,9,1,54,-1022
747,8.50581,2,6,8,-4,48,-1027
748,8.517461,1,5,8,-1,54,-1024
749,8.529139,2,6,9,-2,53,-1022
750,8.540783,3,6,9,4,53,-1023
751,8.552435,2,6,9,1,52,-1020
752,8.564096,2,6,9,2,54,-1020
753,8.575771,3,5,9,0,52,-1021
754,8.587441,2,6,8,-1,50,-1019
755,8.599137,2,6,8,-1,51,-1021
756,8.610786,2,6,9,0,54,-1029
757,8.622463,3,6,9,0,51,-1025
758,8.634141,2,7,8,1,55,-1022
759,8.645794,3,6,8,2,53,-1022
760,8.657449,3,5,9,-1,48,-1023
761,8.669265,2,6,9,0,53,-1021
762,8.680924,3,7,9,0,53,-1018
763,8.692644,2,6,9,4,54,-1021
764,8.704303,3,6,9,-2,54,-1025
765,8.715861,2,6,9,-4,52,-1020
766,8.727432,2,6,8,1,54,-1024
767,8.738951,3,6,9,0,53,-1018
768,8.750461,2,6,10,0,55,-1023
769,8.762003,2,6,9,-1,56,-1021
770,8.773568,2,6,8,-1,51,-1026
771,8.785119,3,6,9,0,53,-1023
772,8.796673,2,6,9,2,48,-1020
773,8.808294,2,6,9,-1,52,-1027
774,8.819946,3,5,9,1,54,-1018
775,8.831639,2,6,9,1,50,-1023
776,8.843289,2,6,9,-1,53,-1020
777,8.854968,1,6,9,0,50,-1026
778,8.866661,2,5,9,0,51,-1023
779,8.878307,1,5,9,4,52,-1027
780,8.889956,3,5,9,-1,53,-1021
781,8.901644,2,5,8,1,53,-1022
782,8.913297,1,6,9,-1,51,-1018
783,8.924857,2,6,8,-1,57,-1021
784,8.936403,3,7,9,1,55,-1019
785,8.947956,3,7,9,-3,49,-1022
786,8.959506,2,7,9,0,49,-1025
787,8.971095,2,5,9,-4,55,-1020
788,8.98264,2,6,9,-2,56,-1020
789,8.994188,2,7,9,-4,52,-1026
790,9.00574,3,6,8,-2,54,-1024
791,9.017432,2,6,8,1,55,-1020
792,9.029102,3,6,9,0,52,-1025
793,9.040756,2,6,9,-1,53,-1033
794,9.052414,2,6,9,-2,52,-1025
795,9.064061,1,6,9,0,53,-1022
796,9.07575,2,6,9,0,52,-1022
797,9.08741,2,6,9,-3,50,-1024
798,9.099059,2,5,9,0,51,-1012
799,9.110726,3,6,9,1,53,-1020
800,9.122389,2,6,8,1,51,-1021
801,9.134053,2,6,9,-1,55,-1024
802,9.14571,2,6,9,1,54,-1023
803,9.157361,2,5,8,0,51,-1025
804,9.169006,3,6,9,-1,53,-1020
805,9.180655,2,6,9,1,51,-1021
806,9.192297,3,6,8,-2,47,-1025
807,9.203942,3,6,8,-2,51,-1028
808,9.215628,3,6,9,-3,50,-1028
809,9.227182,2,6,9,-3,50,-1020
810,9.238705,2,6,9,4,53,-1029
811,9.250241,2,7,9,3,53,-1022
812,9.261779,2,7,8,0,53,-1026
813,9.273335,3,7,9,0,51,-1015
814,9.284876,2,6,9,2,50,-1021
815,9.296422,2,5,9,0,54,-1027
816,9.307958,2,6,9,0,54,-1020
817,9.31952,3,6,8,-2,56,-1025
818,9.331172,2,5,8,-1,55,-1027
819,9.342857,3,6,8,0,52,-1019
820,9.354515,2,5,8,-4,53,-1020
821,9.366184,2,6,8,0,47,-1025
822,9.377849,2,6,8,3,50,-1017
823,9.38951,2,6,8,0,51,-1023
824,9.401156,3,6,9,-2,52,-1028
825,9.412819,3,5,8,0,55,-1023
826,9.424481,3,5,9,1,54,-1019
827,9.436139,3,6,8,5,50,-1026
828,9.447765,2,6,9,0,51,-1024
829,9.459419,3,5,8,0,53,-1021
830,9.471064,3,6,9,-3,51,-1022
831,9.48273,2,5,8,0,49,-1028
832,9.494394,2,5,9,-3,50,-1027
833,9.506062,3,5,8,1,48,-1020
834,9.51776,2,5,8,0,49,-1026
835,9.52941,2,6,8,2,51,-1026
836,9.541058,3,6,8,1,51,-1023
837,9.552717,3,7,9,-4,54,-1022
838,9.564381,3,6,10,0,54,-1028
839,9.576025,3,6,9,-2,51,-1023
840,9.587683,2,6,10,-1,55,-1032
841,9.599366,2,6,9,-1,55,-1024
842,9.610985,2,7,9,-1,53,-1024
843,9.622677,3,6,9,-1,52,-1021
844,9.634324,2,6,8,-2,54,-1027
845,9.645973,2,6,8,-1,49,-1021
846,9.657637,2,6,9,-3,52,-1028
847,9.669325,3,7,8,0,52,-1020
848,9.680973,2,6,8,0,55,-1023
849,9.692645,2,7,9,1,53,-1021
850,9.70429,2,6,9,3,52,-1026
851,9.715937,2,7,10,0,53,-1021
852,9.727633,3,6,9,-1,52,-1019
853,9.739348,3,7,9,-1,53,-1021
854,9.750925,3,6,9,-2,53,-1019
855,9.762459,3,7,9,0,53,-1021
856,9.774012,2,6,8,4,50,-1030
857,9.785584,2,6,9,0,52,-1018
858,9.797142,3,6,9,0,51,-1023
859,9.808701,2,6,9,-1,52,-1015
860,9.820245,2,6,9,-2,54,-1025
861,9.831823,2,6,9,0,51,-1020
862,9.843504,2,6,9,0,52,-1027
863,9.85519,2,6,9,-1,49,-1019
864,9.866877,2,7,8,-3,51,-1019
865,9.878542,2,6,9,0,52,-1016
866,9.890192,2,6,8,0,54,-1024
867,9.901864,2,6,9,-1,50,-1023
868,9.913516,2,6,9,0,52,-1024
869,9.925163,2,6,9,-2,52,-1024
870,9.936825,3,5,8,2,51,-1023
871,9.948376,3,6,8,-2,53,-1026
872,9.959917,3,6,9,-2,49,-1024
873,9.971471,3,6,8,-2,52,-1020
874,9.983076,3,7,8,-3,55,-1019
875,9.994631,3,6,9,2,54,-1026
876,10.006181,3,6,9,0,52,-1022
877,10.017722,2,6,8,2,54,-1020
878,10.029304,2,6,8,0,51,-1023
879,10.040929,2,6,8,-1,53,-1018
880,10.052602,2,6,9,-4,51,-1019
881,10.064259,2,6,9,1,51,-1021
882,10.075921,2,5,9,2,55,-1020
883,10.087589,2,6,8,1,49,-1018
884,10.09925,2,5,9,0,52,-1027
885,10.110905,2,7,9,2,52,-1022
886,10.122595,3,6,9,-3,50,-1020
887,10.134264,3,7,8,3,50,-1027
888,10.145948,3,6,9,-1,48,-1027
889,10.157513,2,7,8,-3,53,-1020
890,10.169065,2,7,8,0,52,-1030
891,10.180611,3,6,9,3,51,-1024
892,10.192155,2,6,8,-3,52,-1021
893,10.203708,2,6,9,0,55,-1021
894,10.215262,2,6,9,3,51,-1024
895,10.226835,2,6,9,-3,49,-1024
896,10.238395,3,6,9,0,50,-1025
897,10.250043,3,5,9,-1,54,-1023
898,10.261691,3,6,9,0,50,-1024
899,10.273369,2,6,8,0,50,-1029
900,10.285015,2,6,9,-2,52,-1024
901,10.296663,2,6,9,-1,54,-1023
902,10.308327,2,6,9,0,54,-1025
903,10.320014,2,6,9,-4,54,-1027
904,10.331666,3,7,9,-1,53,-1025
905,10.343339,3,6,9,-5,50,-1032
906,10.355033,3,6,8,-1,57,-1021
907,10.366595,3,6,9,3,52,-1017
908,10.37815,2,6,9,0,48,-1023
909,10.389703,2,6,9,0,48,-1027
910,10.40125,2,6,8,-1,52,-1018
911,10.412792,3,7,8,0,56,-1018
912,10.424377,3,5,8,1,53,-1017
913,10.435973,2,6,8,0,53,-1021
914,10.447551,2,5,9,0,53,-1022
915,10.459168,1,6,9,-6,50,-1021
916,10.470835,2,7,9,-2,52,-1027
917,10.48247,3,6,9,-2,55,-1024
918,10.494134,2,6,8,0,54,-1021
919,10.505772,3,6,8,-2,52,-1026
920,10.517419,2,6,9,0,52,-1024
921,10.529056,3,5,9,-3,52,-1025
922,10.540699,3,6,9,-1,55,-1018
923,10.552378,3,5,9,3,51,-1023
924,10.564021,2,6,9,0,52,-1022
925,10.57567,2,6,8,0,53,-1028
926,10.587338,2,6,8,-1,49,-1022
927,10.59898,2,6,9,0,53,-1024
928,10.610642,2,6,9,-5,52,-1020
929,10.622308,2,5,9,-1,55,-1022
930,10.633976,3,5,8,0,55,-1015
931,10.645628,2,7,8,3,52,-1023
932,10.657301,3,6,9,0,52,-1024
933,10.66896,3,6,9,0,54,-1023
934,10.680636,2,6,9,-3,54,-1028
935,10.692448,3,6,9,-3,51,-1022
936,10.704121,2,6,9,-2,51,-1022
937,10.715763,3,6,9,-2,53,-1018
938,10.727418,2,6,9,0,50,-1026
939,10.73911,3,6,9,0,53,-1025
940,10.750733,2,6,8,-2,51,-1023
941,10.762416,2,7,9,-2,50,-1027
942,10.774072,2,6,9,0,54,-1022
943,10.785756,2,6,9,-4,51,-1024
944,10.797397,2,6,9,1,55,-1023
945,10.809045,3,5,8,2,55,-1022
946,10.82072,3,6,8,1,53,-1021
947,10.832385,2,6,9,-1,53,-1019
948,10.844064,2,6,9,1,54,-1025
949,10.855756,2,5,8,1,49,-1025
950,10.867477,2,6,9,-1,50,-1022
951,10.879136,2,6,9,0,55,-1022
952,10.890696,2,6,8,-2,52,-1026
953,10.902252,3,6,9,0,49,-1017
954,10.913824,2,6,9,2,54,-1023
955,10.925375,3,6,9,-1,51,-1022
956,10.936945,2,6,8,-1,49,-1020
957,10.948487,2,7,9,0,48,-1020
958,10.960042,3,6,9,-1,52,-1021
959,10.971613,2,6,9,-1,49,-1019
960,10.98325,3,6,9,-3,50,-1018
961,10.994933,2,6,9,-2,57,-1026
962,11.006615,2,6,8,5,51,-1027
963,11.018263,2,7,9,0,54,-1022
964,11.029914,2,6,9,-2,50,-1025
965,11.041557,3,6,9,-2,55,-1027
966,11.05321,3,6,8,5,51,-1023
967,11.064874,3,5,9,3,49,-1022
968,11.076534,2,7,8,-3,53,-1025
969,11.088191,3,6,9,-1,51,-1016
970,11.099746,2,7,9,0,51,-1021
971,11.111324,2,6,9,0,51,-1023
972,11.122879,2,6,8,-1,52,-1023
973,11.134467,3,6,9,-3,51,-1020
974,11.146022,2,6,8,0,52,-1026
975,11.157577,2,6,8,-3,52,-1022
976,11.169116,2,6,9,0,52,-1018
977,11.180664,2,6,8,-3,50,-1025
978,11.192277,3,5,9,-1,52,-1024
979,11.203925,2,6,8,0,55,-1025
980,11.215607,2,6,8,0,52,-1018
981,11.22725,2,6,9,-2,54,-1022
982,11.238898,2,6,10,-2,50,-1023
983,11.250542,2,6,10,4,51,-1022
984,11.262216,2,6,9,3,50,-1022
985,11.273869,3,6,8,2,53,-1029
986,11.285533,3,6,8,1,51,-1023
987,11.297182,2,6,8,0,55,-1023
988,11.308739,3,7,9,-3,50,-1025
989,11.320317,2,6,8,-2,46,-1019
990,11.331924,3,6,8,-3,53,-1025
991,11.343496,2,5,8,1,55,-1025
992,11.355066,2,7,9,0,50,-1025
993,11.366631,2,6,8,0,53,-1025
994,11.378181,2,5,9,-2,53,-1024
995,11.389738,2,6,9,-1,51,-1018
996,11.40137,2,7,8,0,52,-1021
997,11.413018,2,6,9,-1,50,-1018
998,11.424665,3,7,10,-2,53,-1015
999,11.43631,3,7,9,-1,51,-1024
1000,11.448002,3,6,9,-2,52,-1019
1001,11.459682,3,6,8,-1,55,-1022
1002,11.471369,3,6,9,3,50,-1023
1003,11.483032,2,6,9,1,52,-1019
1004,11.494713,2,6,9,-1,52,-1021
1005,11.506383,3,7,9,0,52,-1023
1006,11.518038,3,6,9,-6,49,-1024
1007,11.529678,2,7,10,-2,53,-1023
1008,11.541355,2,6,9,0,51,-1022
1009,11.553015,2,5,8,1,56,-1023
1010,11.564668,2,6,9,0,52,-1018
1011,11.576335,3,6,9,-3,54,-1021
1012,11.588015,2,6,9,3,56,-1019
1013,11.599752,3,5,9,-6,51,-1022
1014,11.611413,2,7,9,-2,54,-1020
1015,11.622956,3,6,9,-4,53,-1011
1016,11.63451,3,7,9,1,54,-1022
1017,11.64607,2,7,9,-4,53,-1026
1018,11.657605,3,6,9,-3,49,-1025
1019,11.669141,2,6,10,-1,53,-1025
1020,11.680688,2,6,8,-2,51,-1018
1021,11.692236,2,6,9,0,53,-1020
1022,11.703823,3,6,8,-1,51,-1026
1023,11.71568,2,6,8,-2,53,-1029
1024,11.727375,2,7,9,1,50,-1022
1025,11.739064,2,6,10,-4,51,-1020
1026,11.750737,2,6,9,-2,53,-1021
1027,11.762396,3,7,9,-5,54,-1014
1028,11.774043,3,6,9,-1,54,-1025
1029,11.785694,2,6,9,-2,50,-1024
1030,11.797347,2,6,10,0,53,-1026
1031,11.809015,3,7,9,1,47,-1023
1032,11.820704,2,6,9,-2,56,-1030
1033,11.832273,2,6,8,1,56,-1026
1034,11.843827,2,5,9,-1,51,-1025
1035,11.8554,3,6,9,0,50,-1023
1036,11.866941,2,6,9,0,51,-1024
1037,11.878469,2,6,9,1,55,-1019
1038,11.890039,2,4,9,-2,50,-1024
1039,11.901587,2,6,9,-2,56,-1024
1040,11.913221,3,6,9,1,49,-1018
1041,11.924841,2,5,8,-2,53,-1023
1042,11.936505,2,6,9,0,55,-1020
1043,11.948161,2,6,9,-3,51,-1020
1044,11.959812,2,6,9,-2,55,-1017
1045,11.971494,3,6,8,0,47,-1027
1046,11.983159,3,6,9,0,55,-1027
1047,11.994806,2,7,9,-1,55,-1016
1048,12.006473,2,6,8,-1,52,-1024
1049,12.018142,2,6,8,2,51,-1027
1050,12.029793,2,6,8,0,50,-1024
1051,12.041437,2,7,9,2,55,-1016
1052,12.053094,3,6,9,-1,50,-1024
1053,12.064761,2,6,9,0,54,-1023
1054,12.076414,2,7,9,-3,50,-1023
1055,12.088108,3,6,9,0,51,-1025
1056,12.099807,2,6,9,1,48,-1028
1057,12.111499,2,6,9,0,49,-1023
1058,12.123181,2,7,10,-2,55,-1024
1059,12.134864,2,6,9,2,48,-1024
1060,12.146449,3,6,9,-2,50,-1029
1061,12.157991,2,6,9,-3,52,-1017
1062,12.169535,2,6,9,-1,54,-1021
1063,12.181084,3,6,8,-1,50,-1022
1064,12.192624,3,6,8,-2,56,-1024
1065,12.204167,2,6,8,1,55,-1020
1066,12.215713,2,6,9,-1,53,-1024
1067,12.227322,3,5,9,-3,55,-1027
1068,12.238979,3,6,9,-1,50,-1026
1069,12.25064,3,5,8,-2,56,-1023
1070,12.262278,2,6,10,1,50,-1021
1071,12.27392,3,6,9,-6,53,-1025
1072,12.28559,2,6,9,0,54,-1021
1073,12.297243,3,5,8,2,57,-1022
1074,12.308914,2,5,9,2,52,-1026
1075,12.320551,2,6,8,-5,53,-1022
1076,12.332206,2,6,8,0,53,-1018
1077,12.343885,2,6,9,-1,52,-1024
1078,12.355532,2,6,8,-2,54,-1030
1079,12.367183,3,6,9,-1,53,-1024
1080,12.378872,3,6,8,-1,53,-1021
1081,12.390517,3,6,8,0,52,-1023
1082,12.402159,3,6,9,-2,50,-1021
1083,12.413819,2,5,9,1,54,-1022
1084,12.425476,3,6,9,2,51,-1032
1085,12.43715,3,6,9,0,53,-1024
1086,12.44882,2,4,9,-3,55,-1030
1087,12.460474,2,5,9,0,49,-1022
1088,12.472147,2,6,8,-3,51,-1022
1089,12.483819,3,6,8,1,51,-1021
1090,12.495494,2,7,9,0,46,-1018
1091,12.507144,3,7,8,-3,52,-1026
1092,12.518806,2,6,8,-6,49,-1023
1093,12.53047,2,7,8,-1,51,-1023
1094,12.54215,2,6,10,0,50,-1021
1095,12.553821,2,7,9,4,53,-1021
1096,12.56548,3,6,9,0,54,-1028
1097,12.577127,3,6,9,1,52,-1021
1098,12.58876,3,6,8,-2,50,-1022
1099,12.600406,3,7,8,-1,48,-1023
1100,12.612067,3,6,9,-1,52,-1020
1101,12.623749,3,6,8,1,51,-1029
1102,12.635405,2,6,9,-2,51,-1017
1103,12.647089,3,5,9,-5,54,-1017
1104,12.658729,1,7,9,-3,54,-1021
1105,12.670379,2,6,9,-1,49,-1023
1106,12.682024,2,6,9,3,49,-1029
1107,12.693677,2,6,9,-1,51,-1021
1108,12.705327,2,5,9,-4,50,-1021
1109,12.716975,3,6,8,-6,53,-1017
1110,12.728656,2,6,9,-2,54,-1023
1111,12.740458,3,6,9,0,49,-1023
1112,12.752138,3,5,9,0,54,-1017
1113,12.763796,3,6,9,1,53,-1025
1114,12.775484,2,7,9,3,51,-1020
1115,12.787146,2,6,8,0,55,-1023
1116,12.798813,3,6,8,0,51,-1023
1117,12.81046,1,6,8,2,51,-1027
1118,12.822126,3,7,8,0,53,-1023
1119,12.833779,2,6,9,0,50,-1018
1120,12.845467,3,6,9,0,51,-1020
1121,12.857118,3,6,9,-2,50,-1022
1122,12.868683,3,7,9,-4,49,-1017
1123,12.880226,3,6,9,0,48,-1025
1124,12.8918,2,6,9,-1,51,-1018
1125,12.903352,3,8,8,-2,52,-1029
1126,12.914923,2,6,9,-3,55,-1020
1127,12.926464,2,6,8,-3,52,-1019
1128,12.938034,2,7,8,2,49,-1021
1129,12.949583,2,6,9,-4,48,-1023
1130,12.96116,3,6,9,-2,54,-1022
1131,12.972775,3,6,8,-4,55,-1022
1132,12.984444,3,5,8,-3,50,-1019
1133,12.996103,2,5,9,-1,52,-1021
1134,13.007757,2,6,9,-1,54,-1021
1135,13.019429,2,6,9,-2,53,-1026
1136,13.03111,2,6,9,-2,53,-1022
1137,13.042733,3,6,9,-3,49,-1022
1138,13.054384,2,6,8,-4,51,-1021
1139,13.066041,2,7,9,0,52,-1022
1140,13.077712,2,5,8,1,49,-1022
1141,13.089364,3,6,9,-3,57,-1026
1142,13.101015,3,6,9,0,51,-1021
1143,13.112677,2,6,8,-2,55,-1021
1144,13.124333,2,6,9,0,53,-1028
1145,13.13601,2,6,9,-4,53,-1017
1146,13.147675,2,7,9,-3,53,-1026
1147,13.15933,2,6,8,-1,50,-1023
1148,13.171016,2,6,9,1,54,-1020
1149,13.182701,3,6,9,0,52,-1021
1150,13.194365,2,6,9,0,50,-1022
1151,13.206013,3,6,9,-1,53,-1025
1152,13.217692,2,6,9,-1,53,-1021
1153,13.229352,2,6,9,-1,53,-1024
1154,13.241002,3,7,9,-5,50,-1020
1155,13.252653,2,6,8,0,50,-1024
1156,13.264295,3,6,8,1,54,-1022
1157,13.275979,2,6,9,3,52,-1024
1158,13.287645,2,5,9,0,56,-1015
1159,13.299332,3,5,9,-4,51,-1021
1160,13.310991,3,5,8,2,55,-1022
1161,13.322652,1,6,8,-2,49,-1017
1162,13.33432,2,5,9,0,52,-1019
1163,13.345974,1,6,8,-1,47,-1020
1164,13.357625,2,6,9,0,50,-1022
1165,13.369273,3,6,8,-4,56,-1026
1166,13.380952,2,6,8,-4,50,-1022
1167,13.392621,3,6,9,1,54,-1020
1168,13.404272,2,6,8,-1,55,-1017
1169,13.415951,3,7,8,0,50,-1019
1170,13.427626,3,7,9,-4,48,-1023
1171,13.439282,2,7,10,-3,54,-1026
1172,13.450972,1,6,8,-4,50,-1022
1173,13.462629,3,6,8,2,49,-1019
1174,13.474277,2,6,8,2,54,-1024
1175,13.485979,3,6,9,0,46,-1024
1176,13.497633,1,7,9,2,52,-1026
1177,13.509301,2,7,9,-2,50,-1021
1178,13.52096,2,6,9,4,53,-1031
1179,13.532617,2,6,8,-1,52,-1021
1180,13.544263,2,6,8,-1,50,-1023
1181,13.555926,2,7,9,0,57,-1026
1182,13.567585,2,6,8,2,53,-1019
1183,13.579244,2,6,9,0,52,-1025
1184,13.590931,2,6,9,2,52,-1025
1185,13.602611,2,7,8,-3,49,-1022
1186,13.614184,2,6,8,2,48,-1016
1187,13.625737,2,6,8,0,50,-1022
1188,13.637305,2,6,8,0,53,-1022
1189,13.648844,3,6,9,-2,52,-1018
1190,13.660388,2,7,9,1,51,-1019
1191,13.671938,2,6,9,-2,55,-1027
1192,13.683489,2,6,8,-1,53,-1027
1193,13.695078,3,6,8,0,57,-1021
1194,13.706777,2,6,8,-2,52,-1018
1195,13.718469,3,7,8,-4,54,-1018
1196,13.73011,3,5,9,-1,51,-1027
1197,13.741758,3,6,9,0,53,-1023
1198,13.753445,3,6,9,-3,52,-1027
1199,13.765175,2,6,9,-4,55,-1025
1200,13.776834,2,5,9,-3,53,-1020
1201,13.788529,2,6,9,-1,49,-1017
1202,13.800192,3,6,9,-3,55,-1018
1203,13.811876,3,6,8,0,54,-1025
1204,13.823505,2,7,9,0,54,-1020
1205,13.835168,3,6,8,1,49,-1018
1206,13.846861,2,6,9,0,50,-1027
1207,13.858522,2,6,8,1,51,-1027
1208,13.870198,2,6,9,-4,57,-1020
1209,13.881845,3,6,9,3,51,-1024
1210,13.893498,2,6,8,0,49,-1018
1211,13.905167,3,6,8,1,55,-1028
1212,13.916829,2,5,9,0,49,-1016
1213,13.92842,3,6,9,-2,52,-1026
1214,13.939964,3,6,9,2,49,-1025
1215,13.951547,2,5,10,0,51,-1018
1216,13.963124,2,7,9,-1,52,-1024
1217,13.974692,2,6,9,0,53,-1021
1218,13.986268,3,5,9,-4,53,-1024
1219,13.997811,2,6,9,1,48,-1029
1220,14.009367,2,7,9,0,51,-1034
1221,14.020981,3,6,9,0,52,-1022
1222,14.032631,2,5,9,0,54,-1013
1223,14.044273,2,6,9,1,56,-1019
1224,14.055918,2,5,8,0,52,-1025
1225,14.067644,2,6,9,0,53,-1020
1226,14.079389,3,6,9,-1,53,-1020
1227,14.091068,3,6,9,-2,47,-1023
1228,14.102734,3,6,9,-1,52,-1024
1229,14.114401,3,6,9,2,52,-1017
1230,14.126103,3,6,8,2,50,-1020
1231,14.13768,3,6,9,-1,52,-1028
1232,14.149227,3,6,9,-1,55,-1020
1233,14.160774,2,6,9,5,48,-1021
1234,14.172321,3,6,9,-1,53,-1022
1235,14.18391,2,6,9,1,55,-1021
1236,14.195468,2,6,8,1,50,-1019
1237,14.207055,2,6,9,-2,53,-1016
1238,14.218634,2,6,8,-2,51,-1029
1239,14.230253,3,5,9,-4,51,-1016
1240,14.241915,2,6,8,-4,55,-1024
1241,14.253578,2,6,9,0,53,-1022
1242,14.265228,2,6,9,-4,48,-1025
1243,14.276882,2,7,8,1,52,-1024
1244,14.288569,3,6,9,2,56,-1026
1245,14.300235,2,6,9,0,52,-1022
1246,14.311893,3,6,9,0,48,-1023
1247,14.323564,3,6,8,0,51,-1021
1248,14.335252,3,7,9,-2,54,-1019
1249,14.34683,3,5,8,-1,52,-1022
1250,14.358449,3,5,9,-3,51,-1028
1251,14.370037,2,6,9,0,49,-1029
1252,14.381576,2,6,9,-4,56,-1020
1253,14.393116,2,6,9,0,51,-1025
1254,14.404662,2,6,9,-2,53,-1013
1255,14.416206,3,5,8,0,51,-1025
1256,14.427801,2,6,8,-4,54,-1027
1257,14.439522,3,6,9,0,55,-1022
1258,14.451222,2,5,9,0,56,-1025
1259,14.462868,3,6,9,1,57,-1026
1260,14.474523,2,6,9,-2,53,-1029
1261,14.486195,2,6,9,1,55,-1019
1262,14.497842,3,6,8,-3,48,-1014
1263,14.509494,3,6,9,-1,53,-1024
1264,14.521148,2,5,9,1,51,-1025
1265,14.532831,3,6,9,0,54,-1025
1266,14.544488,2,6,9,0,54,-1019
1267,14.556053,2,6,8,1,53,-1016
1268,14.567698,3,7,8,-4,53,-1023
1269,14.579326,2,6,8,0,50,-1024
1270,14.590882,2,6,8,1,51,-1020
1271,14.602462,3,6,9,-2,49,-1018
1272,14.614037,2,6,9,1,51,-1022
1273,14.625585,2,6,9,-1,50,-1010
1274,14.637243,3,5,8,-1,54,-1025
1275,14.64888,2,5,9,2,51,-1015
1276,14.66057,2,7,9,-1,51,-1022
1277,14.672227,2,5,10,-1,52,-1025
1278,14.683887,3,7,9,3,52,-1027
1279,14.69557,2,7,9,-5,53,-1025
1280,14.707324,3,6,8,0,50,-1026
1281,14.71899,2,6,9,-3,50,-1025
1282,14.730649,2,6,9,0,51,-1026
1283,14.742318,2,7,9,-1,53,-1018
1284,14.753979,3,7,9,1,52,-1022
1285,14.76563,2,6,9,2,53,-1020
1286,14.777315,3,6,8,0,54,-1024
1287,14.789081,2,6,8,1,54,-1025
1288,14.800735,2,6,9,2,53,-1021
1289,14.812394,2,6,9,-5,53,-1018
1290,14.82406,1,5,9,2,50,-1021
1291,14.835749,2,7,9,-1,53,-1024
1292,14.847425,3,7,9,0,48,-1016
1293,14.858984,3,7,10,4,54,-1029
1294,14.87054,2,6,9,-1,52,-1024
1295,14.882083,2,5,9,0,55,-1020
1296,14.893631,2,6,9,-1,48,-1021
1297,14.905178,3,6,9,-1,53,-1025
1298,14.91672,2,6,9,-3,57,-1023
1299,14.92827,2,6,9,6,52,-1028
1300,14.939826,2,7,9,2,53,-1025
1301,14.951439,2,6,9,0,50,-1023
1302,14.96312,2,5,9,0,52,-1025
1303,14.974793,2,5,9,0,52,-1025
1304,14.986471,2,6,9,0,48,-1028
1305,14.998132,2,6,9,-2,52,-1023
1306,15.009805,2,6,9,-4,49,-1025
1307,15.021461,3,6,8,-1,51,-1027
1308,15.033115,2,5,9,4,52,-1016
1309,15.044783,3,6,8,1,54,-1021
1310,15.05645,3,6,9,0,49,-1027
1311,15.06807,2,5,8,-1,58,-1025
1312,15.079674,2,6,8,0,54,-1026
1313,15.091231,2,6,10,-1,54,-1023
1314,15.102789,2,6,9,-2,51,-1020
1315,15.114331,2,6,9,-1,52,-1018
1316,15.125917,2,6,8,0,51,-1025
1317,15.137463,2,6,9,-5,54,-1016
1318,15.149035,2,6,9,0,56,-1024
1319,15.160645,2,6,9,3,54,-1022
1320,15.172316,3,6,9,2,55,-1021
1321,15.184001,3,5,9,-2,48,-1023
1322,15.195691,2,6,9,-3,53,-1020
1323,15.20736,2,6,9,-5,55,-1019
1324,15.218986,3,6,8,-6,54,-1027
1325,15.230653,2,5,9,0,51,-1028
1326,15.242319,2,6,9,1,52,-1024
1327,15.253986,2,5,10,-5,51,-1020
1328,15.265647,3,6,9,3,52,-1021
1329,15.277231,3,6,8,-1,49,-1026
1330,15.28879,2,5,9,-2,53,-1028
1331,15.300361,1,6,9,-2,50,-1021
1332,15.311915,2,6,10,-3,52,-1022
1333,15.323469,3,6,10,-2,52,-1023
1334,15.335034,3,6,8,0,52,-1020
1335,15.346594,3,5,9,0,56,-1030
1336,15.358165,2,5,9,-3,51,-1020
1337,15.369842,2,5,9,-2,55,-1022
1338,15.381496,1,6,8,0,50,-1020
1339,15.393187,2,5,9,0,54,-1018
1340,15.404843,3,6,8,0,45,-1021
1341,15.416495,2,5,8,0,49,-1022
1342,15.428173,2,6,9,-1,51,-1015
1343,15.439858,2,7,9,2,51,-1026
1344,15.451504,2,7,9,-3,52,-1024
1345,15.463209,2,5,9,-1,52,-1023
1346,15.474861,3,6,9,0,52,-1021
1347,15.486443,3,6,9,0,55,-1028
1348,15.498012,3,5,9,-3,55,-1021
1349,15.509573,2,5,9,0,51,-1020
1350,15.521171,3,6,8,-2,52,-1023
1351,15.532723,3,6,9,-3,55,-1015
1352,15.544282,2,7,8,-1,51,-1021
1353,15.555831,2,6,9,-2,50,-1022
1354,15.567419,2,6,8,1,55,-1026
1355,15.579072,3,6,9,-1,54,-1025
1356,15.590734,2,7,9,1,53,-1021
1357,15.602402,2,6,9,2,52,-1031
1358,15.61407,3,7,9,0,50,-1027
1359,15.625723,2,6,8,0,50,-1020
1360,15.637364,2,6,8,-4,49,-1022
1361,15.649013,3,5,8,2,53,-1020
1362,15.660684,2,6,8,0,51,-1019
1363,15.672362,2,6,9,-1,54,-1024
1364,15.684023,3,7,8,0,54,-1017
1365,15.69559,2,6,9,1,52,-1023
1366,15.707182,3,6,10,-1,53,-1017
1367,15.718771,2,6,9,-1,52,-1028
1368,15.730311,2,6,9,0,53,-1012
1369,15.741859,1,6,9,-1,53,-1015
1370,15.753413,2,6,9,-4,51,-1017
1371,15.764981,3,6,9,-4,54,-1026
1372,15.77654,2,6,9,-1,49,-1020
1373,15.788236,2,6,9,0,52,-1027
1374,15.799906,2,6,9,-1,51,-1021
1375,15.811723,3,6,9,-1,51,-1029
1376,15.823385,2,6,8,-3,54,-1028
1377,15.835057,3,6,9,-5,49,-1019
1378,15.846732,2,6,8,-3,52,-1019
1379,15.858377,2,5,9,-1,57,-1026
1380,15.870031,2,6,9,2,50,-1021
1381,15.881724,3,6,9,0,53,-1023
1382,15.893392,2,6,9,-1,54,-1026
1383,15.904944,2,5,9,2,50,-1023
1384,15.916523,2,5,9,-5,59,-1024
1385,15.928059,2,6,8,-2,52,-1026
1386,15.939594,2,6,9,-2,54,-1023
1387,15.951168,2,7,9,-3,52,-1023
1388,15.962699,2,7,9,0,51,-1019
1389,15.974255,2,6,9,-2,54,-1016
1390,15.985814,2,6,8,0,54,-1025
1391,15.997508,2,6,9,0,49,-1018
1392,16.009191,2,6,8,2,55,-1022
1393,16.020834,2,6,8,-4,48,-1025
1394,16.032514,2,6,8,2,51,-1025
1395,16.044257,2,6,9,-2,52,-1019
1396,16.055966,2,6,9,0,53,-1024
1397,16.067652,2,6,9,-2,55,-1017
1398,16.079328,2,6,9,0,55,-1023
1399,16.090975,3,7,9,3,50,-1021
1400,16.102539,3,6,9,0,55,-1020
1401,16.114091,3,6,9,2,50,-1018
1402,16.125657,3,5,9,-3,53,-1026
1403,16.137201,3,5,9,-1,47,-1022
1404,16.148773,2,6,9,-2,52,-1028
1405,16.160323,2,6,9,-3,49,-1012
1406,16.171907,2,5,9,0,52,-1020
1407,16.183458,2,6,8,0,50,-1019
1408,16.195018,2,6,10,-2,53,-1019
1409,16.206645,2,6,9,-3,58,-1025
1410,16.218289,2,6,8,-2,50,-1022
1411,16.229942,2,6,8,1,58,-1020
1412,16.241594,2,6,9,0,54,-1026
1413,16.253252,3,6,9,-1,53,-1029
1414,16.264898,2,6,9,-1,52,-1021
1415,16.276561,3,5,8,0,53,-1024
1416,16.288209,2,6,8,-5,50,-1022
1417,16.29989,2,6,8,0,54,-1020
1418,16.311574,2,6,9,-1,56,-1024
1419,16.323173,3,5,8,-2,54,-1021
1420,16.334711,2,6,8,1,50,-1024
1421,16.346262,3,5,8,1,53,-1015
1422,16.357811,2,6,8,-2,48,-1024
1423,16.369395,2,6,9,-1,49,-1022
1424,16.380943,2,5,9,-1,49,-1022
1425,16.392519,2,6,9,2,50,-1013
1426,16.404092,3,6,9,-2,52,-1025
1427,16.415738,2,7,9,2,51,-1021
1428,16.427444,3,5,9,0,50,-1017
1429,16.439104,3,6,9,0,55,-1022
1430,16.450727,2,7,9,-1,53,-1025
1431,16.462375,3,6,9,2,50,-1020
1432,16.474037,2,5,9,0,54,-1026
1433,16.485685,3,6,8,-2,54,-1022
1434,16.497333,2,7,9,-1,52,-1024
1435,16.508989,2,6,9,-4,53,-1014
1436,16.520628,2,5,9,0,51,-1023
1437,16.532277,3,6,8,1,51,-1028
1438,16.543957,3,6,9,4,53,-1024
1439,16.555637,2,6,8,-1,51,-1020
1440,16.567312,2,6,8,0,52,-1023
1441,16.57899,2,6,9,1,50,-1016
1442,16.590632,2,6,8,3,49,-1020
1443,16.60228,2,6,8,-2,52,-1026
1444,16.613985,2,6,9,-3,52,-1021
1445,16.625626,2,6,8,2,51,-1020
1446,16.637294,2,6,9,0,56,-1022
1447,16.648969,3,7,9,1,48,-1023
1448,16.66062,2,6,9,-1,56,-1019
1449,16.67228,2,6,9,-3,51,-1018
1450,16.683942,2,7,8,1,54,-1023
1451,16.695631,3,6,9,0,53,-1024
1452,16.70731,2,6,9,-1,52,-1011
1453,16.71904,3,7,8,-3,52,-1022
1454,16.730728,2,5,9,-1,56,-1023
1455,16.742285,3,6,9,-1,53,-1028
1456,16.753883,2,5,9,0,50,-1019
1457,16.765426,2,6,9,-1,52,-1022
1458,16.776966,3,5,9,2,49,-1028
1459,16.788516,3,5,9,1,53,-1024
1460,16.800058,2,6,8,0,56,-1025
1461,16.8116,3,6,9,-1,53,-1023
1462,16.82317,3,6,9,0,52,-1026
1463,16.834851,3,6,9,-2,51,-1022
1464,16.846471,3,6,9,-2,50,-1019
1465,16.858117,2,6,10,-1,50,-1020
1466,16.869778,2,7,9,0,49,-1028
1467,16.881438,3,6,9,1,51,-1022
1468,16.893082,3,6,9,-3,50,-1027
1469,16.90474,3,6,9,0,55,-1017
1470,16.916388,3,6,9,2,58,-1025
1471,16.928077,2,6,8,0,51,-1013
1472,16.939654,3,6,8,-1,51,-1018
1473,16.951185,3,7,9,-14,53,-1022
1474,16.962769,2,6,8,0,50,-1019
1475,16.974313,3,5,10,0,52,-1021
1476,16.985889,1,6,9,-2,49,-1018
1477,16.997431,2,6,8,3,55,-1025
1478,17.008968,2,6,8,-3,55,-1019
1479,17.020522,2,6,9,3,52,-1025
1480,17.032138,2,6,9,-1,55,-1024
1481,17.043811,3,6,9,0,50,-1025
1482,17.055492,2,6,9,-3,52,-1017
1483,17.067168,2,6,8,-1,51,-1021
1484,17.07885,2,6,8,0,51,-1019
1485,17.09047,3,6,8,2,52,-1020
1486,17.102119,2,6,8,-3,52,-1019
1487,17.11376,3,6,8,0,54,-1029
1488,17.12543,2,6,9,3,53,-1023
1489,17.137078,2,6,8,0,54,-1023
1490,17.148636,3,6,8,-5,55,-1028
1491,17.160189,2,6,8,-3,51,-1017
1492,17.171772,2,6,9,-1,53,-1028
1493,17.183327,2,6,9,-2,53,-1023
1494,17.194876,2,6,9,0,50,-1018
1495,17.206447,2,6,8,0,50,-1024
1496,17.218005,2,6,9,0,54,-1019
1497,17.229567,2,6,9,-3,52,-1021
1498,17.241215,3,7,9,0,53,-1024
1499,17.252867,3,6,9,2,51,-1024
1500,17.264529,2,6,8,-2,50,-1023
1501,17.276181,2,7,8,-2,58,-1024
1502,17.287832,2,6,8,-3,50,-1025
1503,17.299517,3,6,8,-1,56,-1026
1504,17.311163,2,6,8,-2,55,-1017
1505,17.322841,2,5,9,1,55,-1021
1506,17.334482,2,6,9,7,49,-1022
1507,17.346131,1,5,8,-1,51,-1023
1508,17.357679,2,5,8,0,48,-1023
1509,17.369223,2,6,9,0,52,-1017
1510,17.380774,2,6,9,-1,54,-1023
1511,17.392322,3,5,8,0,55,-1026
1512,17.40389,2,6,8,0,50,-1020
1513,17.415419,3,6,9,1,53,-1022
1514,17.426943,3,5,9,-1,57,-1025
1515,17.43847,3,5,9,-3,51,-1028
1516,17.450094,3,6,9,-3,52,-1020
1517,17.46174,2,5,9,2,52,-1024
1518,17.473386,3,6,9,-3,50,-1026
1519,17.48506,2,6,10,0,54,-1022
1520,17.496698,2,6,9,0,48,-1018
1521,17.508371,2,7,9,-3,54,-1023
1522,17.520045,2,6,8,0,54,-1019
1523,17.531721,2,6,9,2,51,-1024
1524,17.543398,2,6,9,1,53,-1024
1525,17.555057,2,6,9,2,54,-1022
1526,17.566614,2,7,9,0,52,-1016
1527,17.578162,3,6,9,1,53,-1014
1528,17.589707,2,6,9,1,50,-1024
1529,17.60127,3,6,9,0,51,-1023
1530,17.612834,3,6,8,1,51,-1021
1531,17.624399,3,6,9,-2,54,-1030
1532,17.635946,3,6,9,-1,52,-1025
1533,17.64753,2,6,8,1,53,-1023
1534,17.65916,2,6,8,-5,53,-1020
1535,17.670874,2,6,8,2,51,-1020
1536,17.682543,2,6,9,0,53,-1025
1537,17.694193,2,6,9,0,46,-1024
1538,17.705842,3,6,9,-1,53,-1022
1539,17.717491,2,6,9,0,55,-1027
1540,17.729154,2,6,9,-3,53,-1015
1541,17.740805,3,6,9,1,51,-1023
1542,17.752477,2,7,9,4,56,-1023
1543,17.764129,2,7,9,0,50,-1019
1544,17.775664,2,5,9,0,51,-1027
1545,17.787179,3,5,8,-1,55,-1024
1546,17.798698,2,6,9,-2,52,-1026
1547,17.810241,3,6,9,-2,51,-1022
1548,17.821789,2,6,9,0,54,-1024
1549,17.833329,2,6,9,-3,52,-1022
1550,17.844872,2,6,9,0,52,-1025
1551,17.856427,2,6,9,1,52,-1025
1552,17.868118,2,5,9,-3,55,-1024
1553,17.879781,2,6,9,-4,53,-1025
1554,17.891456,3,5,9,-4,56,-1024
1555,17.90312,2,5,9,-2,53,-1023
1556,17.914794,2,6,9,-2,51,-1024
1557,17.926463,2,6,8,-1,51,-1020
1558,17.938105,2,6,9,-2,53,-1026
1559,17.949754,2,6,9,-4,49,-1018
1560,17.961447,2,6,9,-4,55,-1023
1561,17.973097,3,6,9,-3,52,-1019
1562,17.984647,3,6,9,0,51,-1030
1563,17.996207,2,7,9,-4,53,-1019
1564,18.007778,2,7,9,-2,56,-1022
1565,18.019337,2,7,9,0,51,-1024
1566,18.030911,3,6,8,-2,54,-1016
1567,18.042458,2,6,9,-2,51,-1017
1568,18.054002,3,5,9,-2,50,-1019
1569,18.065557,2,5,8,0,54,-1027
1570,18.077176,2,6,9,0,49,-1017
1571,18.088827,3,6,9,-4,53,-1020
1572,18.100471,3,6,9,-1,50,-1014
1573,18.112121,2,6,8,4,50,-1032
1574,18.12376,3,6,8,0,52,-1027
1575,18.13543,3,5,8,-2,52,-1020
1576,18.147098,2,6,8,-2,55,-1023
1577,18.158727,2,5,8,-1,53,-1029
1578,18.170404,2,6,9,1,52,-1019
1579,18.18207,2,6,9,-2,55,-1020
1580,18.193629,3,6,9,0,52,-1026
1581,18.20518,3,6,9,4,53,-1022
1582,18.216753,3,6,9,0,54,-1020
1583,18.228331,2,6,9,2,50,-1023
1584,18.239896,2,5,9,4,48,-1027
1585,18.251424,3,6,9,0,53,-1019
1586,18.262943,2,6,9,-1,53,-1018
1587,18.274469,3,6,8,0,52,-1016
1588,18.286087,3,6,9,0,51,-1021
1589,18.297734,3,6,9,-2,53,-1021
1590,18.309379,2,5,8,0,53,-1023
1591,18.321055,2,5,9,1,52,-1020
1592,18.332695,3,6,8,2,49,-1017
1593,18.344375,3,6,9,0,54,-1020
1594,18.356046,3,5,9,-1,46,-1020
1595,18.367699,2,6,8,2,54,-1019
1596,18.379378,2,6,8,-1,52,-1020
1597,18.391059,3,6,9,1,50,-1024
1598,18.402642,3,6,8,-1,53,-1026
1599,18.414209,2,5,8,-1,50,-1020
1600,18.425762,2,6,8,-2,50,-1024
1601,18.437325,2,6,9,3,49,-1020
1602,18.448867,2,7,9,-3,53,-1019
1603,18.460417,3,6,9,-2,48,-1025
1604,18.471983,3,6,8,-1,51,-1026
1605,18.483564,3,6,8,0,54,-1024
1606,18.495191,2,5,9,-1,49,-1020
1607,18.506853,2,7,8,-1,52,-1021
1608,18.518518,2,6,9,-2,52,-1024
1609,18.530171,3,6,9,-1,49,-1025
1610,18.541818,3,7,9,-2,50,-1026
1611,18.553467,2,6,9,2,54,-1024
1612,18.565105,2,6,9,2,54,-1023
1613,18.579471,2,6,9,-3,49,-1020
1614,18.591174,2,7,8,-1,51,-1018
1615,18.602887,2,6,8,-2,52,-1025
1616,18.614459,2,6,9,4,53,-1021
1617,18.626009,2,6,9,3,52,-1023
1618,18.637548,2,6,9,1,50,-1025
1619,18.649088,2,6,10,1,55,-1027
1620,18.660635,3,6,9,-3,56,-1023
1621,18.672184,2,6,8,1,54,-1026
1622,18.683749,2,5,8,0,53,-1024
1623,18.695324,2,6,8,-4,49,-1022
1624,18.706982,3,6,9,0,49,-1022
1625,18.718633,3,6,9,0,54,-1026
1626,18.730329,2,5,9,0,52,-1024
1627,18.741988,3,6,9,0,55,-1024
1628,18.753633,2,6,9,-1,57,-1015
1629,18.765303,2,6,8,-2,50,-1024
1630,18.776955,2,5,9,-1,51,-1023
1631,18.788592,2,5,8,0,52,-1027
1632,18.800271,3,6,8,1,53,-1020
1633,18.811945,2,6,9,-5,52,-1023
1634,18.823513,2,5,9,-1,54,-1016
1635,18.835075,2,6,9,-2,52,-1015
1636,18.846623,2,6,8,-1,54,-1016
1637,18.858169,2,6,9,0,53,-1021
1638,18.869734,3,6,9,-2,52,-1025
1639,18.88128,2,6,9,-3,55,-1022
1640,18.892868,3,6,9,0,54,-1020
1641,18.904422,3,6,9,3,52,-1022
1642,18.915974,3,5,9,-1,54,-1019
1643,18.927539,3,5,9,-4,51,-1020
1644,18.939087,2,6,9,1,53,-1022
1645,18.950637,3,6,9,0,50,-1022
1646,18.962176,3,6,9,1,52,-1028
1647,18.97373,3,6,8,-1,54,-1021
1648,18.985271,3,5,9,-3,55,-1021
1649,18.996812,3,6,8,-1,52,-1026
1650,19.008413,3,6,9,-4,51,-1017
1651,19.020044,2,6,9,-3,52,-1024
1652,19.031756,2,7,9,-1,52,-1025
1653,19.043423,3,6,10,-1,53,-1020
1654,19.055109,2,5,10,-1,56,-1023
1655,19.066788,3,6,8,1,54,-1019
1656,19.078467,2,6,9,0,52,-1010
1657,19.090141,2,5,10,-3,52,-1024
1658,19.101805,3,6,9,-4,52,-1024
1659,19.11347,2,6,9,-1,55,-1026
1660,19.125159,2,6,9,1,52,-1027
1661,19.136707,3,7,9,0,56,-1025
1662,19.148259,3,6,9,0,57,-1025
1663,19.15981,2,6,8,-2,51,-1015
1664,19.171395,2,5,9,-1,54,-1022
1665,19.182943,2,6,9,0,48,-1022
1666,19.194509,3,6,9,0,49,-1023
1667,19.206055,3,6,10,-4,57,-1026
1668,19.217625,2,6,8,1,52,-1017
1669,19.229259,3,6,9,-2,52,-1028
1670,19.240913,2,6,9,-5,52,-1021
1671,19.252564,2,6,9,1,52,-1018
1672,19.264203,2,6,8,-1,53,-1026
1673,19.275877,2,6,9,-1,54,-1021
1674,19.287547,2,6,10,0,52,-1020
1675,19.299211,3,5,8,0,53,-1014
1676,19.31086,2,6,9,1,55,-1022
1677,19.322545,3,6,8,0,51,-1026
1678,19.334196,3,6,8,-2,52,-1027
1679,19.345757,3,6,9,-1,52,-1024
1680,19.357299,2,6,9,-1,55,-1026
1681,19.368849,3,6,9,-3,55,-1020
1682,19.380401,2,6,9,1,56,-1021
1683,19.39197,3,6,9,1,55,-1019
1684,19.403548,3,6,8,0,51,-1026
1685,19.415148,2,7,8,-2,53,-1018
1686,19.426714,3,5,9,0,57,-1026
1687,19.438327,2,6,9,2,54,-1019
1688,19.449987,3,6,8,-2,53,-1018
1689,19.461635,3,6,9,1,53,-1027
1690,19.473301,2,6,8,0,56,-1023
1691,19.484956,2,5,9,1,52,-1018
1692,19.496623,3,5,9,2,48,-1023
1693,19.508292,3,6,9,-2,50,-1024
1694,19.519949,2,5,8,1,51,-1026
1695,19.531663,3,6,8,-2,50,-1017
1696,19.543332,2,6,8,0,54,-1027
1697,19.554895,2,5,9,1,51,-1022
1698,19.566459,3,6,9,-2,51,-1024
1699,19.578011,2,6,8,-2,53,-1025
1700,19.589556,2,6,9,-3,54,-1028
1701,19.60112,3,5,9,1,55,-1024
1702,19.612659,3,6,9,0,52,-1023
1703,19.624211,2,7,9,-1,55,-1023
1704,19.635792,3,5,8,-2,54,-1031
1705,19.647418,2,6,9,0,55,-1024
1706,19.659101,2,6,9,-1,52,-1020
1707,19.670775,2,6,8,-4,51,-1025
1708,19.682448,3,6,8,0,49,-1023
1709,19.69409,2,6,8,-2,49,-1021
1710,19.705765,2,6,8,-5,52,-1019
1711,19.717424,2,6,9,-1,47,-1030
1712,19.729074,3,6,9,0,49,-1021
1713,19.740728,3,6,9,-3,51,-1016
1714,19.752388,3,6,9,0,52,-1017
1715,19.763964,2,5,9,-2,53,-1024
1716,19.775553,2,5,8,-1,55,-1028
1717,19.787146,3,6,8,-5,50,-1029
1718,19.798705,3,6,9,-2,55,-1022
1719,19.810252,2,7,9,-3,54,-1023
1720,19.821794,2,6,9,-1,48,-1024
1721,19.833351,2,6,8,1,55,-1021
1722,19.844922,3,6,9,-2,51,-1023
1723,19.856601,2,6,9,-1,54,-1017
1724,19.868253,3,6,9,-2,52,-1020
1725,19.879937,3,6,9,0,52,-1023
1726,19.891618,3,6,9,0,54,-1020
1727,19.903263,2,6,8,-3,51,-1025
1728,19.914986,3,6,8,1,52,-1026
1729,19.926633,2,6,8,0,56,-1029
1730,19.938307,2,6,9,1,53,-1025
1731,19.949973,3,6,8,0,52,-1019
1732,19.961641,2,6,9,0,54,-1024
1733,19.97323,2,7,9,1,52,-1019
1734,19.984782,2,6,9,0,56,-1021
1735,19.996334,3,6,8,-2,51,-1017
1736,20.007905,3,7,9,-1,53,-1023
1737,20.019486,2,6,8,-3,54,-1017
1738,20.031057,2,6,8,2,52,-1028
1739,20.04262,3,6,8,2,53,-1016
1740,20.054172,3,6,9,-2,54,-1025
1741,20.065859,2,6,9,0,55,-1027
1742,20.077603,2,6,9,0,55,-1017
1743,20.089267,2,6,9,1,55,-1022
1744,20.100927,2,6,8,-1,51,-1025
1745,20.112578,2,6,8,0,53,-1017
1746,20.124231,3,7,8,0,52,-1028
1747,20.135905,2,6,8,0,54,-1028
1748,20.147567,2,6,9,-1,55,-1020
1749,20.15923,2,6,8,-1,53,-1020
1750,20.170781,2,6,9,0,55,-1019
1751,20.182355,2,6,9,-1,55,-1018
1752,20.193891,2,6,9,2,54,-1021
1753,20.205479,3,5,9,-2,52,-1019
1754,20.217021,2,6,9,0,57,-1024
1755,20.228562,2,6,8,0,52,-1024
1756,20.240109,2,6,9,1,52,-1024
1757,20.25166,2,6,8,-6,50,-1022
1758,20.263218,2,5,9,4,55,-1024
1759,20.274891,2,7,9,2,52,-1023
1760,20.286606,3,5,9,-1,54,-1029
1761,20.298276,3,6,9,2,52,-1023
1762,20.309925,2,5,8,0,51,-1024
1763,20.321572,2,6,8,0,52,-1018
1764,20.333216,2,6,9,-2,53,-1017
1765,20.344873,2,6,9,-1,48,-1021
1766,20.356538,2,6,9,0,55,-1023
1767,20.368183,2,7,8,-2,52,-1021
1768,20.379828,3,6,9,1,51,-1021
1769,20.391486,3,6,9,2,54,-1022
1770,20.403153,3,6,8,-3,50,-1026
1771,20.414813,2,6,9,-6,48,-1026
1772,20.42647,2,6,8,-6,55,-1023
1773,20.438118,3,5,8,0,54,-1026
1774,20.449789,1,5,9,-4,52,-1026
1775,20.461443,3,6,8,0,51,-1022
1776,20.473136,2,6,8,0,53,-1014
1777,20.484734,2,6,9,-2,55,-1016
1778,20.496276,3,6,9,-2,52,-1023
1779,20.507852,3,6,9,2,48,-1026
1780,20.519442,2,7,8,-2,54,-1025
1781,20.531006,2,6,9,-2,50,-1018
1782,20.542581,2,6,8,0,47,-1023
1783,20.554129,2,6,8,0,53,-1019
1784,20.565727,3,6,9,1,51,-1029
1785,20.577286,3,6,9,-1,55,-1027
1786,20.588858,2,5,9,-4,52,-1022
1787,20.600402,3,7,8,-2,52,-1017
1788,20.611954,2,6,9,-1,50,-1027
1789,20.623544,2,7,8,0,56,-1024
1790,20.63511,3,6,8,-2,51,-1018
1791,20.646692,3,6,9,-1,53,-1017
1792,20.65827,2,6,9,-2,50,-1024
1793,20.669859,2,6,9,-1,56,-1022
1794,20.681586,3,6,9,0,55,-1025
1795,20.693282,3,5,9,-3,51,-1025
1796,20.704939,2,6,9,-1,52,-1026
1797,20.716589,2,6,8,-3,53,-1023
1798,20.728257,2,5,9,-1,50,-1023
1799,20.739923,2,6,8,-5,51,-1018
1800,20.751577,2,5,8,-3,53,-1019
1801,20.763258,2,5,9,0,54,-1020
1802,20.774939,2,5,9,0,51,-1018
1803,20.786642,2,6,9,0,49,-1025
1804,20.79823,2,6,8,1,49,-1016
1805,20.809787,2,5,8,0,48,-1029
1806,20.821359,3,6,8,-1,54,-1026
1807,20.832904,2,5,9,-2,52,-1019
1808,20.844448,2,6,9,-4,50,-1023
1809,20.855991,3,6,9,-2,55,-1021
1810,20.867541,3,6,8,-2,52,-1026
1811,20.879108,2,6,9,0,52,-1022
1812,20.89076,2,6,9,0,54,-1024
1813,20.902455,3,6,9,-5,51,-1027
1814,20.914113,2,6,9,-2,54,-1024
1815,20.925793,3,6,9,-3,49,-1024
1816,20.937459,3,5,9,-1,51,-1024
1817,20.949148,3,6,8,-3,48,-1019
1818,20.960794,3,6,9,1,51,-1021
1819,20.972449,2,5,9,-3,52,-1023
1820,20.984139,3,6,9,-3,50,-1023
1821,20.995805,2,6,8,1,54,-1027
1822,21.007373,2,5,9,-4,49,-1026
1823,21.018965,2,5,9,0,52,-1023
1824,21.030516,2,6,9,0,53,-1022
1825,21.04206,2,6,9,-2,56,-1025
1826,21.053611,4,6,8,0,54,-1020
1827,21.065164,3,6,8,0,54,-1024
1828,21.076728,3,5,8,-1,54,-1019
1829,21.08829,2,6,8,-3,50,-1018
1830,21.09993,3,6,9,-2,52,-1023
1831,21.111617,2,6,10,-1,52,-1022
1832,21.123272,3,6,9,0,51,-1024
1833,21.134925,3,6,8,0,55,-1022
1834,21.146589,3,5,9,1,53,-1024
1835,21.158245,2,6,8,-1,51,-1019
1836,21.16992,2,6,9,-2,51,-1016
1837,21.181585,2,6,9,-4,56,-1017
1838,21.193274,2,6,8,-3,53,-1023
1839,21.204932,3,6,8,0,51,-1027
1840,21.216506,2,6,9,-1,54,-1022
1841,21.228048,2,5,9,0,51,-1029
1842,21.239614,3,6,9,-2,52,-1026
1843,21.251194,2,7,9,-2,57,-1023
1844,21.262751,3,6,9,-2,56,-1022
1845,21.274297,2,6,9,0,53,-1027
1846,21.285854,3,6,8,-2,56,-1022
1847,21.297417,3,6,7,-3,52,-1020
1848,21.309039,2,6,9,1,49,-1020
1849,21.32069,2,5,8,2,51,-1027
1850,21.332371,2,6,8,-1,52,-1027
1851,21.34403,3,6,9,1,49,-1022
1852,21.355685,2,6,9,-1,51,-1020
1853,21.367382,3,6,9,-4,53,-1018
1854,21.379042,3,5,9,-2,52,-1020
1855,21.390747,2,6,8,-1,55,-1027
1856,21.402405,3,6,9,0,52,-1024
1857,21.413974,2,5,9,-1,54,-1022
1858,21.425521,2,6,9,1,56,-1032
1859,21.437099,2,6,9,-3,52,-1020
1860,21.448634,3,6,9,-2,52,-1022
1861,21.460187,2,6,8,-3,51,-1019
1862,21.471744,2,6,9,-1,52,-1023
1863,21.483305,2,5,9,2,53,-1017
1864,21.494859,3,6,8,0,51,-1021
1865,21.506423,3,6,8,0,57,-1025
1866,21.518052,3,6,9,-3,53,-1030
1867,21.529702,3,5,8,0,52,-1024
1868,21.541351,3,6,9,-3,56,-1022
1869,21.553028,2,6,8,0,52,-1020
1870,21.564672,2,6,9,-1,53,-1022
1871,21.576322,3,6,8,1,53,-1025
1872,21.588026,2,6,9,0,54,-1022
1873,21.599679,3,5,9,0,55,-1019
1874,21.611369,3,6,9,0,54,-1020
1875,21.62305,2,6,9,0,53,-1023
1876,21.634625,3,6,9,-4,51,-1017
1877,21.646216,2,6,9,1,57,-1023
1878,21.65776,3,6,9,0,53,-1022
1879,21.669328,3,6,9,0,49,-1020
1880,21.680881,2,6,9,1,49,-1022
1881,21.692445,2,6,8,-3,51,-1020
1882,21.704001,3,6,9,-3,51,-1024
1883,21.715621,2,5,9,-3,46,-1023
1884,21.727312,2,6,8,0,50,-1021
1885,21.738998,2,5,9,-1,54,-1027
1886,21.750656,2,6,9,0,49,-1018
1887,21.76233,2,7,9,-1,53,-1025
1888,21.774,3,7,9,-2,54,-1025
1889,21.785666,2,6,9,0,53,-1025
1890,21.797312,2,6,10,0,49,-1025
1891,21.808963,3,6,9,0,54,-1026
1892,21.820652,3,6,8,-1,53,-1021
1893,21.832302,2,6,9,0,55,-1019
1894,21.843857,3,6,9,-1,55,-1020
1895,21.855447,2,7,10,-3,49,-1018
1896,21.867006,3,6,9,0,52,-1020
1897,21.878602,2,6,9,-1,54,-1020
1898,21.890143,2,7,9,-6,54,-1022
1899,21.901689,2,5,9,0,50,-1032
1900,21.913239,2,5,9,-2,52,-1019
1901,21.924784,3,5,9,-2,53,-1025
1902,21.936427,2,6,8,-1,52,-1017
1903,21.948078,2,5,9,-3,54,-1018
1904,21.959784,2,6,8,-4,53,-1031
1905,21.971444,2,7,9,0,52,-1020
1906,21.983119,3,6,10,-1,53,-1020
1907,21.994782,3,6,7,0,53,-1021
1908,22.00646,3,5,8,-3,54,-1020
1909,22.018104,3,6,9,0,53,-1019
1910,22.029767,3,6,9,0,50,-1026
1911,22.041358,3,6,9,-3,54,-1020
1912,22.052947,3,5,9,-1,49,-1023
1913,22.064499,3,5,9,1,51,-1027
1914,22.076071,2,6,9,-3,49,-1023
1915,22.087642,2,6,10,2,56,-1015
1916,22.099179,2,6,9,-2,49,-1024
1917,22.110702,3,6,9,1,49,-1024
1918,22.122248,3,7,9,-1,52,-1024
1919,22.133829,2,6,9,-4,56,-1028
1920,22.145452,2,6,9,-1,52,-1025
1921,22.157139,2,7,9,0,56,-1025
1922,22.168805,1,6,8,-6,53,-1019
1923,22.180456,2,5,8,1,51,-1017
1924,22.192128,3,6,9,0,53,-1018
1925,22.203772,2,6,9,0,53,-1024
1926,22.215431,2,6,9,1,50,-1027
1927,22.227136,3,6,9,1,52,-1020
1928,22.238802,2,7,9,3,51,-1023
1929,22.250465,2,6,8,-2,48,-1023
1930,22.262014,3,5,9,0,47,-1017
1931,22.273557,2,5,9,-1,53,-1018
1932,22.285108,2,6,9,3,51,-1025
1933,22.296648,2,6,10,-2,49,-1019
1934,22.308198,2,6,8,1,51,-1024
1935,22.319747,2,7,8,-2,48,-1020
1936,22.331306,2,6,10,0,49,-1020
1937,22.342866,2,6,10,-4,53,-1020
1938,22.354518,3,6,10,-2,52,-1018
1939,22.36617,2,6,9,0,51,-1022
1940,22.37782,2,6,8,0,53,-1020
1941,22.389462,2,6,8,0,51,-1023
1942,22.401113,3,6,9,0,55,-1025
1943,22.412778,2,6,9,0,52,-1020
1944,22.424389,2,6,9,-4,52,-1025
1945,22.436046,2,7,8,-4,51,-1029
1946,22.447763,2,6,9,-3,54,-1022
1947,22.459418,2,7,8,-3,46,-1022
1948,22.471094,1,6,8,-4,48,-1017
1949,22.48277,3,6,9,1,52,-1016
1950,22.494411,2,6,9,-4,50,-1017
1951,22.506087,2,7,9,1,49,-1021
1952,22.517758,3,6,9,2,50,-1018
1953,22.529404,2,6,9,4,50,-1022
1954,22.541053,2,7,8,1,53,-1025
1955,22.552722,2,6,9,0,51,-1020
1956,22.56438,3,6,8,-1,52,-1022
1957,22.576035,2,7,9,1,52,-1024
1958,22.587677,3,6,9,-5,52,-1029
1959,22.599356,2,7,9,4,50,-1025
1960,22.611037,2,6,9,1,53,-1024
1961,22.622706,2,7,9,-3,55,-1022
1962,22.634355,2,6,9,-3,54,-1027
1963,22.646021,2,5,8,-2,48,-1016
1964,22.657679,2,6,9,-6,51,-1024
1965,22.669235,3,6,9,5,52,-1026
1966,22.680795,2,6,9,-1,50,-1019
1967,22.69237,2,6,9,-2,51,-1022
1968,22.703911,2,6,9,2,54,-1021
1969,22.715471,3,7,9,-2,54,-1017
1970,22.727015,3,6,8,-1,55,-1021
1971,22.738578,3,6,9,0,57,-1025
1972,22.750127,3,6,10,3,51,-1025
1973,22.761757,2,5,10,0,49,-1020
1974,22.773393,3,4,8,0,52,-1022
1975,22.785055,2,5,9,0,54,-1027
1976,22.796709,2,6,9,-1,50,-1019
1977,22.808366,3,6,8,-6,51,-1021
1978,22.820036,2,6,9,0,51,-1025
1979,22.831701,2,6,9,-3,54,-1026
1980,22.843386,2,6,8,2,55,-1014
1981,22.855051,1,6,8,-2,56,-1021
1982,22.86675,2,6,9,-3,59,-1026
1983,22.878461,2,5,9,-3,51,-1027
1984,22.890025,2,6,9,-1,50,-1025
1985,22.901594,2,6,8,0,49,-1025
1986,22.913137,2,6,9,0,53,-1024
1987,22.924679,2,6,9,-2,50,-1019
1988,22.936231,2,6,9,-4,55,-1023
1989,22.947788,2,6,8,-2,51,-1028
1990,22.959348,3,6,9,2,50,-1021
1991,22.97095,2,6,10,-5,50,-1025
1992,22.98265,2,6,9,0,53,-1024
1993,22.99431,2,6,9,0,52,-1025
1994,23.005979,3,6,10,1,54,-1021
1995,23.017627,2,6,10,2,51,-1026
1996,23.029281,2,5,9,-1,53,-1029
1997,23.040938,2,6,9,0,52,-1018
1998,23.05258,2,5,9,-4,52,-1025
1999,23.064251,2,6,9,2,54,-1028
