sample,t_s,gyro_x,gyro_y,gyro_z,accel_x,accel_y,accel_z
0,1.4e-05,0,0,1,1024,0,-1530
1,0.011264,1,2,1,1022,-1,-1533
2,0.022453,0,0,2,1022,2,-1536
3,0.033639,0,1,2,1023,0,-1528
4,0.044822,0,1,0,1020,-3,-1533
5,0.056008,0,1,1,1021,0,-1536
6,0.067191,0,1,1,1024,-2,-1531
7,0.078375,0,2,2,1021,2,-1530
8,0.089555,1,3,1,1023,-1,-1541
9,0.100736,0,2,1,1023,1,-1530
10,0.111918,1,1,1,1023,-3,-1538
11,0.123109,1,1,0,1023,0,-1533
12,0.134292,1,2,0,1021,0,-1536
13,0.145479,1,2,-1,1022,5,-1541
14,0.156664,1,1,0,1024,-3,-1535
15,0.167847,0,1,1,1025,1,-1529
16,0.17904,1,1,0,1021,-2,-1535
17,0.190227,1,3,1,1025,-1,-1534
18,0.201411,1,2,1,1019,-2,-1527
19,0.212597,0,1,0,1021,0,-1532
20,0.223779,1,2,0,1020,0,-1530
21,0.23496,1,0,0,1022,-3,-1531
22,0.246148,0,1,1,1023,0,-1534
23,0.257335,1,0,0,1021,-2,-1530
24,0.268524,0,1,1,1020,0,-1529
25,0.279712,0,1,0,1026,0,-1538
26,0.290901,0,2,1,1025,-3,-1535
27,0.302089,0,3,1,1022,0,-1532
28,0.313273,1,2,1,1025,0,-1535
29,0.324456,1,1,2,1021,-2,-1533
30,0.335648,1,2,1,1023,0,-1529
31,0.346835,1,2,0,1020,-1,-1529
32,0.358024,0,2,0,1024,0,-1529
33,0.369211,0,1,1,1028,0,-1531
34,0.380397,0,1,1,1023,0,-1534
35,0.391593,0,0,2,1020,0,-1533
36,0.402775,0,0,1,1022,1,-1538
37,0.413967,0,0,1,1023,-1,-1533
38,0.425159,0,0,1,1024,-3,-1531
39,0.436341,0,1,1,1023,-4,-1541
40,0.447523,0,1,2,1022,-1,-1539
41,0.458714,-1,0,1,1023,1,-1531
42,0.469925,0,1,2,1019,0,-1546
43,0.481108,1,1,1,1024,3,-1531
44,0.49229,0,1,1,1024,2,-1535
45,0.503475,1,2,1,1022,-3,-1536
46,0.514659,1,3,1,1020,-1,-1538
47,0.525841,1,2,1,1023,-4,-1533
48,0.537029,1,2,1,1023,0,-1534
49,0.548211,0,2,0,1025,-3,-1539
50,0.559402,1,2,1,1024,4,-1534
51,0.570593,1,2,1,1023,0,-1535
52,0.581774,1,2,0,1025,-1,-1535
53,0.592961,2,2,1,1019,-2,-1529
54,0.604143,0,1,1,1023,1,-1530
55,0.615335,1,2,0,1024,0,-1535
56,0.62652,1,1,1,1025,-2,-1536
57,0.637714,0,2,1,1023,0,-1535
58,0.648897,1,1,1,1020,4,-1536
59,0.660085,1,1,2,1023,-3,-1538
60,0.671275,0,1,2,1019,1,-1534
61,0.682459,0,1,2,1020,-1,-1533
62,0.693644,1,1,1,1023,-1,-1534
63,0.704829,0,1,2,1020,0,-1536
64,0.716017,0,1,2,1021,0,-1540
65,0.727214,0,1,1,1023,3,-1525
66,0.738397,0,1,1,1025,0,-1530
67,0.749586,0,1,1,1025,0,-1533
68,0.760773,0,0,0,1022,-2,-1530
69,0.77196,0,0,1,1023,0,-1531
70,0.783147,0,0,1,1022,0,-1533
71,0.794333,0,1,1,1023,0,-1531
72,0.805523,0,0,1,1022,2,-1537
73,0.816716,1,1,1,1021,1,-1530
74,0.827903,0,2,1,1021,1,-1536
75,0.839098,0,3,1,1023,-1,-1537
76,0.850283,0,2,1,1021,-1,-1535
77,0.86148,0,2,1,1022,-1,-1533
78,0.872663,0,0,0,1020,-1,-1530
79,0.883846,0,-1,1,1022,-1,-1533
80,0.895035,0,0,1,1027,1,-1534
81,0.906217,0,1,1,1019,-3,-1533
82,0.917403,0,0,1,1023,-2,-1532
83,0.928586,0,0,1,1019,-4,-1530
84,0.939787,0,1,2,1023,0,-1535
85,0.95096,0,0,1,1022,1,-1540
86,0.962149,0,0,1,1023,5,-1538
87,0.973332,0,0,1,1023,-2,-1533
88,0.98452,0,0,1,1025,3,-1534
89,0.995704,0,0,1,1020,0,-1533
90,1.006898,0,1,1,1019,3,-1533
91,1.018084,0,1,1,1025,1,-1532
92,1.029268,0,-1,1,1022,0,-1533
93,1.040459,0,-1,0,1023,-1,-1532
94,1.051654,0,1,0,1019,0,-1538
95,1.06284,-1,1,0,1019,0,-1533
96,1.074025,0,2,1,1024,-2,-1534
97,1.085218,1,1,1,1022,1,-1533
98,1.096403,0,2,1,1024,-1,-1535
99,1.107596,1,2,1,1023,-2,-1532
100,1.118777,0,1,1,1023,1,-1530
101,1.129967,0,1,1,1023,0,-1532
102,1.141151,0,2,1,1023,0,-1532
103,1.152336,0,1,0,1023,0,-1530
104,1.163518,0,1,1,1020,0,-1534
105,1.174709,0,2,1,1022,4,-1532
106,1.185894,0,2,1,1024,-1,-1527
107,1.197077,0,2,1,1022,-1,-1534
108,1.208265,1,3,1,1023,-2,-1534
109,1.219458,0,1,1,1023,0,-1527
110,1.230645,1,1,1,1023,0,-1534
111,1.241832,0,0,1,1024,-2,-1532
112,1.253016,0,-1,1,1022,0,-1531
113,1.264205,0,0,1,1023,0,-1531
114,1.275398,-1,0,1,1019,-2,-1538
115,1.286592,0,1,1,1023,0,-1539
116,1.297774,0,0,-1,1022,0,-1536
117,1.308959,0,0,-1,1020,0,-1532
118,1.320147,0,0,1,1024,-1,-1530
119,1.331335,1,0,0,1023,-5,-1534
120,1.34252,0,2,0,1024,0,-1531
121,1.35371,0,1,0,1025,0,-1536
122,1.364893,1,2,1,1019,0,-1536
123,1.376078,1,1,1,1022,-2,-1537
124,1.387268,0,0,1,1023,1,-1532
125,1.398452,0,2,1,1020,-2,-1525
126,1.409649,0,2,2,1021,-2,-1534
127,1.420857,1,1,1,1027,1,-1537
128,1.432043,1,0,1,1023,3,-1536
129,1.443232,0,1,0,1022,-3,-1539
130,1.454417,1,0,0,1023,0,-1538
131,1.4656,0,0,0,1024,0,-1530
132,1.476782,1,1,1,1021,0,-1529
133,1.487966,0,1,1,1019,1,-1535
134,1.499147,0,0,1,1023,0,-1532
135,1.510329,0,1,1,1023,2,-1528
136,1.521519,0,0,1,1023,-2,-1532
137,1.532704,1,0,1,1019,0,-1532
138,1.543893,-1,1,0,1023,-1,-1528
139,1.55508,0,0,1,1024,2,-1537
140,1.566264,0,0,1,1022,-1,-1527
141,1.577447,0,0,1,1023,0,-1530
142,1.588631,0,0,1,1023,0,-1537
143,1.599813,0,1,1,1022,0,-1540
144,1.610963,0,1,1,1023,0,-1537
145,1.622146,1,2,1,1017,-4,-1532
146,1.633333,0,3,1,1021,0,-1539
147,1.644518,1,2,1,1022,-4,-1530
148,1.655702,1,1,1,1021,-2,-1537
149,1.666893,0,2,1,1023,-2,-1532
150,1.678076,1,2,1,1024,-1,-1535
151,1.689266,0,1,1,1021,2,-1530
152,1.70045,0,2,1,1022,1,-1529
153,1.711644,-1,1,1,1021,-3,-1539
154,1.722832,0,-1,1,1023,-1,-1531
155,1.734019,0,0,1,1022,-4,-1533
156,1.745203,0,0,0,1019,0,-1547
157,1.756391,1,1,1,1022,0,-1539
158,1.767578,1,1,1,1024,0,-1533
159,1.778778,0,0,1,1024,0,-1531
160,1.789958,0,2,1,1023,-3,-1532
161,1.801143,-1,1,0,1021,-3,-1531
162,1.812327,0,1,0,1021,-2,-1530
163,1.823519,0,2,1,1022,-2,-1536
164,1.834712,0,1,1,1023,-3,-1530
165,1.845936,0,1,1,1020,0,-1536
166,1.857232,1,1,0,1023,0,-1530
167,1.868426,-1,1,1,1024,2,-1540
168,1.879637,1,1,0,1021,-3,-1534
169,1.890829,1,2,1,1023,0,-1531
170,1.90204,0,1,1,1020,-4,-1533
171,1.913224,0,1,1,1022,0,-1530
172,1.924409,0,1,1,1023,2,-1535
173,1.935599,1,1,0,1022,0,-1531
174,1.946777,0,2,0,1019,6,-1539
175,1.957962,0,0,1,1023,0,-1536
176,1.969147,0,1,2,1017,1,-1535
177,1.980332,0,0,2,1023,1,-1533
178,1.991517,0,0,1,1021,-1,-1536
179,2.002702,0,0,1,1023,-1,-1535
180,2.013884,0,1,1,1024,0,-1532
181,2.02507,0,1,1,1023,0,-1535
182,2.036255,0,1,1,1024,-2,-1532
183,2.047454,0,0,1,1022,1,-1531
184,2.058662,1,0,0,1025,0,-1535
185,2.0699,0,0,1,1023,0,-1540
186,2.081084,0,0,1,1022,-1,-1527
187,2.092267,0,-1,0,1023,0,-1534
188,2.103454,-1,-1,0,1023,0,-1542
189,2.114638,1,-1,1,1019,4,-1534
190,2.125823,0,0,1,1023,0,-1536
191,2.137006,0,1,1,1023,2,-1530
192,2.148191,0,-1,1,1028,0,-1535
193,2.159395,0,0,1,1022,-1,-1531
194,2.170589,1,1,1,1023,0,-1533
195,2.181771,1,2,0,1025,0,-1530
196,2.192952,0,2,0,1021,-3,-1534
197,2.204132,1,1,1,1024,3,-1533
198,2.215328,1,1,0,1021,0,-1531
199,2.226515,1,1,1,1023,0,-1540
200,2.237699,0,1,0,1023,0,-1533
201,2.248887,0,2,1,1023,-3,-1537
202,2.260073,1,2,1,1018,1,-1537
203,2.271267,0,3,1,1020,1,-1536
204,2.28245,0,2,1,1021,3,-1539
205,2.29364,0,1,1,1022,3,-1538
206,2.304824,0,1,2,1020,0,-1534
207,2.316013,1,0,2,1021,-3,-1530
208,2.327201,0,1,1,1021,1,-1534
209,2.338387,0,1,1,1024,0,-1537
210,2.349571,0,2,1,1022,0,-1534
211,2.360755,1,1,2,1022,0,-1533
212,2.371963,0,2,1,1020,-1,-1532
213,2.383146,0,1,0,1023,0,-1536
214,2.394328,0,0,1,1021,1,-1531
215,2.405512,1,0,1,1035,0,-1530
216,2.416697,0,0,0,1022,0,-1539
217,2.427883,1,-1,0,1022,1,-1534
218,2.439078,0,0,1,1025,1,-1537
219,2.45026,0,1,1,1020,1,-1533
220,2.461445,0,0,1,1020,2,-1530
221,2.472628,0,0,1,1021,2,-1535
222,2.48381,1,0,1,1023,2,-1528
223,2.494959,0,1,1,1026,2,-1540
224,2.506138,0,0,1,1022,-1,-1529
225,2.517321,0,1,1,1024,0,-1533
226,2.528526,1,2,1,1021,0,-1528
227,2.539709,1,1,1,1023,-1,-1536
228,2.550896,0,1,1,1020,0,-1529
229,2.562078,1,0,1,1020,0,-1533
230,2.573267,0,1,1,1023,0,-1537
231,2.584451,0,0,1,1025,-1,-1534
232,2.595639,0,0,1,1023,0,-1530
233,2.606831,0,1,1,1022,0,-1528
234,2.618013,0,1,1,1022,1,-1535
235,2.629198,0,1,0,1022,0,-1530
236,2.640383,0,0,0,1020,0,-1533
237,2.65157,1,1,0,1023,0,-1529
238,2.662769,1,1,1,1022,0,-1534
239,2.673952,1,1,1,1025,0,-1536
240,2.685136,2,1,0,1023,0,-1538
241,2.696319,1,1,0,1022,0,-1540
242,2.70751,1,2,1,1024,-2,-1531
243,2.718701,1,1,1,1018,1,-1524
244,2.729886,1,1,1,1020,0,-1534
245,2.741067,1,3,1,1025,5,-1535
246,2.752251,1,3,0,1023,0,-1530
247,2.763442,1,2,1,1022,-3,-1535
248,2.77459,0,2,0,1023,1,-1533
249,2.785773,1,2,1,1025,0,-1534
250,2.796953,0,1,0,1023,0,-1536
251,2.808139,1,1,-1,1022,-2,-1532
252,2.81933,1,2,1,1023,1,-1530
253,2.830511,0,1,1,1022,3,-1536
254,2.841712,0,2,1,1024,-3,-1533
255,2.852895,1,3,1,1020,0,-1536
256,2.864083,0,2,1,1020,-4,-1529
257,2.875271,0,2,0,1021,2,-1534
258,2.886453,1,2,1,1023,1,-1538
259,2.897636,0,3,1,1020,1,-1535
260,2.90882,0,2,1,1023,2,-1529
261,2.920008,0,1,1,1026,0,-1536
262,2.931197,1,2,0,1024,-2,-1529
263,2.942381,0,2,0,1021,-4,-1535
264,2.953571,1,2,0,1025,0,-1535
265,2.964754,1,1,0,1023,0,-1540
266,2.975943,1,2,1,1018,0,-1537
267,2.987141,1,1,1,1019,-2,-1528
268,2.998323,0,0,1,1021,1,-1527
269,3.009512,0,1,1,1028,1,-1537
270,3.020694,-1,0,1,1024,1,-1530
271,3.03188,1,1,1,1022,0,-1536
272,3.043075,0,0,2,1023,0,-1533
273,3.054257,0,0,1,1018,-3,-1536
274,3.065442,-1,0,1,1021,-1,-1534
275,3.076625,0,0,1,1027,0,-1532
276,3.087812,0,0,2,1026,-4,-1524
277,3.098959,-1,2,1,1023,-1,-1536
278,3.11014,0,0,1,1023,0,-1536
279,3.121323,0,2,1,1021,-1,-1533
280,3.132516,1,3,0,1023,-3,-1535
281,3.143702,1,0,1,1023,2,-1533
282,3.154889,0,0,1,1026,0,-1534
283,3.166072,1,0,1,1021,-1,-1536
284,3.177262,0,1,1,1023,0,-1527
285,3.188443,0,1,1,1019,2,-1543
286,3.19963,1,0,1,1022,1,-1530
287,3.21085,0,2,1,1022,-2,-1536
288,3.222033,1,2,1,1026,1,-1538
289,3.233215,1,2,1,1022,-2,-1530
290,3.244396,-1,1,0,1020,-5,-1535
291,3.255583,1,1,-1,1020,0,-1531
292,3.266775,0,1,1,1020,-1,-1538
293,3.277957,0,3,0,1020,-1,-1526
294,3.289138,1,2,0,1025,0,-1539
295,3.300332,1,1,1,1023,0,-1532
296,3.311513,1,1,1,1023,0,-1550
297,3.322701,0,1,0,1019,0,-1534
298,3.333885,0,2,1,1023,-3,-1538
299,3.345069,1,2,1,1021,-1,-1535
300,3.356252,1,2,1,1023,-1,-1536
301,3.367443,0,1,0,1024,-1,-1534
302,3.37859,0,2,0,1025,-1,-1536
303,3.389773,0,1,0,1024,3,-1537
304,3.400954,0,1,0,1023,-2,-1528
305,3.412136,0,0,0,1023,0,-1535
306,3.423329,0,1,0,1023,-1,-1535
307,3.434513,0,0,-1,1021,-2,-1536
308,3.445696,0,0,0,1022,2,-1532
309,3.456881,-1,0,1,1018,-1,-1533
310,3.468067,0,0,1,1022,-1,-1530
311,3.479258,0,1,0,1023,-3,-1536
312,3.490441,-1,0,0,1026,0,-1534
313,3.501626,0,-1,0,1020,-4,-1532
314,3.512811,0,0,1,1022,1,-1537
315,3.524001,-1,0,0,1023,0,-1536
316,3.535142,0,0,1,1020,-1,-1537
317,3.546324,0,1,2,1024,-2,-1536
318,3.557507,0,1,1,1017,-1,-1534
319,3.568701,0,1,1,1023,-2,-1536
320,3.579882,1,2,0,1028,-1,-1531
321,3.591071,0,-1,1,1024,4,-1535
322,3.602252,0,0,1,1021,2,-1530
323,3.613435,-1,1,1,1023,-2,-1525
324,3.624623,0,1,2,1017,-4,-1529
325,3.635808,1,1,1,1021,-2,-1537
326,3.646959,0,1,1,1021,0,-1531
327,3.658153,0,1,1,1019,0,-1532
328,3.669335,1,0,0,1023,-2,-1532
329,3.680518,1,1,2,1018,1,-1524
330,3.691701,1,1,1,1023,1,-1539
331,3.702892,1,1,2,1023,0,-1537
332,3.714073,0,1,1,1021,-3,-1535
333,3.725262,-1,2,1,1023,0,-1532
334,3.736444,0,1,1,1022,2,-1534
335,3.747634,0,1,1,1022,1,-1532
336,3.758776,0,0,1,1023,0,-1531
337,3.76996,1,2,1,1019,-1,-1532
338,3.781143,0,1,2,1024,0,-1529
339,3.792323,1,1,0,1018,0,-1536
340,3.803512,1,2,1,1023,0,-1528
341,3.814702,1,2,1,1023,-4,-1533
342,3.825884,2,3,0,1020,0,-1530
343,3.837072,1,2,1,1024,-5,-1528
344,3.848262,1,2,1,1025,-3,-1536
345,3.859451,1,1,2,1022,-1,-1537
346,3.870636,1,3,1,1021,0,-1536
347,3.881826,-1,1,1,1022,-2,-1529
348,3.893012,0,0,1,1025,0,-1534
349,3.904197,0,0,2,1024,0,-1532
350,3.915401,0,1,1,1023,-2,-1528
351,3.926591,1,0,1,1021,-3,-1532
352,3.937775,0,1,1,1019,0,-1534
353,3.948966,0,1,1,1023,1,-1533
354,3.96016,1,2,0,1020,-1,-1536
355,3.971527,0,3,1,1023,0,-1528
356,3.983211,0,1,1,1016,2,-1529
357,3.994892,0,1,1,1019,3,-1528
358,4.006539,1,1,1,1023,0,-1534
359,4.018214,0,2,0,1024,-5,-1532
360,4.029874,0,1,1,1022,-1,-1532
361,4.041522,1,1,1,1024,-4,-1534
362,4.053175,1,0,1,1023,0,-1538
363,4.064833,1,1,0,1023,2,-1527
364,4.076487,0,1,1,1022,1,-1527
365,4.088179,0,0,1,1023,-3,-1540
366,4.099827,1,1,0,1023,-2,-1529
367,4.111486,0,1,1,1022,0,-1534
368,4.123155,0,1,2,1020,0,-1528
369,4.134797,0,1,1,1024,0,-1532
370,4.146444,0,0,1,1024,0,-1535
371,4.158115,1,1,1,1022,3,-1536
372,4.169794,0,2,1,1020,2,-1531
373,4.181444,1,0,0,1023,-4,-1536
374,4.193113,0,0,0,1020,0,-1536
375,4.20476,1,0,1,1023,0,-1538
376,4.216407,1,0,0,1021,-3,-1533
377,4.22806,0,1,1,1021,-2,-1527
378,4.239711,0,1,1,1022,3,-1532
379,4.251403,0,1,0,1025,2,-1532
380,4.263045,0,1,1,1019,0,-1532
381,4.274726,0,1,1,1019,-3,-1535
382,4.286413,0,2,0,1023,-1,-1537
383,4.298057,1,1,0,1023,-4,-1525
384,4.309701,1,2,0,1022,-3,-1533
385,4.32137,0,1,1,1022,0,-1532
386,4.333015,0,1,2,1022,0,-1533
387,4.344665,1,1,1,1024,-2,-1536
388,4.356321,0,1,1,1026,-2,-1529
389,4.368007,1,1,0,1021,2,-1530
390,4.379681,1,2,1,1026,2,-1535
391,4.391414,0,1,1,1022,4,-1535
392,4.402992,1,1,1,1017,-1,-1532
393,4.414576,0,1,1,1023,4,-1527
394,4.426129,0,1,1,1024,0,-1525
395,4.437707,1,1,1,1023,-1,-1532
396,4.449253,0,1,0,1023,-1,-1529
397,4.4608,1,1,1,1025,-2,-1536
398,4.472351,0,1,1,1021,-1,-1535
399,4.484006,0,1,1,1018,-1,-1535
400,4.495663,0,1,0,1023,0,-1528
401,4.507331,0,2,1,1023,-3,-1530
402,4.519014,0,1,1,1021,3,-1533
403,4.530637,0,1,1,1020,-2,-1531
404,4.542285,0,1,2,1020,0,-1530
405,4.553932,0,2,1,1024,1,-1537
406,4.565613,0,1,0,1023,0,-1539
407,4.577264,0,1,1,1023,1,-1535
408,4.588928,1,1,1,1021,0,-1533
409,4.600609,0,0,1,1022,0,-1538
410,4.612203,0,0,1,1023,-5,-1529
411,4.623755,0,1,1,1022,4,-1539
412,4.635345,1,1,1,1025,0,-1535
413,4.646873,1,1,1,1021,2,-1530
414,4.658445,1,1,1,1023,0,-1531
415,4.669998,1,1,0,1022,0,-1532
416,4.681571,1,1,1,1023,0,-1535
417,4.693139,1,0,0,1022,-2,-1528
418,4.704756,0,0,0,1023,0,-1534
419,4.716411,0,0,0,1027,1,-1541
420,4.72808,0,2,0,1023,1,-1532
421,4.739742,1,1,0,1027,-1,-1537
422,4.751405,1,1,1,1020,-2,-1535
423,4.763092,1,1,1,1021,2,-1532
424,4.774775,1,2,1,1018,0,-1532
425,4.786428,0,1,1,1020,0,-1536
426,4.798089,0,1,0,1019,-1,-1538
427,4.809629,1,1,1,1023,2,-1531
428,4.821169,0,1,1,1025,0,-1526
429,4.83271,0,1,0,1023,1,-1537
430,4.844264,0,1,1,1024,0,-1538
431,4.855838,1,1,0,1024,1,-1531
432,4.867394,0,2,0,1022,-2,-1533
433,4.878952,0,1,1,1021,-4,-1525
434,4.890491,0,0,0,1022,-4,-1528
435,4.902054,1,1,1,1022,0,-1534
436,4.913683,0,0,1,1022,0,-1528
437,4.925353,0,0,1,1023,0,-1536
438,4.937011,0,0,1,1022,0,-1537
439,4.94865,1,1,1,1023,-1,-1534
440,4.960296,1,0,1,1021,0,-1530
441,4.971929,0,1,1,1024,0,-1529
442,4.983616,0,1,1,1020,0,-1536
443,4.995283,0,1,0,1024,2,-1530
444,5.006941,1,1,1,1027,-1,-1532
445,5.018638,1,1,1,1023,0,-1536
446,5.030238,1,1,1,1025,-5,-1533
447,5.041832,-1,0,1,1023,5,-1533
448,5.053382,1,1,1,1020,-1,-1531
449,5.06493,0,1,1,1019,0,-1533
450,5.076484,1,1,1,1023,-1,-1531
451,5.088067,1,1,0,1022,0,-1532
452,5.099599,-1,1,1,1022,1,-1539
453,5.111226,1,1,0,1023,0,-1528
454,5.122908,-1,1,0,1022,1,-1536
455,5.134566,2,0,0,1024,-6,-1531
456,5.146212,1,1,0,1023,0,-1541
457,5.157889,0,1,1,1022,2,-1529
458,5.16954,1,1,0,1025,1,-1533
459,5.181191,1,1,1,1022,2,-1530
460,5.192839,1,0,0,1016,0,-1531
461,5.204533,0,1,1,1021,0,-1536
462,5.216188,0,1,1,1020,0,-1533
463,5.227859,1,2,0,1023,1,-1529
464,5.239423,1,2,1,1026,-2,-1532
465,5.251007,0,1,1,1023,0,-1535
466,5.262559,0,1,1,1022,1,-1533
467,5.274113,0,2,1,1022,-2,-1536
468,5.285708,0,1,1,1019,0,-1532
469,5.297258,0,1,2,1024,-2,-1534
470,5.308822,1,1,1,1024,2,-1529
471,5.320373,1,1,2,1023,1,-1539
472,5.332078,1,1,1,1022,1,-1533
473,5.343736,1,2,0,1020,0,-1537
474,5.355408,1,1,1,1022,-1,-1538
475,5.367076,1,1,1,1024,-1,-1531
476,5.378746,0,1,1,1024,-2,-1532
477,5.390403,1,0,1,1020,0,-1535
478,5.402093,0,1,0,1022,-1,-1535
479,5.413739,0,1,1,1021,0,-1531
480,5.425399,1,2,2,1023,0,-1533
481,5.437064,0,1,1,1022,1,-1528
482,5.448618,0,1,0,1022,0,-1530
483,5.460166,0,1,1,1019,2,-1532
484,5.471721,0,1,1,1023,-1,-1532
485,5.48328,1,0,1,1023,-4,-1533
486,5.494874,1,1,1,1023,0,-1527
487,5.506428,0,-1,1,1019,0,-1529
488,5.517984,1,0,1,1023,0,-1525
489,5.529539,1,0,1,1018,0,-1540
490,5.5412,1,1,0,1022,-2,-1529
491,5.552856,0,1,1,1020,-3,-1535
492,5.564531,1,1,0,1022,0,-1530
493,5.576174,1,2,0,1022,0,-1532
494,5.587861,1,1,0,1025,1,-1530
495,5.599543,1,1,0,1022,-3,-1522
496,5.611202,1,1,0,1020,-1,-1536
497,5.622884,1,0,1,1021,-5,-1534
498,5.634555,1,0,1,1022,5,-1536
499,5.646202,1,1,0,1023,-5,-1532
500,5.657758,1,1,1,1023,0,-1532
501,5.669329,0,1,0,1021,2,-1536
502,5.680902,0,2,0,1021,-2,-1534
503,5.692455,1,1,1,1023,1,-1526
504,5.704009,1,2,1,1023,-1,-1528
505,5.715583,1,1,1,1019,0,-1530
506,5.72711,0,1,1,1023,1,-1535
507,5.73864,1,1,1,1023,0,-1534
508,5.750266,1,2,1,1019,-2,-1534
509,5.76192,0,1,1,1024,2,-1541
510,5.773613,1,2,1,1018,-1,-1534
511,5.78526,1,0,1,1021,3,-1530
512,5.796911,1,1,1,1024,2,-1538
513,5.808571,0,1,1,1018,0,-1534
514,5.820215,1,1,2,1026,-4,-1531
515,5.8319,1,1,1,1021,2,-1531
516,5.843577,1,0,1,1022,1,-1544
517,5.855231,1,1,1,1020,0,-1537
518,5.866916,1,1,1,1026,-1,-1532
519,5.878578,1,0,1,1019,-3,-1532
520,5.890232,1,1,1,1021,-1,-1541
521,5.901882,1,1,0,1023,-2,-1531
522,5.913533,0,1,0,1023,0,-1532
523,5.925172,0,1,1,1023,0,-1534
524,5.936849,0,1,1,1023,-3,-1529
525,5.948589,0,0,1,1020,-1,-1537
526,5.960235,0,1,2,1021,1,-1534
527,5.971828,1,0,1,1023,-1,-1532
528,5.983344,0,1,1,1022,0,-1536
529,5.994862,1,1,2,1023,0,-1543
530,6.006436,0,1,1,1023,-4,-1536
531,6.017981,1,1,0,1019,-4,-1529
532,6.029523,1,1,1,1023,-1,-1534
533,6.041073,0,1,0,1024,0,-1533
534,6.05264,0,0,0,1021,0,-1532
535,6.06427,1,-1,0,1021,1,-1538
536,6.075932,0,1,2,1021,-1,-1531
537,6.087599,1,1,0,1022,1,-1533
538,6.099273,0,1,0,1022,-2,-1530
539,6.110896,0,2,1,1023,-1,-1527
540,6.122536,1,1,1,1022,-2,-1527
541,6.13418,1,1,1,1022,0,-1535
542,6.14587,0,2,1,1025,0,-1526
543,6.157527,0,1,0,1019,-2,-1538
544,6.16918,1,1,0,1024,-1,-1531
545,6.180853,0,0,1,1023,6,-1530
546,6.192498,1,1,1,1022,-3,-1542
547,6.204174,0,1,0,1023,1,-1536
548,6.215852,0,1,1,1021,-1,-1527
549,6.227523,0,1,0,1025,5,-1533
550,6.23917,0,1,0,1020,3,-1531
551,6.250856,1,0,1,1023,-7,-1533
552,6.26254,0,0,1,1024,-2,-1531
553,6.274207,0,1,2,1021,-4,-1538
554,6.285865,0,1,2,1024,-1,-1532
555,6.29751,0,1,1,1020,0,-1533
556,6.309158,1,0,0,1023,-4,-1535
557,6.320793,0,0,1,1023,-4,-1528
558,6.332437,0,1,1,1023,0,-1533
559,6.344107,1,1,1,1023,4,-1534
560,6.355777,1,1,1,1022,1,-1537
561,6.367437,0,1,1,1023,-1,-1532
562,6.379136,0,1,0,1023,1,-1535
563,6.39079,1,1,2,1023,0,-1531
564,6.402435,0,2,1,1024,-2,-1534
565,6.414106,0,1,0,1023,-3,-1532
566,6.425746,1,1,1,1020,0,-1529
567,6.43739,0,1,1,1023,-1,-1530
568,6.449036,1,0,2,1019,0,-1534
569,6.4607,0,1,1,1023,1,-1540
570,6.472376,0,0,1,1024,-1,-1532
571,6.484061,0,0,2,1023,0,-1534
572,6.495728,0,2,1,1023,0,-1533
573,6.507413,0,2,2,1023,-3,-1533
574,6.519071,0,0,1,1020,3,-1533
575,6.530751,0,0,2,1018,0,-1532
576,6.542398,1,0,1,1022,0,-1524
577,6.554043,0,1,1,1022,0,-1533
578,6.565689,0,1,1,1025,-3,-1540
579,6.577387,0,2,0,1019,0,-1533
580,6.589029,0,1,0,1022,-2,-1535
581,6.600672,0,1,1,1024,-1,-1533
582,6.612351,1,1,1,1019,-1,-1532
583,6.623999,-1,1,1,1025,0,-1533
584,6.635663,1,2,1,1023,1,-1532
585,6.647344,0,1,1,1020,0,-1529
586,6.659017,1,1,0,1026,0,-1534
587,6.670674,1,1,1,1024,0,-1537
588,6.682363,0,1,1,1027,-1,-1530
589,6.694018,1,2,1,1023,-2,-1534
590,6.705581,1,1,1,1021,-1,-1541
591,6.717127,0,1,1,1023,-1,-1533
592,6.728675,0,1,1,1022,0,-1536
593,6.740237,0,1,1,1023,1,-1534
594,6.751821,0,1,1,1021,1,-1535
595,6.76335,0,2,1,1022,-1,-1537
596,6.774867,0,1,1,1020,-1,-1532
597,6.786427,0,2,1,1022,-2,-1534
598,6.798063,1,1,1,1023,-1,-1534
599,6.809728,1,0,1,1022,0,-1528
600,6.821378,1,1,1,1023,-1,-1535
601,6.833022,0,1,0,1025,-3,-1532
602,6.84467,0,1,0,1023,-2,-1537
603,6.856338,1,1,1,1022,3,-1534
604,6.867993,0,1,1,1023,-3,-1534
605,6.879666,0,0,1,1018,0,-1530
606,6.89136,0,1,2,1026,0,-1534
607,6.903009,1,0,0,1018,0,-1535
608,6.91456,1,0,1,1026,0,-1539
609,6.926102,1,1,1,1020,0,-1538
610,6.937643,0,1,1,1023,0,-1532
611,6.949193,0,2,1,1020,0,-1538
612,6.96078,0,1,0,1023,-2,-1530
613,6.972334,1,1,1,1020,0,-1534
614,6.983938,0,1,1,1025,-2,-1536
615,6.995498,0,1,1,1022,3,-1528
616,7.007144,0,1,1,1022,0,-1534
617,7.018796,1,0,0,1024,-1,-1527
618,7.030463,1,1,1,1022,1,-1532
619,7.042118,0,0,0,1020,0,-1542
620,7.053763,0,0,0,1023,-2,-1540
621,7.065417,0,1,1,1022,1,-1531
622,7.077062,1,1,1,1021,-2,-1537
623,7.088708,0,1,1,1020,-2,-1531
624,7.100382,0,1,1,1024,0,-1532
625,7.112049,0,1,1,1023,1,-1535
626,7.123709,0,1,1,1025,4,-1532
627,7.135399,1,1,1,1023,0,-1541
628,7.147049,0,0,1,1019,0,-1533
629,7.158696,-1,1,1,1022,5,-1529
630,7.170357,0,1,1,1023,3,-1532
631,7.182003,0,1,2,1024,-2,-1535
632,7.193652,1,1,0,1023,-2,-1535
633,7.205348,0,0,0,1022,-1,-1543
634,7.216998,1,0,1,1021,-3,-1529
635,7.228646,0,0,1,1025,-2,-1528
636,7.240305,-1,2,1,1019,3,-1535
637,7.251966,1,1,1,1024,-1,-1540
638,7.263645,1,1,2,1024,2,-1533
639,7.275318,1,1,1,1022,3,-1532
640,7.286972,1,0,1,1022,-1,-1536
641,7.298638,-1,1,1,1023,0,-1536
642,7.310307,1,0,1,1027,-1,-1530
643,7.32197,0,1,1,1023,0,-1534
644,7.333622,0,2,1,1023,-4,-1535
645,7.34526,1,1,0,1022,0,-1535
646,7.356926,0,1,1,1024,0,-1531
647,7.368594,1,1,1,1021,-1,-1526
648,7.380243,0,0,0,1018,-2,-1536
649,7.39191,1,1,0,1022,-2,-1533
650,7.403585,1,1,2,1018,-3,-1540
651,7.415276,0,1,1,1020,0,-1532
652,7.426994,1,1,0,1021,-3,-1526
653,7.438556,0,1,1,1016,-2,-1537
654,7.450093,0,1,1,1026,-3,-1531
655,7.461629,0,0,1,1023,0,-1530
656,7.473177,0,0,1,1024,-6,-1530
657,7.48472,1,0,1,1023,2,-1530
658,7.496277,0,1,1,1020,-3,-1531
659,7.50784,0,2,0,1019,0,-1533
660,7.519447,1,1,1,1022,-1,-1534
661,7.531132,0,1,1,1023,4,-1541
662,7.542786,0,0,0,1023,-3,-1526
663,7.554457,0,1,1,1020,1,-1534
664,7.566111,1,1,0,1022,-4,-1538
665,7.577752,0,1,1,1023,-1,-1535
666,7.589399,0,1,1,1021,0,-1537
667,7.601052,0,1,1,1023,-1,-1529
668,7.612692,0,0,1,1020,-2,-1529
669,7.624389,1,2,1,1019,0,-1539
670,7.636071,0,1,1,1023,-2,-1530
671,7.64773,0,1,1,1023,-1,-1536
672,7.659402,0,1,1,1021,0,-1538
673,7.671069,0,1,1,1021,-2,-1531
674,7.682748,0,1,1,1020,-1,-1534
675,7.694391,0,0,0,1022,2,-1532
676,7.706041,0,0,1,1025,-1,-1536
677,7.717683,0,0,2,1023,-4,-1535
678,7.729366,1,1,0,1024,-4,-1541
679,7.740976,0,1,0,1022,-1,-1529
680,7.752527,1,1,0,1020,1,-1533
681,7.764076,0,1,1,1023,4,-1530
682,7.775684,0,0,1,1022,-1,-1536
683,7.787237,1,1,1,1019,0,-1542
684,7.798784,0,1,0,1020,1,-1535
685,7.810334,1,0,0,1024,-2,-1528
686,7.821928,0,0,1,1024,-4,-1544
687,7.833496,1,1,1,1022,2,-1530
688,7.845298,1,0,0,1024,-5,-1533
689,7.857116,0,1,1,1023,-2,-1535
690,7.868776,1,1,1,1022,-1,-1534
691,7.880437,1,0,0,1023,-2,-1537
692,7.892118,0,1,0,1022,0,-1528
693,7.903798,0,0,1,1022,-2,-1527
694,7.915474,0,0,1,1023,0,-1527
695,7.927153,0,1,0,1022,1,-1532
696,7.938917,1,0,1,1020,1,-1529
697,7.950629,0,1,1,1023,1,-1540
698,7.962202,1,2,0,1023,1,-1539
699,7.973773,1,1,1,1023,1,-1535
700,7.98533,0,0,1,1022,3,-1534
701,7.996944,1,1,0,1019,0,-1541
702,8.008499,1,1,1,1023,0,-1531
703,8.02007,0,1,0,1023,0,-1527
704,8.031583,1,1,0,1025,-1,-1531
705,8.043119,0,1,0,1022,0,-1535
706,8.054766,0,0,0,1018,-2,-1541
707,8.066444,0,1,1,1023,2,-1532
708,8.078104,0,0,1,1023,2,-1538
709,8.08978,1,0,1,1025,-1,-1531
710,8.101473,0,1,1,1026,-2,-1533
711,8.113114,0,1,1,1022,-1,-1538
712,8.124761,1,1,0,1019,-1,-1528
713,8.136421,0,1,0,1023,3,-1535
714,8.148104,0,0,1,1026,0,-1533
715,8.159758,0,1,1,1022,0,-1539
716,8.171347,1,1,0,1023,-4,-1538
717,8.182929,1,1,1,1021,0,-1540
718,8.194474,0,1,1,1022,0,-1536
719,8.206031,1,1,1,1021,-3,-1544
720,8.21758,0,1,0,1025,0,-1529
721,8.229126,0,1,2,1023,0,-1537
722,8.240669,1,2,0,1027,0,-1530
723,8.252231,0,1,1,1023,0,-1535
724,8.263859,1,0,1,1020,-1,-1531
725,8.275549,0,1,1,1022,0,-1538
726,8.287224,1,1,1,1023,0,-1527
727,8.298898,0,1,1,1023,-2,-1532
728,8.310543,1,1,1,1022,0,-1534
729,8.32219,0,1,1,1023,-3,-1536
730,8.333854,-1,2,1,1023,-3,-1532
731,8.345497,0,0,2,1020,2,-1538
732,8.357179,0,2,1,1019,-1,-1537
733,8.368855,0,1,1,1021,-1,-1535
734,8.380425,1,1,1,1021,1,-1536
735,8.391984,0,1,1,1020,-4,-1533
736,8.403555,0,1,1,1021,-5,-1529
737,8.415109,0,2,1,1024,-4,-1531
738,8.426625,0,1,0,1023,0,-1529
739,8.438171,-1,2,0,1023,0,-1534
740,8.449717,0,0,1,1023,-5,-1537
741,8.461315,0,2,1,1023,0,-1527
742,8.473007,0,1,1,1023,-2,-1536
743,8.484674,1,2,1,1023,-2,-1533
744,8.496341,0,1,1,1024,-1,-1536
745,8.507998,1,1,1,1023,0,-1532
746,8.519687,1,1,1,1021,-2,-1536
747,8.531342,0,2,1,1023,3,-1540
748,8.543017,1,1,0,1023,-1,-1535
749,8.554698,0,2,2,1028,0,-1539
750,8.566375,1,1,0,1023,-5,-1532
751,8.578023,0,1,1,1020,3,-1530
752,8.589577,1,1,2,1025,0,-1538
753,8.601121,1,1,2,1024,0,-1536
754,8.612667,0,1,1,1024,-3,-1529
755,8.624216,1,1,1,1023,0,-1530
756,8.635791,0,1,1,1018,-1,-1528
757,8.647366,1,2,1,1023,1,-1535
758,8.658926,0,1,1,1023,-2,-1533
759,8.670517,1,1,1,1029,-3,-1525
760,8.682142,1,1,1,1023,0,-1535
761,8.693836,1,0,0,1025,-1,-1537
762,8.705489,1,0,0,1018,0,-1529
763,8.717134,1,0,0,1020,2,-1532
764,8.728804,0,1,1,1021,-1,-1533
765,8.740488,0,1,2,1023,0,-1537
766,8.752164,0,1,1,1025,2,-1540
767,8.763846,1,2,1,1023,-2,-1535
768,8.775524,0,1,1,1021,3,-1529
769,8.787147,1,1,1,1022,-1,-1527
770,8.798794,1,2,0,1021,0,-1534
771,8.810478,0,1,0,1025,0,-1534
772,8.822128,1,1,1,1022,-2,-1532
773,8.833812,1,1,1,1025,-2,-1538
774,8.845467,0,1,2,1024,0,-1534
775,8.857121,0,1,1,1027,-1,-1531
776,8.868771,1,1,1,1024,-5,-1530
777,8.880429,1,2,0,1025,-2,-1540
778,8.892093,0,1,0,1020,1,-1528
779,8.903674,1,1,0,1022,0,-1533
780,8.915242,1,1,0,1024,-3,-1535
781,8.926796,1,1,1,1022,0,-1536
782,8.938339,0,2,1,1021,0,-1536
783,8.94989,0,2,1,1019,0,-1535
784,8.961436,0,2,0,1020,-3,-1532
785,8.973014,0,1,1,1022,-1,-1534
786,8.984578,1,1,0,1020,-2,-1525
787,8.996264,0,1,1,1019,0,-1528
788,9.007931,1,1,1,1022,3,-1530
789,9.019605,0,0,1,1025,0,-1534
790,9.031274,1,0,1,1025,-1,-1537
791,9.042896,1,1,0,1026,0,-1535
792,9.054559,0,2,2,1019,-4,-1533
793,9.06622,0,1,1,1022,-3,-1533
794,9.077871,0,0,0,1021,-1,-1536
795,9.089532,0,1,1,1023,-1,-1530
796,9.10124,0,1,1,1023,1,-1534
797,9.112809,0,1,1,1020,3,-1530
798,9.124361,0,1,1,1024,1,-1536
799,9.135917,0,1,1,1021,0,-1531
800,9.147481,0,0,1,1022,1,-1539
801,9.15905,0,1,0,1018,1,-1541
802,9.170629,0,1,0,1020,0,-1534
803,9.182186,0,1,1,1023,0,-1530
804,9.193762,0,2,1,1018,-3,-1532
805,9.205399,1,0,1,1022,-5,-1530
806,9.217073,1,1,1,1018,-4,-1538
807,9.228724,1,1,1,1020,3,-1537
808,9.240377,0,1,1,1021,0,-1531
809,9.252069,1,1,1,1023,2,-1537
810,9.263733,0,1,0,1026,-2,-1530
811,9.27543,0,1,1,1021,2,-1533
812,9.287091,0,1,1,1023,0,-1528
813,9.298776,1,1,1,1023,-3,-1542
814,9.310437,1,1,1,1020,1,-1531
815,9.322028,1,1,1,1024,0,-1530
816,9.333577,1,2,1,1023,0,-1524
817,9.345125,0,1,0,1022,-1,-1541
818,9.356673,1,1,1,1024,-3,-1535
819,9.368242,1,1,1,1025,0,-1530
820,9.379819,1,1,1,1022,-2,-1534
821,9.391353,0,1,1,1023,3,-1539
822,9.402929,1,1,0,1025,2,-1533
823,9.414533,2,2,1,1020,-1,-1533
824,9.4262,1,1,1,1023,0,-1538
825,9.437856,0,1,0,1023,0,-1533
826,9.4495,0,1,0,1020,1,-1535
827,9.461158,0,0,0,1023,3,-1533
828,9.472825,0,1,0,1024,-2,-1530
829,9.484487,0,1,1,1023,-5,-1534
830,9.496184,0,0,0,1017,-2,-1530
831,9.507842,0,1,1,1023,0,-1536
832,9.519419,0,1,1,1018,-3,-1534
833,9.530984,0,1,1,1024,0,-1533
834,9.542533,0,0,1,1023,-1,-1532
835,9.554076,0,1,1,1024,-4,-1538
836,9.565612,0,1,1,1025,-2,-1536
837,9.577179,0,1,2,1023,-1,-1540
838,9.58875,0,2,1,1018,2,-1531
839,9.6003,0,1,1,1024,-1,-1534
840,9.611842,0,0,1,1023,-3,-1539
841,9.623469,1,1,0,1023,2,-1534
842,9.63514,1,1,1,1024,0,-1534
843,9.646815,1,1,1,1019,-3,-1535
844,9.65847,0,1,1,1021,-1,-1538
845,9.67012,0,1,1,1023,-1,-1535
846,9.681775,0,1,1,1023,0,-1528
847,9.693444,0,1,1,1026,0,-1525
848,9.705094,1,1,1,1020,0,-1531
849,9.716737,0,1,1,1021,-1,-1532
850,9.728289,0,1,0,1019,3,-1538
851,9.739832,1,1,1,1023,0,-1537
852,9.751353,0,1,1,1023,1,-1526
853,9.762868,1,1,1,1023,-4,-1530
854,9.774409,1,1,1,1021,-1,-1534
855,9.785957,1,1,1,1022,-1,-1532
856,9.797529,0,1,1,1021,1,-1538
857,9.809085,1,1,0,1023,0,-1536
858,9.820662,0,1,1,1021,2,-1534
859,9.832281,0,1,1,1024,-1,-1534
860,9.843972,1,2,0,1024,0,-1534
861,9.855685,0,2,1,1020,0,-1535
862,9.867345,0,1,2,1023,-2,-1534
863,9.879031,0,1,0,1022,1,-1533
864,9.890703,1,1,1,1021,-2,-1529
865,9.90236,0,1,1,1020,-2,-1537
866,9.914005,0,1,2,1021,1,-1531
867,9.925685,1,1,1,1023,2,-1535
868,9.937344,0,1,1,1023,-3,-1538
869,9.948933,0,1,1,1023,0,-1535
870,9.960538,0,1,1,1023,5,-1534
871,9.972078,1,1,1,1022,-1,-1528
872,9.983587,0,1,0,1023,-4,-1538
873,9.995096,1,1,0,1020,-2,-1537
874,10.006625,1,1,1,1023,-1,-1534
875,10.018174,0,0,0,1022,1,-1535
876,10.029737,1,1,0,1023,1,-1534
877,10.041358,1,1,1,1023,1,-1534
878,10.052998,0,1,1,1023,1,-1535
879,10.064643,1,1,1,1021,2,-1531
880,10.076313,0,1,1,1024,-1,-1535
881,10.087973,0,1,1,1021,-3,-1531
882,10.099656,0,1,1,1023,0,-1531
883,10.111314,1,1,1,1022,1,-1531
884,10.122969,1,1,0,1024,-3,-1532
885,10.134698,0,0,1,1024,-2,-1537
886,10.146272,-1,1,1,1022,-5,-1535
887,10.157826,0,1,1,1024,0,-1534
888,10.169382,1,1,1,1023,0,-1535
889,10.180938,0,1,1,1021,0,-1534
890,10.192523,0,1,2,1023,-1,-1529
891,10.204075,1,1,1,1022,0,-1528
892,10.215664,0,1,1,1021,1,-1536
893,10.22723,1,1,0,1023,0,-1536
894,10.238785,0,1,1,1023,0,-1537
895,10.250453,0,0,1,1025,-1,-1527
896,10.262107,1,1,0,1022,-2,-1537
897,10.273755,1,2,1,1026,-4,-1534
898,10.285424,0,1,1,1018,2,-1538
899,10.297076,1,1,1,1023,0,-1531
900,10.308728,0,0,1,1022,-3,-1534
901,10.320402,0,1,1,1023,0,-1528
902,10.332079,1,1,1,1024,-3,-1538
903,10.343746,1,0,1,1021,0,-1536
904,10.35543,1,0,1,1021,-1,-1544
905,10.367098,1,0,0,1023,0,-1538
906,10.378764,0,1,0,1023,-2,-1533
907,10.390418,0,1,0,1023,-2,-1529
908,10.402088,0,0,1,1023,-3,-1539
909,10.41374,1,1,1,1020,-4,-1529
910,10.425388,0,1,1,1021,-6,-1536
911,10.437058,1,0,1,1027,-2,-1530
912,10.448738,1,1,1,1023,-1,-1532
913,10.460391,0,0,1,1021,0,-1539
914,10.472073,0,1,0,1022,0,-1532
915,10.483727,0,1,0,1022,0,-1532
916,10.495393,0,1,1,1022,0,-1540
917,10.50708,1,1,1,1023,0,-1534
918,10.518752,0,0,1,1023,0,-1536
919,10.530402,1,0,1,1023,0,-1531
920,10.542074,0,2,1,1020,1,-1535
921,10.55373,1,1,1,1024,-1,-1541
922,10.565397,0,0,0,1021,2,-1533
923,10.576971,0,1,1,1023,-1,-1534
924,10.588546,0,1,1,1022,-3,-1529
925,10.60009,0,1,1,1021,2,-1539
926,10.611646,1,1,1,1023,-3,-1534
927,10.623229,0,1,0,1016,-1,-1534
928,10.634786,1,0,0,1023,0,-1537
929,10.646334,1,2,1,1023,-1,-1533
930,10.657896,0,1,0,1023,-3,-1535
931,10.66952,2,1,1,1021,-1,-1531
932,10.681171,0,1,0,1022,-2,-1531
933,10.692842,0,2,1,1023,1,-1531
934,10.704498,1,1,1,1023,0,-1530
935,10.71618,1,1,1,1021,2,-1525
936,10.727843,0,1,1,1021,0,-1536
937,10.739534,1,1,1,1024,0,-1541
938,10.751157,0,1,0,1023,-1,-1532
939,10.762829,1,1,0,1022,0,-1532
940,10.77451,1,1,1,1021,-1,-1536
941,10.786079,1,1,1,1019,0,-1534
942,10.797637,0,1,2,1024,0,-1532
943,10.809191,1,1,1,1024,-1,-1533
944,10.820772,0,2,0,1026,0,-1531
945,10.832324,0,1,0,1023,1,-1536
946,10.843901,1,1,1,1021,-1,-1539
947,10.855468,0,1,1,1021,-1,-1536
948,10.867037,1,1,1,1023,0,-1534
949,10.87874,1,1,1,1026,0,-1526
950,10.890401,0,0,1,1023,-3,-1536
951,10.90206,0,2,2,1021,2,-1530
952,10.913707,0,1,1,1021,2,-1532
953,10.925355,0,0,1,1022,1,-1534
954,10.936995,1,0,1,1017,1,-1528
955,10.948665,0,1,0,1021,1,-1530
956,10.960333,0,0,0,1023,0,-1528
957,10.971996,0,1,1,1024,-2,-1535
958,10.983655,0,1,1,1023,-2,-1537
959,10.995234,1,1,0,1023,0,-1526
960,11.006786,1,0,0,1022,0,-1538
961,11.018384,1,2,1,1023,-4,-1529
962,11.029936,1,2,1,1022,2,-1535
963,11.041523,0,1,1,1022,-1,-1538
964,11.053097,1,1,1,1020,0,-1529
965,11.064645,0,1,1,1022,1,-1535
966,11.076207,0,1,0,1020,0,-1538
967,11.087839,0,0,1,1019,2,-1535
968,11.099543,0,0,1,1020,-3,-1535
969,11.11121,1,1,1,1021,-1,-1532
970,11.122887,0,1,1,1023,1,-1537
971,11.134534,0,1,0,1024,1,-1538
972,11.146193,0,0,1,1023,-3,-1533
973,11.157848,0,1,1,1022,1,-1536
974,11.16949,0,1,2,1022,-4,-1536
975,11.181144,1,1,1,1020,0,-1531
976,11.192808,2,1,1,1020,3,-1537
977,11.204368,0,0,0,1020,0,-1536
978,11.215951,1,1,1,1025,-1,-1531
979,11.227527,1,1,1,1026,-1,-1539
980,11.239126,1,2,1,1023,-2,-1537
981,11.250685,1,1,1,1018,-3,-1538
982,11.262268,1,0,1,1023,-2,-1535
983,11.273813,1,0,1,1023,0,-1534
984,11.285364,1,1,1,1020,4,-1531
985,11.296985,1,1,1,1023,0,-1532
986,11.30863,0,1,0,1022,1,-1528
987,11.32033,0,2,1,1024,-2,-1535
988,11.331988,1,1,1,1020,1,-1533
989,11.34365,1,1,1,1025,0,-1536
990,11.355317,0,2,1,1023,0,-1534
991,11.366974,0,1,2,1022,-3,-1532
992,11.378635,0,1,1,1023,-1,-1537
993,11.390315,1,2,1,1025,0,-1537
994,11.401962,0,2,1,1023,-4,-1532
995,11.413528,0,2,1,1020,-3,-1534
996,11.425094,0,1,0,1025,0,-1531
997,11.436642,1,1,1,1027,-1,-1529
998,11.448194,1,1,1,1023,-3,-1533
999,11.459766,0,1,1,1022,-1,-1532
1000,11.471342,0,1,1,1021,-2,-1538
1001,11.482869,0,1,1,1019,0,-1538
1002,11.494419,0,1,1,1026,0,-1532
1003,11.506042,0,1,1,1023,-2,-1533
1004,11.517702,1,0,1,1019,2,-1528
1005,11.52935,0,1,0,1023,0,-1535
1006,11.541009,0,1,1,1023,-1,-1533
1007,11.552675,1,1,1,1019,-5,-1533
1008,11.564333,0,0,1,1022,-1,-1534
1009,11.575993,0,1,1,1020,0,-1532
1010,11.587683,0,0,1,1023,0,-1532
1011,11.599353,0,1,1,1024,0,-1538
1012,11.611037,0,1,1,1021,-2,-1529
1013,11.622693,1,1,0,1022,-3,-1528
1014,11.634345,0,1,1,1022,0,-1530
1015,11.64599,0,1,1,1025,-6,-1533
1016,11.657639,1,1,1,1024,0,-1533
1017,11.669312,0,1,1,1025,-3,-1539
1018,11.680958,0,1,1,1022,1,-1538
1019,11.692627,0,1,1,1022,-1,-1531
1020,11.704309,0,1,0,1023,0,-1530
1021,11.715965,0,1,1,1021,-1,-1534
1022,11.727645,0,1,0,1025,0,-1530
1023,11.739325,0,1,1,1023,-3,-1535
1024,11.750972,1,2,1,1023,-2,-1527
1025,11.762639,1,1,1,1023,0,-1537
1026,11.774313,0,2,0,1023,0,-1534
1027,11.785959,0,2,0,1023,-2,-1533
1028,11.797629,0,1,2,1019,2,-1538
1029,11.809299,0,1,1,1030,-7,-1532
1030,11.820846,0,1,1,1024,0,-1531
1031,11.832389,0,1,1,1023,3,-1535
1032,11.843993,0,1,1,1021,0,-1532
1033,11.855578,0,1,2,1022,-1,-1531
1034,11.867113,0,1,1,1020,-4,-1527
1035,11.878626,0,0,0,1022,-1,-1532
1036,11.890173,0,2,1,1022,-1,-1536
1037,11.90175,1,2,0,1023,-5,-1535
1038,11.913315,1,1,0,1022,0,-1534
1039,11.924989,0,0,1,1023,-3,-1540
1040,11.93668,1,1,1,1023,0,-1531
1041,11.948328,0,2,1,1024,-2,-1537
1042,11.959994,1,0,1,1020,0,-1536
1043,11.971693,0,1,1,1021,-3,-1535
1044,11.983338,0,1,1,1019,0,-1531
1045,11.995039,0,1,1,1023,-4,-1528
1046,12.006713,0,2,1,1022,-3,-1532
1047,12.018372,1,1,0,1021,-2,-1537
1048,12.030057,0,1,1,1023,-5,-1526
1049,12.04161,0,1,1,1025,0,-1533
1050,12.053186,0,2,1,1023,0,-1537
1051,12.06473,0,1,1,1025,-1,-1536
1052,12.076283,0,1,0,1023,0,-1532
1053,12.087846,0,1,0,1023,0,-1536
1054,12.099395,1,1,1,1024,-3,-1526
1055,12.110942,0,1,2,1021,1,-1536
1056,12.122498,1,1,1,1023,-4,-1532
1057,12.134048,0,2,1,1023,0,-1527
1058,12.145595,1,1,2,1024,-6,-1533
1059,12.157149,0,1,2,1020,1,-1526
1060,12.168707,0,1,1,1024,0,-1526
1061,12.180258,1,1,1,1024,0,-1534
1062,12.191832,1,2,0,1023,1,-1530
1063,12.203354,0,1,1,1020,0,-1526
1064,12.21487,0,1,0,1022,0,-1533
1065,12.226471,0,1,0,1018,1,-1532
1066,12.238107,0,1,1,1019,3,-1531
1067,12.249766,1,0,1,1019,-2,-1533
1068,12.261427,0,0,1,1023,0,-1532
1069,12.273085,1,1,0,1023,-1,-1527
1070,12.284726,0,1,1,1027,-1,-1539
1071,12.296428,0,1,1,1025,-1,-1537
1072,12.308236,0,1,1,1023,-2,-1541
1073,12.319931,1,1,0,1025,2,-1535
1074,12.331616,1,1,0,1022,0,-1534
1075,12.343305,1,0,0,1018,0,-1534
1076,12.354963,0,1,1,1021,1,-1533
1077,12.366633,1,1,0,1020,0,-1532
1078,12.378308,0,1,1,1024,-4,-1534
1079,12.389954,1,0,1,1022,-2,-1531
1080,12.401601,2,1,1,1025,0,-1533
1081,12.413246,0,1,1,1025,0,-1537
1082,12.424939,0,1,1,1024,-3,-1533
1083,12.436621,0,1,1,1020,1,-1526
1084,12.448285,0,1,1,1019,2,-1534
1085,12.459834,1,1,1,1019,0,-1532
1086,12.471351,0,1,0,1023,-1,-1538
1087,12.482867,0,1,0,1023,-1,-1533
1088,12.494407,0,1,2,1024,0,-1535
1089,12.505979,0,2,2,1022,0,-1533
1090,12.517529,0,1,0,1021,0,-1532
1091,12.52908,0,1,1,1024,-2,-1535
1092,12.54065,0,1,2,1021,-1,-1535
1093,12.552273,0,1,1,1024,-2,-1540
1094,12.563928,1,2,1,1026,1,-1540
1095,12.575582,0,1,1,1020,0,-1532
1096,12.58728,0,1,1,1019,-1,-1527
1097,12.598936,0,2,1,1024,0,-1536
1098,12.610611,1,1,1,1024,0,-1537
1099,12.622278,0,1,1,1023,2,-1537
1100,12.633927,0,1,0,1021,0,-1538
1101,12.645594,1,1,1,1022,-1,-1543
1102,12.657258,1,1,1,1022,2,-1534
1103,12.668906,0,1,2,1023,-3,-1540
1104,12.680568,1,0,1,1023,0,-1531
1105,12.692214,0,1,0,1023,0,-1535
1106,12.703894,1,1,1,1025,1,-1536
1107,12.715564,1,1,1,1023,-3,-1534
1108,12.72721,0,1,1,1024,0,-1538
1109,12.738877,1,1,1,1025,-3,-1532
1110,12.750572,0,1,0,1023,3,-1534
1111,12.762222,0,1,0,1026,0,-1534
1112,12.77387,1,1,0,1023,2,-1532
1113,12.785547,1,1,1,1021,-7,-1534
1114,12.797212,1,1,1,1021,3,-1536
1115,12.808855,0,1,1,1021,-2,-1534
1116,12.820542,0,0,1,1022,-2,-1535
1117,12.832185,0,0,1,1019,-3,-1532
1118,12.843842,0,1,0,1024,-2,-1532
1119,12.855549,0,1,0,1025,0,-1536
1120,12.867213,0,1,1,1020,2,-1531
1121,12.87878,-1,1,1,1020,0,-1532
1122,12.89033,0,2,1,1020,2,-1531
1123,12.901879,1,0,1,1021,2,-1542
1124,12.913444,1,2,0,1023,2,-1532
1125,12.924992,0,1,1,1023,0,-1533
1126,12.936545,0,1,1,1020,1,-1533
1127,12.948093,0,0,1,1023,3,-1529
1128,12.959654,0,1,1,1022,3,-1541
1129,12.971308,0,1,0,1022,0,-1536
1130,12.982967,0,1,0,1024,0,-1532
1131,12.994634,0,1,1,1023,0,-1531
1132,13.0063,-1,1,1,1021,2,-1531
1133,13.017947,0,2,1,1023,-3,-1535
1134,13.029598,1,1,1,1024,-3,-1531
1135,13.04124,0,1,0,1023,-4,-1538
1136,13.052888,1,1,1,1022,0,-1532
1137,13.064572,0,1,1,1024,0,-1529
1138,13.076224,0,1,1,1023,-2,-1536
1139,13.087918,1,1,1,1022,0,-1532
1140,13.09959,1,0,1,1025,0,-1535
1141,13.111279,0,1,1,1022,0,-1532
1142,13.122939,0,1,1,1024,-3,-1533
1143,13.134613,0,0,1,1024,-2,-1529
1144,13.146257,1,1,1,1022,0,-1529
1145,13.157937,1,1,1,1023,-1,-1531
1146,13.16959,-1,2,0,1020,1,-1527
1147,13.18115,0,1,0,1024,0,-1533
1148,13.19273,0,1,1,1022,-1,-1531
1149,13.204276,0,0,1,1023,0,-1531
1150,13.215856,0,1,1,1023,-1,-1534
1151,13.227403,0,0,1,1021,2,-1535
1152,13.238946,1,1,1,1018,0,-1533
1153,13.250496,-1,2,1,1020,-2,-1532
1154,13.262038,0,1,1,1026,0,-1533
1155,13.27359,0,1,1,1024,-2,-1534
1156,13.285248,1,1,1,1022,-2,-1533
1157,13.296975,1,1,0,1023,0,-1532
1158,13.308645,0,1,1,1020,-4,-1533
1159,13.320318,1,1,1,1024,2,-1529
1160,13.331981,1,1,1,1024,-1,-1525
1161,13.343685,0,1,1,1022,-4,-1529
1162,13.355332,0,1,0,1022,1,-1530
1163,13.367034,0,1,1,1023,-3,-1537
1164,13.378799,-1,0,1,1023,0,-1535
1165,13.390454,1,1,0,1020,-1,-1530
1166,13.402018,1,1,1,1023,0,-1540
1167,13.413616,0,1,1,1020,0,-1531
1168,13.425173,1,1,1,1019,-1,-1535
1169,13.436719,1,1,0,1024,0,-1538
1170,13.448268,0,1,0,1021,0,-1533
1171,13.459883,0,1,1,1018,0,-1540
1172,13.471438,0,1,0,1022,1,-1535
1173,13.483016,1,1,1,1023,0,-1536
1174,13.494643,0,1,1,1021,0,-1540
1175,13.506319,0,1,1,1023,1,-1536
1176,13.517977,1,1,2,1023,0,-1532
1177,13.529708,1,2,1,1017,-5,-1532
1178,13.541356,1,1,1,1026,-4,-1530
1179,13.553025,0,2,1,1019,2,-1537
1180,13.564694,0,0,1,1019,-3,-1536
1181,13.576338,1,1,1,1022,0,-1536
1182,13.588013,1,1,0,1020,0,-1538
1183,13.599688,0,1,1,1021,-4,-1536
1184,13.61127,1,1,1,1023,-1,-1527
1185,13.622817,0,0,1,1021,-1,-1531
1186,13.63436,1,0,1,1022,-2,-1535
1187,13.645901,1,0,2,1022,-2,-1534
1188,13.657507,0,1,1,1022,-1,-1539
1189,13.669063,-1,1,1,1022,1,-1535
1190,13.680621,0,1,1,1022,0,-1525
1191,13.69218,0,0,0,1020,3,-1535
1192,13.703809,0,0,1,1020,-2,-1530
1193,13.715461,-1,0,1,1024,1,-1538
1194,13.727151,0,1,1,1024,-2,-1533
1195,13.738806,0,0,1,1025,-3,-1535
1196,13.750452,0,1,1,1023,2,-1526
1197,13.762102,0,1,1,1023,-2,-1538
1198,13.773746,0,2,1,1022,0,-1534
1199,13.785394,1,1,1,1019,3,-1535
1200,13.797074,-1,1,0,1019,0,-1534
1201,13.808715,0,0,0,1023,-3,-1534
1202,13.820361,1,2,1,1022,-5,-1533
1203,13.83206,1,1,1,1025,0,-1533
1204,13.843797,0,1,1,1023,0,-1528
1205,13.855629,0,0,1,1021,-3,-1526
1206,13.867325,0,1,1,1022,-1,-1532
1207,13.879002,0,1,1,1023,-2,-1535
1208,13.890641,0,2,1,1022,0,-1532
1209,13.902465,-1,0,1,1025,1,-1543
1210,13.914132,1,0,1,1023,-4,-1537
1211,13.925736,-2,1,0,1022,0,-1531
1212,13.937289,0,2,1,1025,3,-1533
1213,13.948835,3,1,1,1021,1,-1534
1214,13.960381,-1,2,1,1020,4,-1533
1215,13.971986,2,1,1,1022,2,-1530
1216,13.983535,2,1,1,1019,0,-1533
1217,13.995129,-2,1,1,1028,-1,-1525
1218,14.006683,1,0,1,1027,-2,-1535
1219,14.018323,1,0,1,1022,3,-1539
1220,14.029971,0,1,1,1021,0,-1535
1221,14.041618,0,2,1,1021,-5,-1534
1222,14.053291,-1,0,0,1022,4,-1533
1223,14.064947,1,1,1,1023,0,-1533
1224,14.0766,0,3,1,1022,-3,-1530
1225,14.088268,0,1,1,1025,0,-1532
1226,14.099931,1,1,2,1022,-1,-1537
1227,14.111582,0,2,1,1022,0,-1540
1228,14.123135,1,1,0,1018,-4,-1536
1229,14.13469,0,2,1,1023,-5,-1539
1230,14.146245,1,1,0,1023,-3,-1531
1231,14.157782,-1,1,1,1026,-4,-1530
1232,14.169325,0,1,0,1028,-2,-1528
1233,14.180879,1,1,1,1023,-4,-1537
1234,14.192446,1,1,1,1022,-2,-1532
1235,14.204,0,1,1,1024,0,-1538
1236,14.215582,0,1,0,1022,0,-1538
1237,14.227208,1,1,2,1024,-3,-1537
1238,14.238885,1,1,2,1023,-1,-1530
1239,14.250559,1,1,1,1024,0,-1537
1240,14.262215,1,2,1,1022,-4,-1534
1241,14.273888,0,1,0,1023,-1,-1531
1242,14.285549,0,1,1,1020,-2,-1535
1243,14.297201,1,1,0,1023,-1,-1538
1244,14.308847,1,1,0,1019,-3,-1534
1245,14.320552,1,2,1,1022,-2,-1540
1246,14.332246,0,2,1,1023,0,-1527
1247,14.343837,0,2,1,1023,-1,-1531
1248,14.3554,0,1,0,1027,0,-1532
1249,14.36695,0,1,1,1022,2,-1528
1250,14.378503,1,1,1,1023,4,-1532
1251,14.390122,1,2,1,1026,-1,-1531
1252,14.401678,0,1,1,1023,-1,-1533
1253,14.413252,1,1,0,1021,-4,-1534
1254,14.424793,-1,0,0,1019,1,-1535
1255,14.436468,1,1,0,1019,4,-1535
1256,14.448149,0,0,0,1023,4,-1536
1257,14.459814,1,2,1,1024,-2,-1523
1258,14.471478,1,1,2,1020,1,-1542
1259,14.483147,0,1,1,1024,-6,-1527
1260,14.494804,0,1,1,1024,-1,-1535
1261,14.506453,1,1,0,1019,-1,-1542
1262,14.518087,-1,0,1,1021,2,-1529
1263,14.529744,1,1,1,1026,0,-1531
1264,14.541417,1,1,0,1025,-1,-1536
1265,14.553056,0,1,0,1022,0,-1531
1266,14.564701,1,1,2,1017,0,-1538
1267,14.576364,1,1,1,1026,-1,-1524
1268,14.588048,1,1,1,1025,0,-1536
1269,14.599705,2,0,1,1023,-3,-1531
1270,14.611412,0,1,1,1021,-5,-1536
1271,14.623056,0,1,0,1022,0,-1536
1272,14.634733,0,1,0,1022,-3,-1536
1273,14.646445,-1,2,1,1023,0,-1535
1274,14.658086,0,1,1,1023,-1,-1530
1275,14.669734,1,1,1,1025,-3,-1539
1276,14.68141,0,2,1,1021,0,-1537
1277,14.693053,1,1,0,1022,0,-1539
1278,14.704703,0,1,1,1022,-1,-1533
1279,14.716347,0,1,1,1022,0,-1542
1280,14.728029,0,0,1,1023,0,-1534
1281,14.739689,0,2,1,1027,0,-1538
1282,14.751344,0,1,1,1023,-4,-1535
1283,14.762892,-1,1,1,1024,0,-1536
1284,14.774458,0,1,1,1023,-2,-1529
1285,14.786014,0,2,1,1023,2,-1534
1286,14.797621,0,2,1,1025,0,-1533
1287,14.809176,0,2,1,1020,0,-1530
1288,14.82074,1,2,1,1021,0,-1526
1289,14.83228,0,2,1,1024,2,-1532
1290,14.843848,1,1,1,1023,-3,-1529
1291,14.855475,1,1,1,1021,0,-1535
1292,14.867155,0,1,1,1023,0,-1536
1293,14.878807,0,1,1,1021,-1,-1532
1294,14.89047,0,1,1,1022,3,-1534
1295,14.90211,1,1,1,1018,-3,-1536
1296,14.913781,-1,1,1,1022,-3,-1533
1297,14.925437,0,0,1,1022,-4,-1532
1298,14.937078,1,1,0,1024,0,-1535
1299,14.948735,0,1,0,1023,3,-1535
1300,14.960396,0,1,1,1021,-1,-1542
1301,14.971977,0,1,0,1026,0,-1533
1302,14.983537,1,1,1,1023,0,-1534
1303,14.99514,0,1,1,1024,2,-1530
1304,15.00674,1,0,1,1023,-2,-1533
1305,15.018311,0,1,0,1027,1,-1536
1306,15.029857,1,1,1,1025,2,-1538
1307,15.041401,0,1,0,1022,-3,-1534
1308,15.052956,0,2,1,1021,-1,-1534
1309,15.064574,1,1,0,1021,-3,-1529
1310,15.076224,0,2,1,1025,-3,-1536
1311,15.087924,1,1,0,1024,0,-1530
1312,15.099573,0,1,1,1023,0,-1532
1313,15.111249,0,1,1,1025,-2,-1533
1314,15.122901,1,1,0,1022,0,-1533
1315,15.134571,1,1,1,1021,2,-1534
1316,15.146241,-1,1,1,1019,2,-1531
1317,15.157911,0,2,1,1023,1,-1528
1318,15.169573,2,1,1,1019,-1,-1533
1319,15.181139,0,1,0,1022,0,-1532
1320,15.192718,1,1,0,1025,-1,-1529
1321,15.204261,0,1,0,1022,-4,-1537
1322,15.21583,0,0,1,1024,-2,-1535
1323,15.227379,0,1,1,1017,0,-1536
1324,15.238943,0,0,0,1019,-5,-1532
1325,15.25049,0,1,1,1023,0,-1528
1326,15.262037,0,1,0,1023,-2,-1532
1327,15.273669,0,0,1,1024,-2,-1526
1328,15.285317,0,1,1,1020,1,-1535
1329,15.296966,0,0,0,1021,-1,-1540
1330,15.308643,0,0,0,1021,1,-1538
1331,15.320301,1,0,0,1022,0,-1535
1332,15.331932,-1,0,1,1022,0,-1535
1333,15.34359,0,1,1,1023,4,-1533
1334,15.355285,0,1,1,1024,1,-1532
1335,15.36696,0,1,1,1023,1,-1529
1336,15.378636,1,0,0,1021,1,-1533
1337,15.390242,1,1,1,1019,-3,-1530
1338,15.401792,0,1,0,1019,-3,-1530
1339,15.413354,1,1,0,1023,0,-1534
1340,15.424912,0,1,2,1022,-3,-1538
1341,15.436469,0,1,1,1023,0,-1534
1342,15.44803,1,1,1,1023,1,-1538
1343,15.459621,1,1,1,1023,2,-1529
1344,15.471194,1,1,1,1021,-2,-1533
1345,15.482823,1,1,1,1022,2,-1537
1346,15.494479,0,1,1,1019,2,-1530
1347,15.506193,0,1,1,1025,0,-1532
1348,15.517837,1,1,1,1022,4,-1532
1349,15.52952,1,1,0,1024,-4,-1534
1350,15.541176,0,1,1,1023,1,-1532
1351,15.552826,1,1,1,1021,-1,-1535
1352,15.564479,0,1,2,1021,-3,-1530
1353,15.576188,0,1,1,1023,-1,-1529
1354,15.58785,0,1,1,1024,-2,-1532
1355,15.599407,0,1,2,1021,2,-1536
1356,15.610983,1,1,1,1025,-2,-1531
1357,15.622532,1,1,1,1022,0,-1527
1358,15.634083,1,1,1,1026,-3,-1529
1359,15.645627,0,1,1,1024,-3,-1533
1360,15.657201,1,1,0,1029,-2,-1536
1361,15.668747,1,0,0,1025,1,-1534
1362,15.68031,1,2,1,1023,1,-1537
1363,15.691908,1,0,1,1023,-4,-1531
1364,15.703569,0,1,1,1021,-2,-1536
1365,15.715215,0,1,1,1022,0,-1530
1366,15.726885,0,1,1,1022,1,-1533
1367,15.738542,0,1,0,1023,3,-1527
1368,15.750205,1,1,1,1024,0,-1529
1369,15.761863,0,1,0,1023,0,-1528
1370,15.773513,0,1,2,1021,-3,-1541
1371,15.78517,0,1,1,1023,1,-1539
1372,15.796822,1,1,1,1023,-2,-1531
1373,15.80846,0,0,0,1023,-1,-1538
1374,15.820108,2,1,1,1018,0,-1530
1375,15.831809,0,1,1,1024,3,-1536
1376,15.843524,1,1,1,1023,0,-1540
1377,15.855157,0,2,1,1021,0,-1530
1378,15.866821,0,2,1,1027,-2,-1533
1379,15.878522,1,1,0,1018,1,-1537
1380,15.890191,0,2,1,1023,-1,-1532
1381,15.90184,0,0,1,1023,0,-1529
1382,15.91352,-1,1,0,1027,0,-1534
1383,15.92517,1,1,1,1016,2,-1537
1384,15.936819,1,1,1,1023,-1,-1532
1385,15.948481,0,1,1,1022,0,-1535
1386,15.96017,0,1,0,1021,0,-1534
1387,15.97183,-1,1,1,1023,-1,-1532
1388,15.983499,0,1,1,1023,-2,-1533
1389,15.995163,1,1,1,1026,-2,-1532
1390,16.006877,1,1,1,1022,-1,-1530
1391,16.018472,0,1,1,1022,-2,-1542
1392,16.030016,1,1,1,1024,-2,-1533
1393,16.041558,0,1,1,1021,0,-1533
1394,16.053104,0,1,1,1023,0,-1536
1395,16.064652,0,1,1,1025,-3,-1540
1396,16.076231,1,0,0,1026,0,-1534
1397,16.087784,0,0,1,1024,-1,-1540
1398,16.099371,1,1,0,1023,-4,-1533
1399,16.111024,0,1,1,1023,3,-1534
1400,16.122702,1,1,1,1020,-2,-1534
1401,16.134351,0,1,1,1020,0,-1533
1402,16.146031,1,0,1,1022,2,-1531
1403,16.157698,0,1,1,1022,0,-1530
1404,16.169411,-1,2,1,1020,1,-1534
1405,16.181069,1,1,1,1023,-1,-1529
1406,16.19274,0,1,2,1024,1,-1532
1407,16.204411,0,1,1,1018,2,-1528
1408,16.21607,0,1,1,1023,-2,-1539
1409,16.227637,1,1,0,1025,4,-1527
1410,16.239247,1,1,2,1023,1,-1527
1411,16.250887,0,1,1,1023,0,-1532
1412,16.262469,1,1,1,1023,2,-1530
1413,16.274006,1,1,1,1020,0,-1537
1414,16.285546,1,1,0,1023,0,-1531
1415,16.297093,0,0,1,1023,0,-1532
1416,16.308651,0,1,0,1019,0,-1539
1417,16.320284,0,1,1,1023,-1,-1529
1418,16.331932,0,1,1,1025,-1,-1537
1419,16.343616,0,1,1,1024,0,-1533
1420,16.355292,0,1,0,1023,0,-1529
1421,16.366949,0,0,1,1024,1,-1523
1422,16.378644,0,0,1,1023,0,-1529
1423,16.390286,0,1,1,1023,-1,-1538
1424,16.401938,0,1,1,1023,0,-1533
1425,16.41362,0,1,1,1024,0,-1535
1426,16.425279,2,0,1,1023,-1,-1539
1427,16.436842,0,1,1,1022,-4,-1534
1428,16.448392,1,1,1,1022,-3,-1539
1429,16.459963,0,2,1,1021,1,-1533
1430,16.471525,1,1,1,1026,-4,-1533
1431,16.483127,1,1,1,1026,-1,-1532
1432,16.494749,1,0,1,1023,0,-1533
1433,16.506349,1,0,1,1017,0,-1539
1434,16.517908,0,1,1,1025,-2,-1532
1435,16.529525,1,1,0,1022,2,-1531
1436,16.541179,0,2,1,1024,-2,-1530
1437,16.552824,1,0,1,1021,1,-1537
1438,16.564476,-1,1,1,1021,0,-1536
1439,16.576174,0,1,1,1021,1,-1532
1440,16.587822,1,2,1,1022,-2,-1537
1441,16.599508,1,1,0,1023,2,-1537
1442,16.611156,2,1,2,1023,0,-1540
1443,16.62284,1,1,0,1023,-1,-1530
1444,16.634526,1,1,1,1021,0,-1528
1445,16.646084,-1,1,1,1020,-1,-1534
1446,16.657638,1,2,1,1024,1,-1525
1447,16.669215,0,1,1,1023,0,-1536
1448,16.680761,0,0,1,1022,-1,-1531
1449,16.69234,0,1,0,1021,0,-1529
1450,16.703887,0,1,1,1021,0,-1534
1451,16.715428,0,0,1,1025,-4,-1540
1452,16.727005,0,0,0,1023,0,-1530
1453,16.73865,0,1,1,1023,-4,-1535
1454,16.750303,1,1,1,1023,-1,-1538
1455,16.761947,0,1,2,1023,-2,-1533
1456,16.773595,0,1,1,1018,-1,-1530
1457,16.785267,0,0,1,1021,-2,-1532
1458,16.79691,0,0,1,1023,-2,-1529
1459,16.808557,1,1,1,1023,-1,-1537
1460,16.820211,0,2,1,1023,0,-1534
1461,16.831893,1,1,1,1023,1,-1536
1462,16.843559,0,1,1,1019,0,-1529
1463,16.855113,0,1,1,1023,0,-1531
1464,16.866688,0,0,0,1023,0,-1532
1465,16.878237,0,1,1,1021,1,-1528
1466,16.889835,0,0,0,1023,2,-1528
1467,16.901391,0,1,0,1022,-2,-1535
1468,16.912966,0,1,0,1020,0,-1538
1469,16.924539,-1,2,1,1019,-2,-1532
1470,16.93612,0,1,1,1024,-3,-1529
1471,16.947815,1,1,1,1022,0,-1535
1472,16.959479,0,1,0,1023,0,-1534
1473,16.971151,1,1,2,1026,-1,-1534
1474,16.982835,1,0,1,1025,5,-1529
1475,16.994477,1,0,0,1021,0,-1530
1476,17.006125,1,1,1,1021,-4,-1533
1477,17.017779,0,1,0,1022,0,-1533
1478,17.029423,1,1,2,1022,-1,-1536
1479,17.041087,-1,1,2,1023,-3,-1534
1480,17.05273,0,1,1,1024,0,-1537
1481,17.064337,0,1,1,1020,1,-1534
1482,17.075894,0,1,1,1027,0,-1536
1483,17.087477,0,1,0,1023,0,-1535
1484,17.099026,1,1,0,1022,1,-1531
1485,17.11057,0,2,1,1021,-3,-1531
1486,17.122116,0,0,1,1025,1,-1535
1487,17.133663,1,1,1,1024,0,-1533
1488,17.145239,0,1,1,1023,0,-1531
1489,17.156928,0,0,1,1025,0,-1531
1490,17.168599,1,0,2,1025,0,-1534
1491,17.180266,0,1,1,1021,2,-1532
1492,17.192107,1,0,1,1021,-2,-1530
1493,17.203797,1,0,1,1023,-1,-1540
1494,17.21545,0,1,1,1019,0,-1535
1495,17.227139,1,1,1,1019,0,-1532
1496,17.238825,0,0,1,1021,3,-1537
1497,17.250486,0,1,1,1020,-4,-1534
1498,17.262149,1,1,0,1023,-2,-1537
1499,17.273802,0,1,1,1023,-1,-1533
1500,17.285462,0,0,2,1025,0,-1537
1501,17.297129,0,1,1,1023,0,-1528
1502,17.308778,0,2,1,1022,0,-1528
1503,17.320421,0,2,2,1024,1,-1533
1504,17.332076,1,1,1,1021,3,-1543
1505,17.343734,0,1,1,1022,3,-1537
1506,17.35545,0,1,1,1018,-2,-1530
1507,17.367148,1,1,1,1024,0,-1537
1508,17.378802,0,1,0,1023,0,-1535
1509,17.390447,0,0,0,1025,-1,-1530
1510,17.40211,0,1,1,1023,2,-1531
1511,17.413765,1,1,1,1023,0,-1532
1512,17.425408,0,1,1,1022,0,-1531
1513,17.43706,0,0,0,1021,-3,-1533
1514,17.448699,1,1,0,1023,-2,-1529
1515,17.460379,0,1,1,1020,2,-1541
1516,17.472057,0,0,1,1020,0,-1532
1517,17.483706,0,1,0,1024,-3,-1535
1518,17.495386,0,0,1,1025,-4,-1534
1519,17.507043,0,1,1,1025,0,-1531
1520,17.518685,0,1,0,1025,-2,-1535
1521,17.530337,0,1,1,1022,0,-1529
1522,17.541996,0,0,0,1020,0,-1537
1523,17.55365,0,1,1,1021,-1,-1531
1524,17.565315,0,1,0,1019,0,-1537
1525,17.57696,1,1,1,1021,0,-1536
1526,17.588609,0,2,1,1020,1,-1540
1527,17.600274,1,1,1,1022,-1,-1542
1528,17.611922,1,1,1,1022,-3,-1534
1529,17.623571,0,0,1,1023,0,-1533
1530,17.635269,0,1,1,1022,0,-1528
1531,17.646905,0,1,1,1024,0,-1534
1532,17.658553,0,1,1,1024,1,-1531
1533,17.670228,0,2,0,1021,-3,-1537
1534,17.681896,1,1,1,1023,-3,-1531
1535,17.693466,0,2,1,1020,-5,-1532
1536,17.705035,0,0,1,1024,0,-1542
1537,17.716597,1,1,1,1023,2,-1533
1538,17.728166,0,1,1,1025,0,-1527
1539,17.739723,0,1,0,1019,0,-1531
1540,17.751271,0,1,1,1024,-3,-1531
1541,17.762819,0,0,1,1018,0,-1533
1542,17.774384,1,0,0,1019,3,-1534
1543,17.786026,0,1,1,1025,-3,-1538
1544,17.797686,0,1,0,1025,-4,-1538
1545,17.809339,0,1,1,1023,-1,-1524
1546,17.820997,1,0,1,1023,0,-1531
1547,17.83266,1,1,0,1022,-3,-1538
1548,17.844302,-1,1,1,1021,-2,-1529
1549,17.855923,0,1,1,1021,1,-1535
1550,17.867596,1,1,2,1023,0,-1534
1551,17.87929,1,0,1,1023,2,-1526
1552,17.890944,1,0,1,1024,2,-1530
1553,17.902496,0,1,0,1024,-1,-1528
1554,17.914042,0,0,1,1022,1,-1530
1555,17.925588,0,1,1,1022,2,-1534
1556,17.937144,0,0,1,1019,0,-1527
1557,17.948707,0,1,0,1023,-3,-1532
1558,17.960255,1,0,1,1022,2,-1538
1559,17.971837,1,2,1,1019,-3,-1535
1560,17.983448,0,1,0,1023,-3,-1533
1561,17.995075,1,1,1,1022,-4,-1533
1562,18.006749,0,1,1,1023,2,-1531
1563,18.018408,0,1,1,1024,3,-1532
1564,18.030061,-1,1,0,1021,4,-1540
1565,18.041731,-1,1,0,1023,2,-1534
1566,18.053389,0,1,1,1019,-1,-1531
1567,18.065035,0,1,1,1023,2,-1531
1568,18.076685,1,2,1,1022,-2,-1528
1569,18.088341,-1,1,0,1024,0,-1533
1570,18.100036,1,1,1,1023,-1,-1537
1571,18.111593,1,0,1,1023,4,-1530
1572,18.12311,1,0,1,1021,-1,-1534
1573,18.134625,1,1,1,1023,-1,-1535
1574,18.146175,0,1,1,1024,0,-1538
1575,18.157723,1,1,0,1025,0,-1538
1576,18.169264,1,1,1,1020,1,-1535
1577,18.182861,1,1,0,1022,-2,-1535
1578,18.194491,0,1,1,1021,-1,-1529
1579,18.206159,0,0,2,1020,0,-1531
1580,18.217819,1,0,0,1024,1,-1537
1581,18.229497,0,0,1,1026,-3,-1532
1582,18.241155,0,0,0,1018,2,-1534
1583,18.252796,0,1,0,1020,-1,-1538
1584,18.264447,0,1,1,1018,1,-1534
1585,18.276147,0,1,1,1019,0,-1534
1586,18.287799,1,1,1,1021,1,-1529
1587,18.29948,0,1,2,1026,0,-1530
1588,18.311151,0,0,1,1024,-1,-1533
1589,18.322748,1,1,2,1026,1,-1529
1590,18.334327,0,1,1,1024,-1,-1531
1591,18.345872,0,1,1,1019,-2,-1530
1592,18.357464,1,1,1,1021,-3,-1532
1593,18.369005,0,0,0,1022,-2,-1528
1594,18.38055,0,1,1,1021,0,-1534
1595,18.392093,0,1,0,1021,1,-1536
1596,18.403683,1,0,1,1021,-3,-1534
1597,18.415312,1,1,0,1021,0,-1533
1598,18.427021,0,1,1,1019,0,-1536
1599,18.438638,0,1,2,1023,0,-1531
1600,18.450288,0,0,1,1025,0,-1538
1601,18.461932,1,0,0,1025,0,-1534
1602,18.473618,0,1,0,1019,1,-1534
1603,18.485274,1,1,1,1019,3,-1535
1604,18.496923,1,1,1,1020,0,-1528
1605,18.508596,0,1,0,1020,-1,-1524
1606,18.520262,1,1,2,1024,0,-1534
1607,18.531921,1,2,1,1023,0,-1529
1608,18.543581,1,1,1,1021,3,-1538
1609,18.555271,0,0,1,1021,1,-1533
1610,18.566899,0,2,1,1022,0,-1536
1611,18.578543,1,1,1,1020,-2,-1534
1612,18.590186,1,0,0,1022,-2,-1535
1613,18.601853,0,1,1,1018,0,-1530
1614,18.613537,0,1,0,1021,-2,-1532
1615,18.625184,1,1,1,1027,1,-1528
1616,18.636845,0,1,1,1021,1,-1534
1617,18.648535,0,1,0,1022,1,-1529
1618,18.660181,1,1,1,1023,0,-1535
1619,18.671855,1,1,1,1023,-2,-1537
1620,18.683525,1,1,1,1024,-3,-1534
1621,18.695158,0,1,0,1019,-3,-1531
1622,18.706817,0,1,0,1021,-6,-1537
1623,18.718513,0,1,1,1023,-3,-1527
1624,18.730162,1,1,1,1022,-3,-1536
1625,18.741811,1,1,1,1023,1,-1533
1626,18.753452,1,0,1,1023,-2,-1539
1627,18.765114,0,1,1,1022,-2,-1535
1628,18.776769,1,0,1,1022,-2,-1537
1629,18.788414,1,1,0,1022,1,-1535
1630,18.800071,1,0,0,1023,-1,-1534
1631,18.811746,1,1,1,1023,0,-1528
1632,18.823426,1,2,0,1023,-1,-1533
1633,18.835026,0,1,1,1019,-5,-1532
1634,18.84664,0,1,0,1022,-2,-1533
1635,18.858205,0,1,0,1021,1,-1537
1636,18.869756,0,1,1,1025,0,-1526
1637,18.881328,0,1,1,1020,3,-1532
1638,18.892866,0,1,1,1026,0,-1539
1639,18.904417,0,1,1,1020,-2,-1528
1640,18.915967,1,1,1,1021,-1,-1530
1641,18.927528,0,1,1,1022,-2,-1533
1642,18.939164,0,1,1,1021,-2,-1529
1643,18.950843,0,1,2,1023,0,-1531
1644,18.962514,1,0,1,1023,0,-1536
1645,18.974159,0,1,1,1023,0,-1534
1646,18.985816,1,1,2,1019,0,-1536
1647,18.997475,0,1,1,1020,0,-1540
1648,19.009128,1,1,0,1022,0,-1530
1649,19.020784,1,1,1,1023,1,-1533
1650,19.032448,1,1,1,1024,-3,-1532
1651,19.044117,0,1,1,1023,-4,-1538
1652,19.05571,2,1,0,1021,0,-1532
1653,19.067295,0,1,0,1019,0,-1531
1654,19.078865,1,1,1,1021,0,-1536
1655,19.090458,0,1,1,1019,-1,-1527
1656,19.101996,1,2,0,1022,0,-1528
1657,19.113541,0,1,0,1022,1,-1528
1658,19.125089,0,1,1,1021,0,-1531
1659,19.136626,1,1,0,1023,0,-1532
1660,19.148258,0,1,1,1023,3,-1537
1661,19.159927,1,0,1,1023,0,-1531
1662,19.171633,1,1,1,1022,0,-1531
1663,19.183293,0,0,1,1022,-1,-1539
1664,19.194961,0,0,1,1021,-2,-1539
1665,19.20664,0,1,2,1019,0,-1532
1666,19.218299,0,0,0,1023,-2,-1532
1667,19.229968,0,1,1,1021,0,-1534
1668,19.241656,0,1,0,1023,-2,-1540
1669,19.253304,0,1,0,1023,0,-1528
1670,19.264865,1,1,1,1025,0,-1532
1671,19.276441,1,2,0,1021,1,-1530
1672,19.287995,0,1,1,1021,0,-1533
1673,19.299576,1,1,1,1022,2,-1529
1674,19.311113,0,1,1,1021,1,-1526
1675,19.322694,0,0,1,1023,-2,-1530
1676,19.334242,1,2,1,1019,-2,-1533
1677,19.345829,0,2,1,1023,2,-1534
1678,19.357441,0,2,1,1024,-5,-1534
1679,19.36911,1,1,1,1022,-3,-1533
1680,19.380762,0,1,0,1025,-3,-1535
1681,19.392408,0,0,1,1021,1,-1527
1682,19.404077,0,1,1,1022,1,-1537
1683,19.415741,0,1,0,1020,2,-1526
1684,19.427399,1,1,1,1023,2,-1531
1685,19.439055,0,1,1,1020,0,-1530
1686,19.450709,1,0,1,1023,0,-1539
1687,19.462389,1,1,1,1025,0,-1535
1688,19.474041,0,0,1,1026,-1,-1532
1689,19.485683,1,2,1,1022,0,-1530
1690,19.497327,0,1,1,1023,-2,-1543
1691,19.509002,0,1,0,1025,0,-1535
1692,19.520643,0,1,0,1023,3,-1534
1693,19.532289,1,1,1,1022,-1,-1534
1694,19.543922,1,1,1,1022,-2,-1533
1695,19.555627,1,1,1,1023,0,-1533
1696,19.567278,0,2,1,1022,-5,-1535
1697,19.578898,0,1,0,1022,-1,-1537
1698,19.590567,0,0,1,1024,1,-1527
1699,19.602242,1,1,1,1023,2,-1530
1700,19.613887,0,1,1,1022,0,-1533
1701,19.625531,0,1,2,1021,2,-1534
1702,19.637177,1,1,1,1022,-3,-1529
1703,19.648841,0,0,1,1020,-4,-1528
1704,19.660541,0,0,1,1022,0,-1531
1705,19.672204,0,0,1,1023,4,-1528
1706,19.683823,0,1,2,1025,0,-1533
1707,19.695349,1,0,1,1023,-2,-1529
1708,19.706935,0,1,1,1025,0,-1537
1709,19.718474,1,1,2,1021,-2,-1532
1710,19.730019,1,1,1,1022,0,-1527
1711,19.741565,1,1,1,1020,0,-1527
1712,19.753105,0,2,1,1023,0,-1535
1713,19.764656,1,2,1,1020,2,-1536
1714,19.776277,1,2,1,1023,3,-1527
1715,19.787931,1,2,2,1023,0,-1531
1716,19.799628,1,2,1,1024,-1,-1532
1717,19.811294,1,3,2,1025,0,-1532
1718,19.82297,1,1,1,1022,2,-1531
1719,19.834644,0,0,1,1020,-4,-1534
1720,19.8464,0,0,1,1020,2,-1533
1721,19.858234,0,1,1,1023,1,-1534
1722,19.8699,1,1,0,1026,2,-1536
1723,19.881457,0,2,1,1025,-1,-1536
1724,19.893012,1,1,1,1023,0,-1529
1725,19.904575,1,1,1,1021,1,-1533
1726,19.916123,1,0,1,1023,0,-1537
1727,19.927712,1,1,1,1022,-2,-1528
1728,19.93927,0,1,1,1019,-1,-1532
1729,19.950822,0,1,0,1025,0,-1534
1730,19.96241,0,1,0,1022,0,-1536
1731,19.973973,1,1,1,1024,0,-1528
1732,19.985617,1,1,1,1020,-1,-1531
1733,19.997267,1,1,1,1026,-3,-1535
1734,20.008913,1,1,1,1023,0,-1532
1735,20.020562,1,1,1,1023,-5,-1538
1736,20.03223,0,1,0,1024,0,-1535
1737,20.043911,0,1,1,1025,-2,-1534
1738,20.055573,0,0,1,1022,0,-1530
1739,20.067272,1,1,1,1021,-1,-1531
1740,20.07891,0,1,1,1021,5,-1532
1741,20.090632,1,1,0,1024,2,-1532
1742,20.1022,1,1,1,1021,0,-1532
1743,20.113755,0,1,1,1022,-1,-1536
1744,20.125322,1,1,1,1024,0,-1532
1745,20.136865,1,1,0,1022,1,-1534
1746,20.148408,0,1,1,1024,-3,-1531
1747,20.159964,0,1,1,1022,-1,-1531
1748,20.171516,0,1,1,1027,-4,-1532
1749,20.183107,0,1,1,1020,5,-1535
1750,20.194814,0,1,1,1020,3,-1538
1751,20.206504,1,1,1,1024,0,-1525
1752,20.218149,0,1,0,1024,2,-1537
1753,20.229794,1,1,0,1022,1,-1537
1754,20.24146,0,0,1,1023,-2,-1535
1755,20.253112,0,1,1,1021,1,-1535
1756,20.264875,0,1,1,1022,0,-1530
1757,20.276527,0,1,0,1022,-1,-1529
1758,20.288182,0,0,0,1024,-2,-1528
1759,20.299955,0,1,1,1021,3,-1538
1760,20.311512,0,1,1,1023,0,-1531
1761,20.323092,0,1,1,1023,0,-1539
1762,20.334655,1,0,2,1018,0,-1534
1763,20.346203,0,1,1,1022,0,-1533
1764,20.35775,1,0,1,1023,4,-1532
1765,20.369304,0,1,1,1023,-1,-1531
1766,20.38086,1,1,1,1023,0,-1537
1767,20.392473,0,1,0,1021,3,-1544
1768,20.404139,1,0,0,1025,0,-1534
1769,20.415818,1,1,1,1023,0,-1537
1770,20.427484,0,0,2,1025,-1,-1536
1771,20.439158,2,1,1,1022,-2,-1524
1772,20.45083,1,2,1,1028,2,-1530
1773,20.462488,0,2,1,1024,-2,-1537
1774,20.474136,0,1,0,1023,2,-1532
1775,20.485788,1,1,1,1024,-1,-1537
1776,20.497458,0,1,1,1023,0,-1538
1777,20.509105,1,1,1,1020,-1,-1534
1778,20.520657,0,0,1,1022,-5,-1537
1779,20.532206,1,0,1,1023,0,-1544
1780,20.543818,0,1,1,1021,-1,-1534
1781,20.555353,0,1,0,1018,0,-1529
1782,20.566933,1,1,1,1017,0,-1530
1783,20.578501,0,1,0,1022,0,-1535
1784,20.590048,1,1,1,1010,-3,-1536
1785,20.601602,0,1,1,1023,3,-1529
1786,20.613251,0,2,1,1020,1,-1541
1787,20.624898,1,1,1,1023,-1,-1538
1788,20.636541,0,1,0,1024,0,-1533
1789,20.648193,1,1,1,1026,0,-1533
1790,20.659873,0,2,1,1023,2,-1538
1791,20.671534,0,1,1,1027,0,-1525
1792,20.683198,0,2,1,1027,-5,-1536
1793,20.694886,0,1,1,1024,0,-1533
1794,20.706557,0,1,1,1022,0,-1529
1795,20.718238,1,2,1,1023,2,-1533
1796,20.729823,1,1,1,1021,1,-1530
1797,20.741375,1,1,1,1022,-2,-1527
1798,20.752938,1,1,1,1025,-2,-1533
1799,20.764483,0,1,1,1021,-2,-1531
1800,20.776058,0,2,2,1022,-1,-1536
1801,20.787591,0,2,1,1023,-4,-1536
1802,20.799108,1,1,1,1022,0,-1538
1803,20.810637,0,1,1,1024,-1,-1536
1804,20.822263,0,2,0,1021,1,-1534
1805,20.833919,0,1,1,1021,2,-1530
1806,20.845616,0,0,1,1023,1,-1533
1807,20.857273,0,1,1,1024,-1,-1531
1808,20.868934,0,1,1,1020,4,-1536
1809,20.880594,1,1,2,1022,0,-1534
1810,20.892257,0,1,1,1017,1,-1537
1811,20.903947,1,0,1,1025,-3,-1532
1812,20.915609,1,0,1,1023,0,-1532
1813,20.927272,1,1,2,1024,1,-1533
1814,20.938856,1,1,1,1023,0,-1533
1815,20.950436,0,1,1,1026,1,-1529
1816,20.961979,0,1,0,1023,-1,-1530
1817,20.973524,1,1,1,1019,-1,-1529
1818,20.985074,0,1,1,1023,0,-1531
1819,20.996616,1,1,1,1021,-2,-1534
1820,21.008165,0,1,0,1025,-1,-1534
1821,21.019731,0,2,1,1024,-1,-1539
1822,21.031517,1,0,1,1023,2,-1536
1823,21.043162,1,1,1,1024,0,-1528
1824,21.054873,0,1,1,1026,0,-1536
1825,21.066516,0,1,0,1024,-2,-1534
1826,21.078196,0,1,1,1021,0,-1532
1827,21.089871,0,1,0,1023,1,-1535
1828,21.101519,1,1,1,1022,-3,-1533
1829,21.113177,0,1,1,1018,0,-1536
1830,21.124823,0,1,1,1023,-1,-1528
1831,21.136377,0,1,1,1024,0,-1532
1832,21.147945,1,1,1,1023,-1,-1531
1833,21.159497,1,1,1,1023,-2,-1534
1834,21.171049,0,1,1,1023,-5,-1533
1835,21.182618,0,1,1,1021,0,-1536
1836,21.194169,1,1,1,1022,-1,-1531
1837,21.205721,0,1,1,1020,-4,-1534
1838,21.217318,1,2,1,1023,0,-1537
1839,21.228884,1,2,1,1021,1,-1540
1840,21.240552,0,2,0,1020,0,-1534
1841,21.252217,0,1,0,1020,0,-1533
1842,21.2639,0,1,1,1018,-1,-1534
1843,21.275604,-1,1,1,1022,0,-1537
1844,21.287341,0,1,1,1022,1,-1536
1845,21.299026,0,0,1,1024,3,-1528
1846,21.310705,0,0,1,1021,-3,-1533
1847,21.322393,1,0,0,1023,0,-1531
1848,21.334089,0,0,1,1023,0,-1533
1849,21.345687,0,0,1,1023,2,-1533
1850,21.357237,0,1,0,1021,0,-1531
1851,21.368807,0,1,0,1019,0,-1532
1852,21.380361,1,1,1,1021,0,-1532
1853,21.391933,0,1,1,1020,-2,-1538
1854,21.403483,1,2,1,1024,-2,-1545
1855,21.41503,1,1,2,1024,0,-1537
1856,21.426588,0,1,1,1021,0,-1535
1857,21.438265,1,1,1,1022,-3,-1530
1858,21.449924,1,1,1,1024,0,-1536
1859,21.461612,1,1,0,1024,2,-1531
1860,21.473257,1,1,1,1022,0,-1535
1861,21.484908,0,0,1,1019,-2,-1532
1862,21.496588,0,1,1,1022,1,-1526
1863,21.508245,1,1,1,1024,-1,-1537
1864,21.519921,0,0,1,1021,0,-1536
1865,21.531623,0,1,1,1022,1,-1540
1866,21.543277,0,1,1,1024,-1,-1527
1867,21.554864,1,0,1,1019,-2,-1530
1868,21.566433,0,0,1,1018,0,-1527
1869,21.577982,1,2,1,1019,0,-1535
1870,21.589557,0,1,0,1023,0,-1535
1871,21.601103,0,1,0,1024,0,-1539
1872,21.612652,1,1,1,1024,0,-1530
1873,21.624203,0,1,1,1023,0,-1532
1874,21.635803,1,0,0,1023,-4,-1532
1875,21.647409,0,1,1,1024,-1,-1539
1876,21.659081,1,1,1,1023,-1,-1533
1877,21.670769,0,1,2,1023,1,-1535
1878,21.682457,0,1,1,1022,0,-1538
1879,21.694113,1,1,1,1025,0,-1538
1880,21.705764,0,1,1,1022,-5,-1533
1881,21.717426,0,1,1,1023,-2,-1531
1882,21.729092,1,0,1,1021,0,-1531
1883,21.74076,0,2,1,1023,2,-1536
1884,21.752424,0,1,2,1025,-2,-1531
1885,21.76409,1,0,1,1020,0,-1532
1886,21.775749,1,2,2,1021,-1,-1528
1887,21.787405,0,1,1,1017,-4,-1533
1888,21.79908,1,1,1,1020,0,-1536
1889,21.810777,0,1,1,1021,1,-1536
1890,21.822446,0,1,1,1020,-3,-1531
1891,21.834099,0,1,0,1024,2,-1534
1892,21.845776,0,1,1,1024,-1,-1536
1893,21.857447,0,0,1,1025,0,-1534
1894,21.869107,0,1,1,1023,-3,-1538
1895,21.880758,0,1,0,1024,-3,-1534
1896,21.892404,0,1,1,1025,0,-1536
1897,21.904066,-1,1,2,1023,0,-1533
1898,21.915737,1,1,1,1022,-3,-1533
1899,21.927401,1,1,1,1018,0,-1526
1900,21.939063,0,0,1,1023,-1,-1539
1901,21.950782,0,1,1,1023,1,-1533
1902,21.962429,1,1,1,1020,0,-1534
1903,21.974077,0,1,1,1022,-2,-1532
1904,21.985736,1,0,1,1026,-1,-1535
1905,21.997377,1,1,1,1022,0,-1531
1906,22.00902,0,1,0,1023,0,-1532
1907,22.020689,1,1,1,1023,-2,-1532
1908,22.032346,0,1,1,1021,-1,-1532
1909,22.043994,0,0,1,1024,-4,-1536
1910,22.055717,0,1,1,1021,-3,-1532
1911,22.067392,0,1,1,1020,0,-1538
1912,22.078947,0,2,1,1025,0,-1535
1913,22.090495,1,1,1,1023,-1,-1539
1914,22.102047,0,1,1,1023,-5,-1533
1915,22.113603,0,1,1,1022,-1,-1534
1916,22.125173,1,2,1,1025,0,-1537
1917,22.136716,1,0,0,1025,0,-1533
1918,22.148265,0,0,1,1023,0,-1532
1919,22.159842,0,1,0,1020,2,-1534
1920,22.171485,1,0,1,1020,-2,-1533
1921,22.183185,0,1,0,1023,-2,-1535
1922,22.194876,1,1,1,1022,0,-1530
1923,22.206527,1,1,1,1023,-3,-1538
1924,22.218194,0,0,1,1022,-1,-1531
1925,22.229844,0,0,1,1020,-4,-1533
1926,22.241495,0,1,1,1022,2,-1537
1927,22.253142,0,0,1,1022,0,-1543
1928,22.264814,0,1,1,1015,0,-1540
1929,22.276486,0,1,0,1022,4,-1526
1930,22.288175,0,1,1,1024,0,-1532
1931,22.299843,0,1,0,1023,-3,-1537
1932,22.311713,0,2,0,1023,-3,-1537
1933,22.32341,0,1,1,1023,1,-1535
1934,22.335092,0,2,1,1024,1,-1534
1935,22.346761,0,1,1,1023,2,-1535
1936,22.358414,0,1,1,1025,0,-1530
1937,22.370118,0,1,0,1022,1,-1534
1938,22.381763,0,1,1,1022,1,-1535
1939,22.393427,-1,0,1,1023,-2,-1539
1940,22.405074,1,1,2,1023,1,-1534
1941,22.416727,0,1,2,1022,0,-1536
1942,22.428418,0,0,1,1020,-2,-1538
1943,22.440091,0,1,1,1022,0,-1537
1944,22.451742,-1,1,1,1019,-1,-1540
1945,22.463418,0,1,1,1020,1,-1537
1946,22.475099,0,1,1,1021,0,-1535
1947,22.486763,1,2,1,1024,0,-1535
1948,22.498421,0,1,1,1016,1,-1531
1949,22.510066,0,1,2,1021,0,-1536
1950,22.521731,1,1,1,1026,2,-1532
1951,22.533417,1,1,1,1021,-1,-1531
1952,22.545176,0,1,1,1027,-1,-1532
1953,22.556871,0,1,1,1019,0,-1530
1954,22.568547,1,1,1,1018,0,-1531
1955,22.580316,1,0,2,1022,0,-1527
1956,22.59199,1,1,1,1026,0,-1529
1957,22.603594,0,0,1,1023,0,-1533
1958,22.615173,-1,0,1,1021,1,-1540
1959,22.626749,1,0,1,1020,1,-1530
1960,22.638304,1,1,1,1021,0,-1525
1961,22.649876,0,0,0,1020,1,-1540
1962,22.661433,0,2,1,1022,0,-1531
1963,22.672991,0,1,1,1022,0,-1540
1964,22.684563,0,0,0,1022,0,-1530
1965,22.696179,1,2,2,1023,-1,-1534
1966,22.707854,0,1,0,1024,1,-1544
1967,22.719533,1,1,1,1020,-1,-1533
1968,22.731212,0,1,1,1022,2,-1531
1969,22.742879,0,1,1,1023,-2,-1531
1970,22.754532,0,1,1,1023,-3,-1535
1971,22.766208,0,2,1,1024,0,-1530
1972,22.777859,0,1,0,1021,-1,-1539
1973,22.789503,0,1,0,1023,0,-1537
1974,22.801074,0,1,1,1023,0,-1534
1975,22.812615,0,1,1,1024,0,-1529
1976,22.824165,0,1,1,1021,-2,-1535
1977,22.835715,0,1,1,1023,-1,-1538
1978,22.847271,1,1,0,1024,-1,-1534
1979,22.858848,0,1,1,1024,-2,-1533
1980,22.870418,0,0,1,1023,-3,-1533
1981,22.88197,0,1,1,1021,0,-1530
1982,22.893557,0,1,0,1024,-2,-1540
1983,22.905257,1,1,1,1022,-1,-1527
1984,22.916931,1,1,1,1020,-1,-1533
1985,22.928617,0,0,2,1023,0,-1539
1986,22.940269,0,1,1,1024,0,-1534
1987,22.951948,0,1,0,1025,1,-1533
1988,22.963608,1,2,1,1023,-3,-1538
1989,22.975279,0,0,1,1021,0,-1535
1990,22.986959,0,2,0,1019,2,-1534
1991,22.998635,0,1,1,1024,0,-1528
1992,23.010299,0,0,1,1024,1,-1534
1993,23.021864,1,0,1,1025,-1,-1531
1994,23.033425,0,0,1,1022,2,-1534
1995,23.044969,1,1,1,1023,-3,-1536
1996,23.056541,0,1,1,1025,0,-1536
1997,23.068088,0,2,0,1021,0,-1533
1998,23.079674,0,2,1,1021,0,-1536
1999,23.091239,0,1,1,1023,0,-1534
