sample,t_s,gyro_x,gyro_y,gyro_z,accel_x,accel_y,accel_z
0,1e-05,-7,7,0,-1,68,-1037
1,0.011331,2,4,7,-4,65,-1035
2,0.022528,1,7,10,0,62,-1031
3,0.033737,4,6,9,0,65,-1032
4,0.044922,3,6,9,-1,64,-1038
5,0.056106,1,6,9,3,68,-1030
6,0.067293,1,6,9,0,65,-1028
7,0.078482,0,7,10,3,65,-1035
8,0.089667,3,7,8,-3,66,-1036
9,0.100849,1,5,9,0,65,-1032
10,0.112036,2,5,7,0,67,-1036
11,0.12327,2,6,9,-3,69,-1032
12,0.13447,4,5,9,0,66,-1032
13,0.145659,2,8,9,0,63,-1032
14,0.156862,4,4,7,0,68,-1035
15,0.168048,2,5,9,-1,66,-1032
16,0.179234,2,7,9,-1,64,-1034
17,0.190419,3,5,9,0,62,-1031
18,0.201604,3,7,11,-1,67,-1028
19,0.212789,4,7,11,0,66,-1030
20,0.223978,2,5,8,-2,63,-1038
21,0.235166,2,7,9,3,68,-1040
22,0.246347,2,7,8,0,66,-1031
23,0.257548,2,6,10,0,68,-1037
24,0.268729,3,6,10,0,64,-1036
25,0.279913,0,5,8,0,62,-1026
26,0.29111,3,7,10,1,69,-1033
27,0.30229,3,5,9,0,61,-1033
28,0.313475,4,6,7,-2,68,-1035
29,0.324656,3,6,9,0,63,-1024
30,0.335844,1,5,7,-1,62,-1033
31,0.347034,2,4,9,-2,61,-1036
32,0.358217,3,5,10,0,64,-1032
33,0.369399,1,7,8,1,67,-1030
34,0.380583,2,7,9,-1,67,-1031
35,0.391774,1,5,9,-2,64,-1032
36,0.402935,2,5,8,0,68,-1031
37,0.414117,4,7,9,0,65,-1035
38,0.425296,4,7,9,0,67,-1033
39,0.436477,2,4,10,-3,66,-1035
40,0.44766,3,6,8,-1,67,-1036
41,0.458842,5,4,7,0,64,-1035
42,0.470027,1,6,9,0,63,-1033
43,0.481207,3,7,8,2,65,-1034
44,0.492392,4,4,9,0,66,-1037
45,0.503588,2,7,8,0,64,-1031
46,0.514768,2,6,9,0,65,-1036
47,0.525952,5,6,8,-2,68,-1030
48,0.537135,2,5,10,-4,65,-1031
49,0.548317,1,7,9,-1,63,-1037
50,0.559477,1,5,8,1,64,-1037
51,0.570657,2,8,8,-1,68,-1036
52,0.581836,2,7,9,-2,68,-1040
53,0.593018,3,8,10,0,66,-1031
54,0.604208,2,8,8,-1,66,-1030
55,0.615398,2,6,9,2,70,-1036
56,0.62658,3,6,9,0,61,-1039
57,0.63776,2,7,11,7,65,-1036
58,0.648944,0,5,9,2,62,-1028
59,0.660127,3,6,9,-3,66,-1044
60,0.671292,4,6,9,-4,67,-1025
61,0.682473,2,6,8,3,63,-1040
62,0.693652,3,6,8,2,65,-1034
63,0.704837,2,7,11,0,67,-1028
64,0.716032,1,7,6,0,67,-1033
65,0.727225,3,6,11,-4,67,-1032
66,0.738405,3,5,11,-2,66,-1040
67,0.749586,4,7,8,-3,67,-1032
68,0.760777,3,6,11,0,62,-1033
69,0.771962,2,5,8,2,66,-1028
70,0.783108,3,6,10,0,64,-1035
71,0.794285,1,5,7,-4,65,-1034
72,0.805466,2,5,9,5,64,-1028
73,0.816647,3,8,9,-1,70,-1035
74,0.827839,3,8,9,0,68,-1026
75,0.83903,2,6,8,-1,63,-1032
76,0.850209,1,6,8,1,64,-1037
77,0.861394,2,6,10,1,62,-1041
78,0.872574,3,8,10,-3,70,-1033
79,0.883766,2,4,9,0,62,-1033
80,0.894923,4,4,9,-2,67,-1031
81,0.906103,3,5,9,0,59,-1032
82,0.917284,1,4,9,0,64,-1030
83,0.928466,3,6,9,0,65,-1032
84,0.939655,3,5,10,0,65,-1035
85,0.950838,3,6,9,-1,65,-1034
86,0.962019,4,6,8,-3,66,-1027
87,0.973214,2,5,9,-1,67,-1028
88,0.984396,5,5,9,-4,64,-1031
89,0.995588,2,7,9,3,70,-1038
90,1.006772,3,4,12,0,65,-1028
91,1.017954,4,5,10,0,68,-1039
92,1.029134,4,6,7,-4,64,-1036
93,1.040322,1,6,8,0,64,-1037
94,1.051479,3,7,10,2,62,-1032
95,1.06266,3,7,9,1,63,-1030
96,1.073844,3,5,9,1,68,-1034
97,1.085026,2,7,9,0,64,-1027
98,1.096208,3,7,9,0,70,-1037
99,1.1074,4,5,10,3,66,-1031
100,1.118593,1,5,9,-1,69,-1032
101,1.129779,4,9,7,-3,63,-1030
102,1.140963,2,4,9,0,63,-1034
103,1.152145,3,6,13,-1,67,-1033
104,1.163292,2,7,9,0,64,-1027
105,1.174475,3,6,9,-4,64,-1034
106,1.185657,3,6,9,1,67,-1033
107,1.196852,2,6,10,2,70,-1027
108,1.208034,3,7,8,-4,66,-1035
109,1.219222,3,7,9,-5,67,-1038
110,1.230401,2,7,8,1,66,-1031
111,1.241585,3,4,8,-1,66,-1030
112,1.252769,3,5,10,-2,65,-1036
113,1.263958,5,7,8,-3,63,-1031
114,1.275108,3,8,8,0,68,-1040
115,1.286299,4,5,9,2,65,-1039
116,1.297484,1,8,9,-2,64,-1033
117,1.308668,2,6,9,0,61,-1028
118,1.319844,2,6,9,0,69,-1036
119,1.331034,3,6,9,-1,68,-1034
120,1.342215,2,6,9,0,64,-1029
121,1.353394,1,7,9,1,66,-1028
122,1.364574,3,8,9,-3,63,-1033
123,1.375769,1,6,7,0,67,-1041
124,1.386922,1,7,11,2,67,-1034
125,1.398108,2,8,10,0,63,-1031
126,1.409294,2,5,10,-2,65,-1033
127,1.420475,2,6,9,0,64,-1035
128,1.43166,3,7,7,0,69,-1037
129,1.442841,2,7,10,-1,65,-1036
130,1.454021,3,6,9,0,62,-1028
131,1.465202,2,8,9,-4,66,-1033
132,1.476398,3,3,10,-1,66,-1036
133,1.48759,1,7,10,-3,62,-1031
134,1.498771,1,5,9,3,69,-1030
135,1.509952,4,9,11,2,68,-1040
136,1.521133,1,6,10,0,69,-1038
137,1.532314,1,8,10,1,66,-1034
138,1.543474,3,6,8,-4,65,-1029
139,1.554656,3,9,10,-1,65,-1038
140,1.565834,1,4,8,5,67,-1031
141,1.577014,0,4,11,0,63,-1040
142,1.588194,2,9,10,-1,66,-1035
143,1.599376,3,4,10,-3,62,-1035
144,1.610557,3,6,10,-2,63,-1025
145,1.621738,1,6,11,0,70,-1031
146,1.63292,3,6,10,0,66,-1032
147,1.644105,3,5,8,1,65,-1037
148,1.655299,1,7,9,-4,66,-1031
149,1.666483,3,9,10,2,69,-1032
150,1.677675,1,5,10,0,63,-1034
151,1.688857,5,7,9,0,68,-1028
152,1.700039,2,7,9,0,65,-1031
153,1.711226,3,6,9,-5,72,-1035
154,1.722416,0,6,8,-5,63,-1040
155,1.733604,2,8,10,5,68,-1032
156,1.744788,3,7,9,3,66,-1029
157,1.755977,5,7,8,-1,64,-1032
158,1.767166,4,9,11,0,63,-1033
159,1.778352,4,7,8,2,62,-1033
160,1.789542,0,5,8,1,68,-1027
161,1.800722,3,7,7,1,63,-1034
162,1.811917,2,7,7,0,62,-1029
163,1.823101,2,8,10,4,65,-1030
164,1.8343,3,5,9,0,62,-1033
165,1.845484,1,8,10,-1,64,-1029
166,1.856666,4,7,10,-2,70,-1029
167,1.867848,1,3,7,-2,63,-1037
168,1.879041,1,6,9,-1,68,-1032
169,1.890228,2,6,7,-1,67,-1035
170,1.90141,1,6,9,-1,67,-1030
171,1.912595,2,6,9,-2,62,-1033
172,1.923779,0,7,11,-3,65,-1036
173,1.934924,1,4,9,-1,67,-1036
174,1.946107,2,5,11,1,61,-1030
175,1.957292,2,6,12,2,65,-1030
176,1.968472,1,7,10,1,66,-1032
177,1.979672,4,7,11,-1,68,-1034
178,1.990851,3,5,9,-4,62,-1027
179,2.00204,1,7,9,-4,65,-1033
180,2.013224,1,5,9,-3,65,-1030
181,2.02441,2,3,8,-4,66,-1032
182,2.0356,1,8,8,-4,66,-1030
183,2.04678,4,4,8,-1,63,-1038
184,2.057963,2,6,11,-3,67,-1036
185,2.069147,4,7,9,0,62,-1038
186,2.080333,2,6,7,-4,67,-1032
187,2.091479,3,6,9,0,66,-1026
188,2.102657,2,6,9,1,67,-1030
189,2.113845,0,5,9,-1,67,-1036
190,2.125031,3,6,10,0,68,-1032
191,2.136213,3,7,8,0,64,-1036
192,2.147404,2,4,10,0,64,-1038
193,2.158587,4,7,12,-1,65,-1033
194,2.169767,1,5,8,0,64,-1028
195,2.180946,3,6,9,-2,70,-1042
196,2.192137,2,6,8,1,63,-1030
197,2.203291,2,9,9,3,65,-1032
198,2.214471,3,7,8,1,62,-1029
199,2.225663,0,6,11,0,65,-1035
200,2.236856,0,8,9,-6,65,-1035
201,2.24804,2,7,10,-2,65,-1035
202,2.259226,1,6,10,-1,64,-1034
203,2.270412,0,6,11,1,64,-1033
204,2.281597,3,6,9,1,67,-1028
205,2.292776,3,7,9,-2,68,-1028
206,2.303965,3,5,10,2,69,-1037
207,2.315108,1,6,10,-1,66,-1036
208,2.326288,4,6,8,0,66,-1031
209,2.337473,2,6,9,0,68,-1042
210,2.348656,1,7,9,-2,69,-1029
211,2.359849,2,4,11,-2,67,-1027
212,2.371038,3,5,9,-4,66,-1034
213,2.38223,2,6,8,-3,64,-1028
214,2.393413,3,5,10,-1,66,-1034
215,2.404593,0,6,8,3,63,-1039
216,2.415783,3,5,10,-4,65,-1041
217,2.426922,0,8,9,1,63,-1028
218,2.438102,3,6,8,-1,67,-1037
219,2.449282,2,5,9,-3,66,-1033
220,2.460461,1,7,10,-4,68,-1035
221,2.471654,2,6,11,0,69,-1023
222,2.482837,3,4,9,-5,65,-1033
223,2.494024,3,7,9,0,65,-1037
224,2.505202,1,5,9,0,65,-1032
225,2.516389,4,7,8,-3,66,-1032
226,2.527589,2,7,11,2,67,-1028
227,2.538768,0,7,10,1,63,-1029
228,2.549969,4,8,9,-1,64,-1027
229,2.561153,2,7,8,1,70,-1037
230,2.572333,2,5,8,0,64,-1030
231,2.583474,1,6,10,-1,66,-1029
232,2.594654,1,6,10,-5,68,-1026
233,2.605835,4,6,10,-2,66,-1029
234,2.617016,2,9,8,-2,69,-1029
235,2.628205,5,3,11,-4,59,-1031
236,2.639399,2,7,7,-2,69,-1031
237,2.650581,2,6,9,1,63,-1034
238,2.661765,1,3,7,-2,62,-1036
239,2.672949,2,5,10,-3,64,-1030
240,2.684131,2,6,8,0,65,-1030
241,2.695291,0,7,10,4,64,-1030
242,2.706469,2,5,6,4,67,-1022
243,2.717648,3,5,8,-2,64,-1033
244,2.728831,1,7,10,0,67,-1028
245,2.740024,3,7,9,0,68,-1039
246,2.751214,1,4,9,1,66,-1033
247,2.762393,3,6,9,-4,68,-1027
248,2.773577,0,9,10,-1,74,-1028
249,2.784758,2,4,11,1,66,-1039
250,2.795958,3,8,8,0,64,-1028
251,2.807107,2,6,8,0,62,-1028
252,2.81829,1,6,9,-1,65,-1028
253,2.829471,2,6,9,-1,69,-1032
254,2.840651,3,5,9,-1,64,-1029
255,2.851841,1,3,9,-2,62,-1034
256,2.863031,4,5,8,2,67,-1036
257,2.874212,2,6,8,-1,67,-1025
258,2.885394,2,9,9,-3,63,-1028
259,2.896577,5,7,10,0,66,-1030
260,2.907793,1,9,10,-2,64,-1025
261,2.918978,3,4,10,0,64,-1034
262,2.930159,3,4,9,-1,64,-1033
263,2.94134,2,5,9,0,67,-1032
264,2.95252,1,7,9,1,65,-1027
265,2.963662,0,7,6,-3,63,-1037
266,2.974841,2,7,9,-1,63,-1029
267,2.986021,2,4,7,-1,64,-1036
268,2.9972,3,6,11,2,64,-1025
269,3.008384,2,7,11,1,68,-1028
270,3.01958,4,6,10,0,65,-1033
271,3.03076,2,8,9,-1,62,-1030
272,3.041945,1,7,11,-2,65,-1031
273,3.053125,4,5,10,-1,66,-1033
274,3.06431,3,7,8,0,68,-1029
275,3.075475,2,6,10,-1,68,-1030
276,3.086654,3,6,9,0,69,-1032
277,3.097836,0,8,9,-5,63,-1036
278,3.109015,3,7,10,-2,65,-1035
279,3.120194,4,6,9,0,66,-1029
280,3.13138,4,5,10,2,66,-1037
281,3.142564,2,7,9,0,63,-1026
282,3.153748,1,8,10,-1,63,-1032
283,3.164929,3,7,9,0,65,-1035
284,3.176116,2,7,8,0,64,-1028
285,3.187292,3,7,9,-5,67,-1032
286,3.198478,3,7,10,0,68,-1030
287,3.209657,3,7,11,-3,67,-1034
288,3.220851,1,6,8,0,66,-1029
289,3.232033,1,7,11,-2,66,-1034
290,3.243222,4,5,11,-2,67,-1036
291,3.254414,4,7,9,1,65,-1031
292,3.265594,2,5,10,2,62,-1035
293,3.276783,2,5,8,1,63,-1030
294,3.287985,2,6,8,-3,64,-1035
295,3.299183,4,6,10,-2,66,-1033
296,3.310372,2,7,9,-2,63,-1028
297,3.321558,2,4,10,-4,67,-1028
298,3.332738,1,5,9,-2,67,-1034
299,3.343928,3,6,8,2,65,-1030
300,3.355113,2,6,9,0,66,-1029
301,3.366301,2,4,9,1,68,-1036
302,3.377492,2,7,8,0,67,-1033
303,3.388676,1,5,10,0,67,-1037
304,3.399844,2,5,9,-3,66,-1028
305,3.411035,3,7,8,0,66,-1031
306,3.422216,2,7,10,0,67,-1033
307,3.433395,3,5,9,-1,67,-1034
308,3.444576,1,7,10,1,67,-1036
309,3.455774,4,9,9,0,67,-1033
310,3.466923,3,5,10,0,63,-1034
311,3.478106,1,3,10,0,66,-1039
312,3.489289,2,6,9,2,63,-1028
313,3.500489,0,6,10,0,71,-1032
314,3.511666,2,5,9,2,64,-1033
315,3.522849,3,7,9,-1,67,-1030
316,3.534033,3,5,8,-1,68,-1034
317,3.545211,3,8,9,-1,65,-1032
318,3.556393,3,6,10,-5,69,-1036
319,3.567588,1,6,10,-6,64,-1031
320,3.578767,2,7,10,2,67,-1030
321,3.589949,5,6,8,0,65,-1026
322,3.601128,5,6,9,0,66,-1036
323,3.61232,4,7,11,0,65,-1041
324,3.623488,2,6,9,0,68,-1031
325,3.634673,1,5,10,-3,64,-1030
326,3.645857,5,7,9,-2,65,-1033
327,3.657039,2,8,9,-3,67,-1034
328,3.668228,2,5,8,2,68,-1040
329,3.679418,1,7,9,-1,66,-1039
330,3.690601,2,5,11,-1,67,-1038
331,3.701783,3,6,12,0,65,-1030
332,3.712964,1,4,9,0,68,-1026
333,3.724146,4,5,9,-2,63,-1031
334,3.735295,2,6,11,0,65,-1041
335,3.746479,2,6,9,-3,62,-1037
336,3.75766,4,6,10,-2,64,-1030
337,3.768855,3,5,8,-1,68,-1036
338,3.780041,3,5,9,0,61,-1035
339,3.791229,3,8,8,3,66,-1034
340,3.802413,2,5,11,-1,66,-1031
341,3.813608,1,8,8,-2,65,-1037
342,3.824788,1,6,9,2,71,-1035
343,3.835981,2,6,9,-2,64,-1037
344,3.847167,4,6,10,-3,73,-1036
345,3.858354,5,7,8,-3,60,-1035
346,3.869539,1,9,7,-3,65,-1031
347,3.880723,2,5,7,-2,66,-1035
348,3.89192,2,9,9,1,61,-1034
349,3.903103,1,6,11,-4,65,-1035
350,3.914288,4,7,9,0,66,-1028
351,3.925471,1,6,9,-1,69,-1027
352,3.936656,2,7,10,-3,72,-1028
353,3.947855,2,7,10,-1,66,-1033
354,3.959039,3,5,11,-1,67,-1033
355,3.970259,3,6,9,1,63,-1037
356,3.981441,3,8,10,-2,68,-1034
357,3.992624,1,6,10,0,65,-1030
358,4.003807,3,6,7,-2,66,-1032
359,4.014991,1,6,10,-1,66,-1031
360,4.026172,3,6,8,-1,64,-1035
361,4.037354,2,6,9,-1,63,-1028
362,4.048536,3,6,12,2,66,-1041
363,4.059725,2,4,12,-2,64,-1035
364,4.070921,2,6,11,-2,65,-1037
365,4.082101,2,6,9,1,66,-1032
366,4.093284,1,6,10,-1,64,-1034
367,4.104465,3,5,9,-3,66,-1028
368,4.115656,1,5,7,-2,65,-1032
369,4.126839,3,6,11,-2,66,-1036
370,4.138024,3,6,9,-2,64,-1033
371,4.149208,3,5,9,3,61,-1033
372,4.160398,5,5,8,0,66,-1037
373,4.171591,2,5,8,-4,65,-1030
374,4.182773,4,6,10,-1,63,-1031
375,4.193959,1,7,7,-6,64,-1035
376,4.205142,3,5,9,1,66,-1037
377,4.216327,3,6,9,-2,65,-1032
378,4.22748,1,4,8,4,69,-1037
379,4.23866,3,7,9,-1,65,-1034
380,4.249842,0,5,8,2,64,-1034
381,4.261027,2,5,8,-3,63,-1030
382,4.272214,3,6,9,4,65,-1035
383,4.283408,3,7,9,0,65,-1039
384,4.294592,2,6,11,-1,62,-1027
385,4.305779,0,6,8,-5,62,-1029
386,4.316967,3,5,10,-2,69,-1034
387,4.328173,1,6,9,0,60,-1027
388,4.33936,3,5,10,0,68,-1031
389,4.350542,3,4,9,-1,66,-1030
390,4.361724,4,7,7,-1,67,-1037
391,4.372907,5,7,9,0,61,-1033
392,4.384093,2,5,8,0,63,-1036
393,4.395293,5,8,11,1,64,-1033
394,4.406472,1,6,9,-1,65,-1025
395,4.417655,3,8,11,-2,66,-1039
396,4.428837,3,4,8,0,64,-1038
397,4.440041,2,8,7,-1,64,-1033
398,4.451227,2,6,10,0,64,-1029
399,4.462408,2,7,9,0,67,-1035
400,4.473592,3,8,8,0,62,-1037
401,4.484786,3,6,8,-1,65,-1031
402,4.496371,2,7,9,2,62,-1033
403,4.508078,5,5,11,0,64,-1035
404,4.519745,2,7,8,-1,64,-1036
405,4.531409,2,5,9,-3,69,-1029
406,4.543106,1,7,8,0,65,-1036
407,4.554839,3,8,8,-3,70,-1036
408,4.56649,3,3,9,-3,69,-1033
409,4.578143,3,5,8,0,64,-1029
410,4.589831,1,7,8,0,64,-1032
411,4.601564,3,4,11,0,63,-1026
412,4.613121,2,6,9,-3,62,-1031
413,4.624667,2,5,10,-1,64,-1030
414,4.636221,4,5,8,-2,69,-1036
415,4.647811,2,6,10,-2,62,-1035
416,4.659372,4,6,10,0,68,-1030
417,4.670914,3,7,9,1,68,-1030
418,4.68246,2,6,9,-3,63,-1036
419,4.694086,2,6,6,-2,63,-1026
420,4.705724,1,7,8,3,66,-1027
421,4.717382,4,5,10,1,62,-1036
422,4.729023,1,7,11,0,63,-1036
423,4.740661,3,4,8,0,61,-1032
424,4.752336,1,4,8,-1,65,-1030
425,4.763997,3,6,8,-1,67,-1026
426,4.775649,4,7,9,5,67,-1040
427,4.787344,3,4,10,-4,66,-1035
428,4.798982,4,6,8,-5,62,-1036
429,4.810552,2,6,8,-1,64,-1030
430,4.822128,3,5,9,2,64,-1032
431,4.833677,2,5,9,-2,66,-1033
432,4.845221,2,8,11,1,68,-1035
433,4.856765,2,6,9,-1,65,-1036
434,4.868319,3,5,9,1,66,-1031
435,4.879866,3,5,8,0,67,-1029
436,4.891446,1,8,10,-1,67,-1027
437,4.903041,3,7,11,-2,64,-1031
438,4.914679,1,6,7,0,64,-1027
439,4.926353,3,6,10,1,67,-1033
440,4.938052,4,7,8,0,62,-1032
441,4.949707,3,4,8,-3,66,-1029
442,4.961366,3,5,10,-1,65,-1038
443,4.973026,2,6,8,-5,61,-1033
444,4.984679,1,4,12,-3,62,-1036
445,4.996351,1,7,11,0,64,-1031
446,5.008018,4,5,9,-3,66,-1033
447,5.019681,3,6,7,-3,65,-1038
448,5.031248,2,5,7,-1,64,-1029
449,5.042798,4,8,8,-2,64,-1034
450,5.054406,1,4,9,-1,65,-1031
451,5.065991,3,8,8,-2,69,-1030
452,5.077547,3,5,10,-2,66,-1029
453,5.08909,3,6,10,0,64,-1034
454,5.100642,2,7,9,-1,67,-1027
455,5.112185,2,7,12,-1,66,-1035
456,5.123897,2,8,11,-3,65,-1025
457,5.135669,2,7,9,-3,67,-1037
458,5.147362,3,8,9,-2,67,-1029
459,5.159015,3,8,9,2,66,-1037
460,5.170665,2,7,8,-2,65,-1031
461,5.182329,3,4,9,1,66,-1030
462,5.193976,2,5,10,-2,69,-1034
463,5.205632,2,7,8,1,61,-1033
464,5.21729,3,7,10,-3,63,-1031
465,5.228961,2,4,9,0,63,-1038
466,5.240533,1,6,10,0,68,-1035
467,5.252088,4,6,10,-2,64,-1031
468,5.263678,4,3,11,-3,70,-1035
469,5.275214,4,4,9,1,65,-1040
470,5.28678,5,3,9,1,65,-1035
471,5.298424,3,7,9,-1,65,-1037
472,5.310016,3,6,10,3,63,-1030
473,5.321583,3,7,9,-5,65,-1032
474,5.333156,4,6,10,-1,65,-1033
475,5.344722,3,5,9,-2,65,-1035
476,5.356287,3,4,9,-1,65,-1023
477,5.367834,3,4,10,-1,66,-1034
478,5.379385,1,6,10,3,63,-1032
479,5.390954,3,5,9,1,68,-1033
480,5.402509,3,6,10,-2,65,-1037
481,5.414062,0,7,9,0,68,-1029
482,5.425706,2,8,10,-1,65,-1033
483,5.437392,4,6,9,1,65,-1034
484,5.449041,3,4,9,0,69,-1035
485,5.4607,3,3,10,0,65,-1026
486,5.472379,2,7,9,1,68,-1033
487,5.483991,3,7,7,-2,67,-1031
488,5.495639,2,6,8,-1,65,-1032
489,5.507312,1,7,10,1,64,-1036
490,5.518968,2,6,9,-2,67,-1031
491,5.530629,3,6,10,-2,64,-1036
492,5.54231,1,6,9,-3,69,-1032
493,5.553909,3,7,9,1,66,-1026
494,5.565477,0,5,7,0,64,-1033
495,5.57703,4,9,9,1,66,-1040
496,5.588577,2,8,8,1,57,-1040
497,5.600155,3,8,10,0,67,-1036
498,5.611685,4,7,7,-2,64,-1035
499,5.623208,1,7,7,-3,66,-1033
500,5.634769,1,6,8,-1,67,-1030
501,5.64648,3,6,9,-2,63,-1026
502,5.658152,2,7,9,-3,66,-1032
503,5.669807,0,5,9,-5,67,-1034
504,5.681456,2,5,11,-3,69,-1028
505,5.693097,3,8,8,-3,66,-1036
506,5.704745,1,7,10,0,65,-1030
507,5.716448,2,7,11,0,63,-1032
508,5.728117,4,7,8,0,62,-1034
509,5.73976,0,6,9,0,67,-1031
510,5.751439,3,3,9,-3,66,-1034
511,5.762958,4,6,9,-4,66,-1027
512,5.774503,5,6,9,-4,66,-1038
513,5.786041,3,6,9,1,63,-1030
514,5.797579,3,5,10,-2,62,-1039
515,5.809137,3,7,9,-2,66,-1037
516,5.820692,3,6,8,1,67,-1035
517,5.832258,3,7,9,0,67,-1030
518,5.843817,3,6,9,3,65,-1029
519,5.855456,2,6,8,-3,68,-1037
520,5.867114,2,8,10,1,67,-1040
521,5.87876,3,4,11,-4,65,-1031
522,5.890415,0,6,8,0,66,-1028
523,5.902062,2,7,11,0,66,-1033
524,5.913722,1,7,10,2,64,-1032
525,5.925365,3,6,9,3,68,-1034
526,5.937033,3,6,10,-4,64,-1033
527,5.948699,1,8,10,1,65,-1028
528,5.96035,2,6,10,1,63,-1030
529,5.971927,2,7,10,-4,65,-1029
530,5.983514,3,6,8,0,68,-1028
531,5.995076,2,5,8,1,66,-1031
532,6.006623,2,5,10,0,68,-1035
533,6.018168,1,6,7,-1,66,-1035
534,6.029731,0,3,9,3,63,-1032
535,6.041279,3,3,8,-1,67,-1037
536,6.052878,1,7,10,-1,65,-1030
537,6.064566,2,4,10,0,65,-1033
538,6.076255,2,5,7,-4,66,-1033
539,6.087915,4,7,9,-6,65,-1038
540,6.099561,2,5,10,0,62,-1033
541,6.111218,3,7,9,5,62,-1033
542,6.122858,3,6,9,-3,64,-1032
543,6.134504,2,6,9,-1,68,-1038
544,6.146183,1,7,9,0,65,-1030
545,6.157835,2,6,6,0,65,-1035
546,6.169514,2,6,10,0,65,-1031
547,6.181089,2,6,10,2,69,-1028
548,6.19263,2,5,9,-5,66,-1027
549,6.204169,3,7,9,-4,66,-1033
550,6.215745,1,6,10,0,63,-1032
551,6.227313,3,7,9,-3,63,-1035
552,6.238869,3,6,10,0,64,-1031
553,6.250405,4,6,9,-1,66,-1027
554,6.261949,1,6,9,2,69,-1039
555,6.27357,4,6,7,0,68,-1031
556,6.285207,0,5,8,-3,68,-1030
557,6.296877,4,6,9,0,65,-1025
558,6.308544,0,5,9,0,66,-1034
559,6.320186,3,7,10,1,67,-1031
560,6.331858,2,4,10,1,64,-1029
561,6.343538,4,5,11,1,71,-1043
562,6.355203,3,5,10,3,64,-1033
563,6.36686,1,6,11,-1,60,-1035
564,6.378543,2,7,9,-3,62,-1032
565,6.390107,1,7,8,0,65,-1038
566,6.401655,3,4,8,-1,64,-1029
567,6.413245,2,5,9,1,66,-1033
568,6.424795,1,9,9,1,67,-1033
569,6.436362,2,6,9,0,69,-1033
570,6.447922,2,7,9,-1,68,-1028
571,6.459496,2,8,10,0,66,-1031
572,6.471083,3,5,10,-1,63,-1035
573,6.482695,1,5,9,-1,66,-1033
574,6.494348,3,5,10,-4,62,-1030
575,6.505995,1,6,10,-1,68,-1029
576,6.517651,3,8,11,0,60,-1033
577,6.529306,1,6,10,0,63,-1029
578,6.541009,3,8,9,0,65,-1040
579,6.552792,1,7,9,1,69,-1037
580,6.564447,3,7,10,-1,68,-1033
581,6.5762,4,5,9,-3,67,-1020
582,6.587912,2,7,8,-3,68,-1033
583,6.599448,2,8,9,0,65,-1036
584,6.611001,5,4,9,-7,67,-1031
585,6.622578,2,6,10,3,68,-1035
586,6.634118,1,5,9,-3,65,-1026
587,6.645652,4,6,9,4,63,-1026
588,6.657188,1,6,10,0,65,-1038
589,6.668732,1,4,9,-1,68,-1036
590,6.680301,2,7,8,0,64,-1035
591,6.692038,3,5,11,2,66,-1035
592,6.703723,2,6,11,-3,68,-1032
593,6.715409,5,5,11,0,72,-1029
594,6.727093,2,7,11,-5,63,-1032
595,6.738771,3,7,9,-4,65,-1039
596,6.750421,2,4,10,-2,62,-1032
597,6.762071,4,7,9,-3,67,-1033
598,6.773738,2,6,11,2,67,-1039
599,6.785419,1,6,9,-4,65,-1031
600,6.797069,3,5,8,0,67,-1033
601,6.808626,3,4,9,-4,66,-1042
602,6.820171,3,8,10,-3,66,-1033
603,6.831686,2,4,11,-1,68,-1032
604,6.843206,2,8,8,0,62,-1034
605,6.854741,2,7,9,1,67,-1035
606,6.866283,2,5,10,-4,64,-1038
607,6.877832,2,7,10,-1,68,-1035
608,6.889387,2,7,11,-1,69,-1032
609,6.901046,3,5,8,0,67,-1031
610,6.912721,4,5,8,0,63,-1036
611,6.924423,2,4,10,-2,67,-1033
612,6.936075,2,6,8,1,65,-1026
613,6.94776,5,8,8,-2,65,-1036
614,6.959415,1,4,8,-4,64,-1033
615,6.971101,1,6,11,-1,65,-1035
616,6.982746,2,10,9,-3,64,-1034
617,6.994417,3,5,10,0,65,-1034
618,7.00607,2,5,7,0,63,-1032
619,7.017629,2,6,8,-1,64,-1033
620,7.02917,2,7,9,-2,64,-1030
621,7.04072,3,5,9,-1,65,-1034
622,7.052345,1,6,10,0,68,-1029
623,7.063924,3,6,9,1,68,-1025
624,7.075451,1,5,8,-2,64,-1033
625,7.08696,2,5,8,-5,65,-1033
626,7.098507,4,7,9,-1,66,-1032
627,7.110132,0,6,9,-2,65,-1032
628,7.12177,2,5,10,-2,62,-1040
629,7.133425,0,8,10,1,63,-1034
630,7.145077,5,7,11,2,67,-1037
631,7.156745,0,9,8,2,62,-1032
632,7.168402,1,5,7,-3,64,-1031
633,7.18006,2,6,8,0,64,-1031
634,7.191762,4,7,9,5,66,-1041
635,7.203412,3,5,11,0,67,-1032
636,7.214957,2,6,12,4,66,-1035
637,7.226506,2,7,8,2,65,-1032
638,7.238097,4,4,8,-5,70,-1029
639,7.249644,2,7,9,-6,65,-1035
640,7.261205,2,6,10,0,63,-1037
641,7.272738,2,6,10,-1,67,-1030
642,7.28432,1,5,7,0,62,-1038
643,7.295911,3,6,8,-3,68,-1027
644,7.307471,2,8,8,-1,63,-1028
645,7.319145,3,7,8,0,66,-1040
646,7.330804,1,9,9,2,66,-1033
647,7.342465,2,5,9,0,69,-1028
648,7.35412,3,7,11,-1,67,-1036
649,7.365777,2,6,9,-1,69,-1037
650,7.377461,0,5,10,3,65,-1034
651,7.389251,2,4,9,-1,66,-1039
652,7.400902,2,6,9,-3,64,-1031
653,7.412563,3,7,11,-1,65,-1034
654,7.424251,2,6,10,1,61,-1040
655,7.435825,2,7,10,1,70,-1029
656,7.447372,5,5,10,-1,66,-1029
657,7.458914,4,8,9,-1,67,-1033
658,7.470458,3,5,10,-4,62,-1033
659,7.481994,1,6,6,0,67,-1033
660,7.493531,3,4,9,-2,63,-1038
661,7.505078,2,6,10,-4,61,-1024
662,7.516638,2,9,9,0,63,-1030
663,7.528253,3,6,9,1,70,-1035
664,7.539914,3,8,11,0,63,-1033
665,7.551596,3,7,8,0,69,-1036
666,7.563238,2,8,7,3,65,-1031
667,7.574886,2,5,9,-1,66,-1034
668,7.586536,0,6,10,2,62,-1032
669,7.59819,5,6,8,-1,64,-1027
670,7.609837,4,7,6,-1,67,-1036
671,7.621513,2,8,10,-5,68,-1034
672,7.633166,4,9,10,-2,65,-1041
673,7.644723,0,11,8,-3,68,-1031
674,7.65632,7,13,10,-1,69,-1048
675,7.667875,5,12,10,0,58,-1031
676,7.67946,2,15,9,0,74,-1038
677,7.69101,12,19,10,-11,58,-1037
678,7.702572,-1,19,11,-6,59,-1049
679,7.71411,7,18,10,-11,65,-1014
680,7.725658,9,16,9,-11,65,-1029
681,7.737281,-1,16,11,-7,66,-1027
682,7.748932,2,15,9,13,71,-1016
683,7.760595,12,10,8,16,67,-1028
684,7.772263,-1,11,9,18,62,-1029
685,7.783916,0,9,9,15,74,-1022
686,7.795582,13,7,9,5,66,-1033
687,7.807233,-2,10,11,5,63,-1038
688,7.818887,0,6,7,1,66,-1017
689,7.830543,9,6,9,10,67,-1026
690,7.842183,2,2,8,11,60,-1033
691,7.853821,2,6,9,9,65,-1027
692,7.865503,7,2,11,5,64,-1025
693,7.877148,-1,0,8,-1,63,-1027
694,7.888793,4,1,9,-8,70,-1046
695,7.90046,0,5,10,-4,61,-1048
696,7.912129,-4,8,10,2,66,-1018
697,7.923781,11,3,8,9,66,-1036
698,7.935468,5,6,7,-1,54,-1038
699,7.947012,-5,7,7,-14,70,-1022
700,7.958552,8,5,8,-12,68,-1038
701,7.970093,2,8,9,-6,60,-1034
702,7.981667,-2,10,9,9,65,-1040
703,7.993215,3,8,9,19,70,-1029
704,8.004753,2,9,8,11,67,-1046
705,8.016299,0,9,9,6,68,-1038
706,8.027869,4,5,11,0,72,-1018
707,8.039454,10,4,11,-1,66,-1026
708,8.051119,-1,5,10,-3,67,-1029
709,8.062767,4,6,8,4,67,-1023
710,8.074404,6,1,8,10,58,-1044
711,8.086047,-1,5,8,13,60,-1042
712,8.097719,1,3,7,12,66,-1028
713,8.109363,4,2,9,-7,66,-1038
714,8.121011,0,3,9,-9,68,-1026
715,8.132654,0,0,8,0,71,-1019
716,8.14431,7,0,9,12,69,-1029
717,8.155999,0,-2,8,11,64,-1022
718,8.167651,3,-1,7,3,74,-1024
719,8.179317,6,-3,9,1,66,-1032
720,8.190966,0,-1,10,-3,64,-1040
721,8.202615,0,0,11,1,61,-1038
722,8.214259,3,3,10,1,67,-1047
723,8.225896,1,7,10,4,63,-1039
724,8.237549,2,8,8,-2,58,-1042
725,8.249197,1,10,9,-9,67,-1038
726,8.260876,3,11,9,-12,65,-1027
727,8.272526,4,7,6,-7,70,-1027
728,8.284176,2,6,8,-3,69,-1033
729,8.29586,1,6,8,12,69,-1026
730,8.307498,3,5,11,7,71,-1036
731,8.31919,2,4,7,-1,67,-1028
732,8.330846,1,4,8,0,68,-1026
733,8.34249,5,2,10,-4,59,-1021
734,8.354039,2,0,11,0,56,-1031
735,8.365577,1,2,7,4,59,-1033
736,8.377151,4,0,9,4,56,-1040
737,8.388695,1,3,10,1,61,-1049
738,8.400259,0,2,9,0,64,-1039
739,8.411886,5,5,9,-9,68,-1035
740,8.423446,1,6,6,-12,68,-1037
741,8.435026,0,9,10,-13,69,-1028
742,8.446582,2,8,11,-8,66,-1026
743,8.458234,3,6,8,-2,63,-1020
744,8.469895,3,7,10,-1,68,-1032
745,8.481542,2,7,9,2,61,-1035
746,8.4932,0,10,9,5,64,-1026
747,8.504863,4,5,10,2,65,-1042
748,8.516511,2,9,9,-1,65,-1032
749,8.528164,2,5,8,2,63,-1036
750,8.539814,3,8,9,1,66,-1033
751,8.551502,1,7,8,3,64,-1026
752,8.563172,4,6,10,4,63,-1031
753,8.57474,4,3,9,4,63,-1029
754,8.586305,3,4,6,1,65,-1035
755,8.597853,2,5,6,5,65,-1034
756,8.609404,3,5,10,5,65,-1037
757,8.620952,1,5,8,0,63,-1027
758,8.632493,3,6,10,-5,68,-1040
759,8.644048,1,7,10,-10,67,-1039
760,8.655617,1,4,9,-6,68,-1029
761,8.667403,4,4,10,0,64,-1034
762,8.679109,1,6,10,3,66,-1041
763,8.69076,2,7,10,4,65,-1027
764,8.70242,3,5,7,-1,63,-1027
765,8.714085,3,7,9,-5,64,-1027
766,8.72574,3,8,10,2,64,-1023
767,8.73739,4,5,7,5,63,-1035
768,8.749056,2,5,8,1,69,-1039
769,8.760733,1,6,9,-4,68,-1024
770,8.772425,4,7,9,-7,62,-1029
771,8.784051,1,8,9,-2,68,-1032
772,8.795701,4,6,9,-4,68,-1036
773,8.807343,1,9,9,-1,65,-1030
774,8.818939,2,6,9,3,63,-1032
775,8.830486,1,4,8,5,65,-1029
776,8.842049,5,6,9,5,62,-1037
777,8.85359,2,4,10,6,64,-1033
778,8.865145,3,9,7,1,59,-1033
779,8.876862,2,7,10,6,62,-1035
780,8.888538,2,5,8,2,63,-1036
781,8.900226,2,4,8,-4,65,-1035
782,8.911892,2,5,9,-4,68,-1034
783,8.923588,4,5,8,-4,68,-1031
784,8.935227,1,7,8,-1,67,-1034
785,8.94687,4,6,7,-1,68,-1042
786,8.958522,4,9,7,-1,67,-1033
787,8.97018,0,8,8,-3,71,-1039
788,8.981846,2,7,7,-9,64,-1033
789,8.993418,1,6,11,-3,65,-1032
790,9.004965,2,7,11,-1,64,-1035
791,9.016538,2,9,10,1,67,-1032
792,9.02809,3,6,8,4,62,-1033
793,9.039673,2,7,9,2,63,-1027
794,9.051203,3,7,9,3,62,-1038
795,9.062734,3,6,9,2,63,-1035
796,9.074282,2,4,9,1,63,-1031
797,9.085902,2,5,11,0,64,-1033
798,9.097553,2,3,9,1,67,-1028
799,9.109213,3,7,10,1,65,-1035
800,9.120867,2,6,8,-3,64,-1038
801,9.132551,5,6,10,-4,63,-1029
802,9.144236,0,4,10,-4,65,-1039
803,9.155895,3,7,10,-1,66,-1033
804,9.16755,0,4,10,-2,69,-1028
805,9.179244,1,7,10,0,67,-1031
806,9.190899,2,7,9,1,66,-1031
807,9.202458,2,6,8,0,66,-1029
808,9.214031,3,6,9,0,69,-1042
809,9.225574,4,6,10,2,67,-1034
810,9.237113,3,5,11,1,66,-1030
811,9.248659,0,5,7,-3,67,-1038
812,9.26021,1,8,10,-2,66,-1040
813,9.271781,3,6,11,1,65,-1032
814,9.283368,2,6,11,-1,66,-1035
815,9.294972,4,4,10,-1,66,-1017
816,9.306622,2,8,8,-1,70,-1031
817,9.318268,5,5,9,-5,66,-1034
818,9.32994,-1,8,10,0,62,-1025
819,9.341588,6,7,8,-1,63,-1025
820,9.353232,0,5,9,0,66,-1036
821,9.364884,6,6,9,4,60,-1036
822,9.376543,1,7,8,-3,64,-1035
823,9.388209,1,8,10,2,68,-1033
824,9.399882,1,7,8,0,68,-1037
825,9.411558,1,5,9,0,65,-1027
826,9.423225,1,5,10,3,70,-1037
827,9.434878,1,4,8,4,66,-1029
828,9.44655,2,6,7,-1,70,-1032
829,9.458205,2,5,9,-2,68,-1031
830,9.469847,4,7,10,0,69,-1035
831,9.481499,4,5,9,-6,66,-1034
832,9.493134,3,7,10,0,64,-1030
833,9.504713,2,6,8,-5,63,-1026
834,9.516288,2,6,9,-5,65,-1037
835,9.527883,2,7,10,-3,64,-1034
836,9.539443,0,7,9,0,65,-1040
837,9.551018,3,6,10,6,62,-1031
838,9.562556,3,5,10,0,67,-1033
839,9.574108,3,10,8,-2,62,-1030
840,9.585655,2,6,8,1,63,-1026
841,9.597213,2,8,9,-4,67,-1032
842,9.608866,3,5,10,0,64,-1035
843,9.620516,1,7,8,7,64,-1033
844,9.632189,4,3,10,3,62,-1030
845,9.643861,2,6,9,-1,69,-1034
846,9.655483,3,3,10,0,61,-1028
847,9.66715,2,5,10,-5,67,-1031
848,9.678811,2,6,9,-4,68,-1036
849,9.690478,1,8,8,-4,65,-1033
850,9.702143,4,8,9,-2,68,-1035
851,9.713807,1,7,10,0,64,-1041
852,9.725458,4,8,8,-2,67,-1025
853,9.737104,4,7,9,-1,63,-1030
854,9.748752,1,7,7,1,69,-1027
855,9.760418,1,7,8,-1,60,-1035
856,9.772119,3,8,9,0,67,-1034
857,9.783741,2,7,8,-4,65,-1035
858,9.795449,1,8,11,1,67,-1028
859,9.807109,4,4,8,1,67,-1028
860,9.818751,1,7,10,0,66,-1034
861,9.830429,2,6,10,0,67,-1032
862,9.842072,2,5,9,0,71,-1026
863,9.853715,2,5,9,0,69,-1040
864,9.865362,3,7,10,3,68,-1027
865,9.877059,3,5,9,6,70,-1036
866,9.888711,4,6,9,1,65,-1032
867,9.900428,1,7,10,1,63,-1037
868,9.912081,1,4,9,-6,62,-1037
869,9.923741,2,4,9,0,63,-1025
870,9.935418,3,6,11,-6,67,-1033
871,9.947088,0,6,9,1,64,-1030
872,9.958729,2,7,10,-1,65,-1034
873,9.970397,1,7,8,0,65,-1027
874,9.98205,2,7,9,-6,67,-1036
875,9.9937,3,5,10,-2,62,-1031
876,10.005343,1,7,8,-3,62,-1033
877,10.01689,3,5,9,0,67,-1030
878,10.028427,4,6,8,2,66,-1036
879,10.040006,1,7,8,0,68,-1033
880,10.051566,3,6,8,2,63,-1032
881,10.063111,3,7,8,0,65,-1025
882,10.074654,3,9,9,1,68,-1030
883,10.086195,1,4,9,0,67,-1031
884,10.097743,2,5,9,2,63,-1033
885,10.109299,1,7,10,5,66,-1033
886,10.120929,3,6,8,1,63,-1032
887,10.132579,2,7,9,0,65,-1043
888,10.14426,2,8,10,1,64,-1031
889,10.155924,2,6,9,-2,68,-1036
890,10.167601,1,6,10,-1,67,-1035
891,10.179232,2,8,11,-2,63,-1028
892,10.190868,0,5,9,-2,62,-1035
893,10.202515,2,6,9,-1,69,-1028
894,10.214198,3,7,9,-1,65,-1038
895,10.225859,3,5,9,0,65,-1034
896,10.237433,3,7,11,1,64,-1034
897,10.249044,1,8,7,4,69,-1033
898,10.26062,2,7,7,0,64,-1033
899,10.272168,5,5,9,-2,65,-1029
900,10.283752,3,6,9,1,60,-1031
901,10.295318,2,4,10,-1,69,-1032
902,10.306878,3,6,11,1,64,-1038
903,10.318437,2,6,8,5,61,-1033
904,10.33006,2,7,8,-1,66,-1033
905,10.34171,2,7,10,3,70,-1036
906,10.353351,1,5,8,0,66,-1040
907,10.364992,2,6,9,-1,66,-1031
908,10.376653,3,5,10,0,65,-1040
909,10.388306,0,5,8,0,62,-1041
910,10.399985,2,8,10,0,68,-1041
911,10.411665,3,9,10,-2,66,-1032
912,10.423319,2,7,9,3,63,-1033
913,10.434967,3,5,7,0,66,-1036
914,10.446506,1,6,7,-1,65,-1033
915,10.458047,3,6,6,0,66,-1031
916,10.469619,1,6,8,3,67,-1032
917,10.481187,1,6,10,4,65,-1036
918,10.492745,2,6,9,0,71,-1026
919,10.504293,2,6,9,2,66,-1031
920,10.51587,3,7,8,0,64,-1037
921,10.527439,3,2,7,1,67,-1026
922,10.539084,3,5,9,0,65,-1039
923,10.550745,1,7,9,-3,63,-1041
924,10.562414,2,8,7,-1,66,-1034
925,10.574065,2,11,8,0,67,-1038
926,10.585739,2,10,9,-6,63,-1035
927,10.597403,3,13,9,-11,71,-1041
928,10.609062,7,14,10,-12,65,-1038
929,10.620745,0,16,8,-10,66,-1036
930,10.632415,4,16,9,-3,67,-1031
931,10.644087,1,15,9,-1,68,-1029
932,10.655681,4,14,10,-1,69,-1039
933,10.667209,3,13,11,6,66,-1027
934,10.67876,2,11,10,5,69,-1025
935,10.690339,3,7,9,6,65,-1023
936,10.701888,3,8,9,10,63,-1026
937,10.713463,3,5,10,12,65,-1028
938,10.724999,1,5,8,7,60,-1041
939,10.736595,2,6,9,4,62,-1030
940,10.748245,3,4,8,2,64,-1029
941,10.759916,1,3,10,4,63,-1033
942,10.771605,2,3,9,3,62,-1034
943,10.783289,0,6,9,-1,60,-1036
944,10.794959,2,5,9,0,69,-1030
945,10.806639,0,3,9,0,69,-1030
946,10.818291,2,5,10,1,69,-1030
947,10.829939,2,4,10,-4,67,-1030
948,10.841607,0,6,9,-6,68,-1036
949,10.85328,3,4,9,-2,67,-1040
950,10.864862,2,8,8,0,61,-1039
951,10.876413,2,6,9,-3,66,-1032
952,10.887927,3,6,9,0,64,-1036
953,10.899444,2,6,7,0,64,-1031
954,10.910959,1,8,8,-4,63,-1032
955,10.922498,2,7,9,5,64,-1027
956,10.934036,3,6,9,8,68,-1037
957,10.945607,0,7,9,4,66,-1029
958,10.957276,3,6,9,4,66,-1026
959,10.968933,2,5,8,-1,66,-1027
960,10.980604,4,6,10,1,68,-1035
961,10.992304,1,7,9,-1,70,-1034
962,11.003993,2,4,10,-2,63,-1031
963,11.015669,1,6,9,0,62,-1030
964,11.027338,0,4,8,1,63,-1034
965,11.038972,3,6,8,4,66,-1030
966,11.050653,3,6,10,1,61,-1033
967,11.062304,4,6,11,0,64,-1033
968,11.073866,4,8,9,0,65,-1035
969,11.085427,3,7,10,1,65,-1032
970,11.096978,1,6,9,-1,63,-1023
971,11.108519,2,10,9,2,63,-1038
972,11.120079,2,6,11,0,65,-1032
973,11.131637,2,4,8,0,63,-1031
974,11.143197,3,6,9,4,64,-1032
975,11.154756,2,9,11,5,64,-1035
976,11.166395,4,7,11,1,63,-1032
977,11.178043,3,6,6,1,65,-1029
978,11.189693,2,5,9,3,65,-1033
979,11.201333,2,5,9,4,63,-1030
980,11.212973,2,3,9,4,69,-1034
981,11.22466,4,4,11,0,65,-1034
982,11.236311,3,4,8,1,62,-1025
983,11.247984,1,5,8,4,64,-1034
984,11.259666,3,5,9,0,67,-1031
985,11.271335,3,5,8,-1,65,-1039
986,11.282923,1,2,12,2,64,-1024
987,11.294632,1,4,9,-4,60,-1036
988,11.306211,2,4,8,-4,63,-1034
989,11.317769,2,5,9,-8,68,-1034
990,11.329352,2,6,9,1,65,-1037
991,11.340898,0,5,10,-2,67,-1025
992,11.352448,1,3,10,2,70,-1037
993,11.364056,1,4,7,-2,64,-1036
994,11.375625,2,8,9,2,65,-1037
995,11.387234,2,6,11,1,68,-1029
996,11.398797,3,5,8,-2,66,-1030
997,11.410348,5,6,9,1,68,-1033
998,11.421891,1,5,9,1,66,-1029
999,11.43345,2,5,6,4,67,-1022
1000,11.445008,3,5,9,2,66,-1032
1001,11.456558,4,4,10,3,63,-1039
1002,11.468194,2,3,8,1,67,-1034
1003,11.479892,4,7,9,-1,69,-1033
1004,11.491564,1,5,9,-1,68,-1031
1005,11.503246,3,7,7,-6,66,-1032
1006,11.514902,3,4,7,-5,61,-1036
1007,11.526549,2,7,11,-2,61,-1035
1008,11.538193,1,5,10,-1,63,-1033
1009,11.549866,2,4,9,5,65,-1027
1010,11.561519,3,6,8,5,64,-1037
1011,11.573182,2,5,9,2,70,-1029
1012,11.584882,3,6,7,0,69,-1032
1013,11.596451,2,7,10,-1,65,-1034
1014,11.608006,1,6,8,1,69,-1027
1015,11.619584,2,7,11,0,66,-1033
1016,11.631143,1,5,8,-5,62,-1035
1017,11.642703,2,6,8,-2,66,-1037
1018,11.654242,2,5,10,-2,65,-1029
1019,11.665784,3,5,10,-2,64,-1030
1020,11.67735,1,6,9,-1,66,-1032
1021,11.688964,4,4,9,4,63,-1038
1022,11.700656,2,6,11,3,65,-1031
1023,11.712311,3,7,9,1,67,-1034
1024,11.723997,3,8,9,-1,65,-1027
1025,11.735676,3,7,10,-4,67,-1029
1026,11.747363,3,6,8,0,64,-1036
1027,11.759017,1,7,10,0,65,-1035
1028,11.770669,3,6,10,4,66,-1028
1029,11.782342,2,6,11,4,67,-1037
1030,11.793995,3,8,10,2,64,-1039
1031,11.805546,1,7,7,-3,67,-1034
1032,11.817099,2,6,7,-2,68,-1032
1033,11.828644,3,4,9,-3,68,-1029
1034,11.840199,3,5,10,-2,74,-1029
1035,11.851748,3,5,8,-3,67,-1037
1036,11.863328,1,5,11,1,65,-1027
1037,11.874872,4,6,10,1,68,-1036
1038,11.886433,2,5,9,4,60,-1041
1039,11.898054,2,5,8,-2,66,-1031
1040,11.909708,4,6,10,-4,59,-1028
1041,11.921375,1,7,10,-3,65,-1033
1042,11.933026,2,7,9,-5,67,-1033
1043,11.944677,1,6,9,1,65,-1033
1044,11.956353,3,6,8,-1,67,-1031
1045,11.967994,3,8,7,3,68,-1028
1046,11.979655,2,6,8,2,65,-1027
1047,11.991335,2,4,9,1,68,-1030
1048,12.002974,2,5,7,3,66,-1036
1049,12.014535,2,7,10,2,70,-1037
1050,12.026085,4,6,11,1,67,-1034
1051,12.037627,4,6,9,0,68,-1035
1052,12.04917,1,7,10,-2,71,-1035
1053,12.060711,5,6,10,5,67,-1038
1054,12.072314,3,6,9,1,64,-1033
1055,12.083867,5,7,8,1,64,-1040
1056,12.095481,3,8,9,0,65,-1034
1057,12.107173,2,4,8,-6,62,-1037
1058,12.118849,2,7,8,2,67,-1032
1059,12.1305,6,6,9,-7,64,-1026
1060,12.142151,2,5,10,-2,63,-1036
1061,12.153799,2,4,9,0,65,-1031
1062,12.165463,5,6,9,-3,62,-1035
1063,12.177107,1,6,10,3,63,-1031
1064,12.188774,1,9,7,2,70,-1035
1065,12.200448,3,5,9,-2,67,-1032
1066,12.212128,1,6,10,5,69,-1033
1067,12.223691,6,7,10,1,66,-1039
1068,12.235259,2,7,8,0,65,-1033
1069,12.246823,1,8,8,0,69,-1028
1070,12.258382,5,7,10,-1,61,-1029
1071,12.269941,0,5,10,-1,64,-1035
1072,12.281484,3,5,11,-1,61,-1027
1073,12.293024,1,8,8,0,62,-1030
1074,12.304588,1,8,9,1,66,-1035
1075,12.316251,4,6,8,1,69,-1032
1076,12.327911,1,5,9,3,65,-1035
1077,12.339601,1,6,7,-3,64,-1036
1078,12.351237,3,6,8,-4,67,-1038
1079,12.362892,1,7,7,1,67,-1034
1080,12.374542,6,4,9,-2,69,-1029
1081,12.38619,3,5,9,-1,63,-1028
1082,12.397861,0,6,11,-3,66,-1033
1083,12.409518,4,8,10,-1,63,-1030
1084,12.4212,0,9,10,4,66,-1030
1085,12.432785,3,8,8,4,69,-1027
1086,12.444332,4,7,11,1,65,-1029
1087,12.45591,2,7,9,2,67,-1033
1088,12.467475,3,7,10,0,66,-1027
1089,12.479025,4,4,11,0,64,-1023
1090,12.49057,0,6,9,1,65,-1035
1091,12.50216,3,3,10,0,63,-1036
1092,12.513727,1,6,9,1,65,-1037
1093,12.525353,5,5,7,0,66,-1045
1094,12.537009,2,4,10,1,58,-1034
1095,12.548661,1,8,8,-1,62,-1035
1096,12.560332,5,6,10,-3,62,-1033
1097,12.571995,1,6,8,-2,67,-1032
1098,12.58366,4,6,9,3,71,-1040
1099,12.595352,4,5,9,3,70,-1033
1100,12.607012,2,7,9,2,71,-1034
1101,12.61867,4,6,10,-2,69,-1039
1102,12.630353,2,6,11,-3,64,-1034
1103,12.641929,3,5,7,-5,65,-1025
1104,12.653471,2,9,13,1,66,-1038
1105,12.665013,3,7,10,1,67,-1040
1106,12.676565,6,9,8,-2,63,-1047
1107,12.688165,2,9,11,-3,63,-1033
1108,12.699685,5,10,8,-2,72,-1036
1109,12.711249,4,10,8,-6,69,-1029
1110,12.722818,4,13,12,-8,70,-1042
1111,12.734469,2,13,9,-1,66,-1048
1112,12.746118,0,15,9,1,65,-1038
1113,12.757756,4,17,10,10,58,-1018
1114,12.769398,6,15,11,1,57,-1037
1115,12.781066,0,15,9,-9,57,-1023
1116,12.792721,1,11,8,-5,63,-1015
1117,12.804386,8,5,9,-2,64,-1029
1118,12.816062,2,10,12,12,64,-1029
1119,12.827746,2,6,8,25,73,-1017
1120,12.839425,6,3,8,24,67,-1033
1121,12.851102,2,5,6,10,67,-1040
1122,12.862746,0,7,9,1,68,-1030
1123,12.874389,4,4,9,-12,63,-1026
1124,12.88603,3,5,8,-6,62,-1038
1125,12.897673,0,4,8,0,64,-1033
1126,12.909342,5,3,9,6,67,-1037
1127,12.920985,1,3,8,12,66,-1036
1128,12.932658,2,7,6,0,67,-1038
1129,12.944329,3,3,8,-6,74,-1037
1130,12.955992,1,7,11,-13,70,-1028
1131,12.967644,3,10,10,-10,64,-1026
1132,12.979312,3,10,9,3,68,-1030
1133,12.990974,4,8,11,4,62,-1041
1134,13.002626,2,11,7,4,63,-1034
1135,13.014289,3,10,11,5,59,-1032
1136,13.025938,1,9,8,-1,62,-1029
1137,13.037608,3,7,8,-3,64,-1037
1138,13.049259,3,9,9,1,65,-1024
1139,13.060818,3,9,12,12,64,-1030
1140,13.072415,6,-16,12,3,52,-1006
1141,13.083968,8,-1,9,10,70,-1040
1142,13.095528,-1,5,9,-2,64,-1017
1143,13.107086,0,3,8,-1,72,-1053
1144,13.118657,13,0,10,1,65,-1049
1145,13.130197,-2,0,9,3,62,-1027
1146,13.141748,7,1,8,3,71,-1038
1147,13.153385,1,5,9,6,60,-1024
1148,13.165029,2,4,7,3,63,-1036
1149,13.176677,2,4,8,1,63,-1032
1150,13.188346,1,5,8,0,64,-1023
1151,13.199997,2,2,8,-5,70,-1034
1152,13.211671,1,2,7,-7,68,-1025
1153,13.223358,1,5,11,0,69,-1041
1154,13.234976,-7,4,10,9,60,-992
1155,13.246635,7,1,10,7,82,-1060
1156,13.258303,10,4,9,2,58,-1026
1157,13.269855,-9,4,8,-3,69,-1047
1158,13.281413,10,3,11,-3,61,-1022
1159,13.292972,-5,9,9,1,69,-1033
1160,13.304521,12,5,8,-3,72,-1041
1161,13.316084,-6,11,11,-3,64,-1017
1162,13.327674,8,4,10,1,76,-1049
1163,13.339205,3,5,10,2,62,-1023
1164,13.350787,1,3,7,9,74,-1024
1165,13.362405,9,0,8,4,63,-1026
1166,13.374078,-1,-1,9,9,61,-1036
1167,13.385731,1,-4,7,9,66,-1043
1168,13.397367,1,1,10,3,58,-1030
1169,13.40901,-1,3,8,1,62,-1040
1170,13.420682,5,3,9,-4,62,-1035
1171,13.432358,0,6,9,-11,60,-1037
1172,13.444001,1,8,9,-13,68,-1021
1173,13.455693,5,7,7,-7,66,-1033
1174,13.467355,2,6,10,-1,61,-1035
1175,13.478913,0,8,6,3,69,-1028
1176,13.490462,5,7,9,1,69,-1033
1177,13.502013,0,5,9,-1,62,-1034
1178,13.513563,3,7,9,0,67,-1032
1179,13.525113,5,6,10,0,64,-1032
1180,13.536675,2,5,11,2,62,-1031
1181,13.548268,4,4,9,2,60,-1039
1182,13.559829,3,4,11,5,59,-1032
1183,13.57154,2,5,8,2,61,-1036
1184,13.58325,2,6,8,-3,59,-1032
1185,13.594955,2,4,10,-3,66,-1039
1186,13.60661,2,6,8,-2,69,-1038
1187,13.618268,3,5,9,1,68,-1029
1188,13.629922,4,7,8,-1,70,-1029
1189,13.641586,2,7,9,-1,68,-1030
1190,13.653243,3,4,8,-6,67,-1031
1191,13.664906,1,5,9,-5,62,-1028
1192,13.676589,2,7,9,-3,65,-1038
1193,13.688162,2,5,9,-1,61,-1038
1194,13.699682,2,6,11,0,61,-1035
1195,13.711203,3,5,8,1,62,-1030
1196,13.722746,1,7,10,0,65,-1034
1197,13.734292,3,7,9,4,67,-1024
1198,13.745834,1,3,9,-1,67,-1032
1199,13.757378,4,7,8,0,67,-1028
1200,13.768941,2,5,9,0,66,-1035
1201,13.780573,3,8,9,1,65,-1029
1202,13.792245,3,6,10,0,63,-1031
1203,13.803919,2,7,10,-2,62,-1033
1204,13.815597,1,8,9,-3,60,-1034
1205,13.827227,2,9,9,2,62,-1023
1206,13.838877,3,5,7,-2,66,-1033
1207,13.850515,3,6,9,1,67,-1034
1208,13.862162,2,7,10,-1,70,-1023
1209,13.873837,2,7,9,-2,62,-1032
1210,13.885489,1,6,11,-3,66,-1036
1211,13.897159,4,2,10,2,68,-1024
1212,13.908809,4,5,8,2,65,-1028
1213,13.920486,0,6,9,3,65,-1037
1214,13.932158,3,6,10,0,65,-1027
1215,13.94382,3,4,9,0,65,-1032
1216,13.955516,3,5,11,-2,62,-1035
1217,13.967203,2,7,7,-1,64,-1032
1218,13.978881,2,7,9,0,69,-1034
1219,13.990552,3,6,10,2,66,-1031
1220,14.002198,3,8,6,-2,69,-1030
1221,14.013846,4,7,8,-2,69,-1028
1222,14.025488,2,8,9,-1,67,-1032
1223,14.03716,2,5,10,-1,71,-1031
1224,14.048811,3,6,10,-5,63,-1035
1225,14.0605,2,7,8,0,68,-1030
1226,14.072173,3,7,8,5,62,-1026
1227,14.083885,3,5,10,3,60,-1035
1228,14.095555,3,7,11,3,64,-1027
1229,14.107244,3,6,11,-1,67,-1039
1230,14.118891,2,7,8,-2,65,-1031
1231,14.130555,3,6,8,2,66,-1038
1232,14.142198,3,7,10,-4,70,-1045
1233,14.153849,2,8,9,-5,65,-1043
1234,14.165489,2,5,9,-5,65,-1036
1235,14.177134,3,8,9,0,68,-1029
1236,14.18883,1,5,12,1,64,-1039
1237,14.200502,1,4,11,1,64,-1032
1238,14.212164,1,5,8,0,69,-1029
1239,14.223814,4,7,9,-3,68,-1033
1240,14.235477,1,6,9,4,65,-1027
1241,14.247132,1,7,7,1,70,-1033
1242,14.258801,1,7,10,0,68,-1032
1243,14.270444,2,8,10,-1,70,-1034
1244,14.28209,4,6,9,0,69,-1023
1245,14.293742,3,5,7,-3,66,-1030
1246,14.305293,4,6,10,-4,63,-1028
1247,14.316832,3,7,9,-2,65,-1029
1248,14.32842,2,6,10,0,62,-1038
1249,14.34,1,8,11,-1,62,-1036
1250,14.351563,2,6,9,0,66,-1033
1251,14.363133,2,6,10,1,64,-1029
1252,14.374666,3,5,11,-1,64,-1024
1253,14.386213,2,6,10,0,66,-1033
1254,14.397766,3,5,8,3,68,-1027
1255,14.409422,1,5,9,1,68,-1030
1256,14.421074,2,6,7,2,66,-1032
1257,14.432713,2,1,9,0,65,-1029
1258,14.444384,2,5,8,1,64,-1028
1259,14.456056,2,4,8,1,64,-1034
1260,14.467724,4,6,10,0,65,-1031
1261,14.479379,2,4,8,0,65,-1030
1262,14.491062,2,5,9,-1,65,-1028
1263,14.502704,1,7,10,-1,66,-1034
1264,14.514352,1,6,11,-4,67,-1035
1265,14.526028,1,7,9,-1,64,-1031
1266,14.53768,3,5,8,0,63,-1037
1267,14.549336,3,6,9,0,66,-1035
1268,14.561007,3,7,11,1,65,-1035
1269,14.572684,4,8,8,0,63,-1039
1270,14.584327,2,5,9,0,65,-1034
1271,14.59604,6,5,10,2,67,-1032
1272,14.607711,3,3,10,3,62,-1022
1273,14.619278,1,8,10,0,66,-1035
1274,14.630862,3,5,8,0,65,-1034
1275,14.642411,1,7,9,-1,64,-1028
1276,14.653988,3,6,9,2,64,-1032
1277,14.665537,3,8,8,-1,66,-1039
1278,14.677114,3,5,11,-3,64,-1030
1279,14.688655,3,6,11,-3,66,-1036
1280,14.700197,3,5,9,-5,64,-1033
1281,14.711833,0,4,10,-3,62,-1034
1282,14.72349,1,7,8,-1,66,-1026
1283,14.735168,3,5,9,-3,64,-1029
1284,14.746887,0,8,8,2,64,-1032
1285,14.758551,3,8,9,1,62,-1036
1286,14.770198,2,7,12,-3,65,-1030
1287,14.781908,4,6,8,2,70,-1031
1288,14.793683,0,7,10,6,64,-1036
1289,14.80535,1,7,8,1,63,-1028
1290,14.817046,2,6,10,5,67,-1036
1291,14.828618,1,6,10,1,65,-1038
1292,14.840174,4,6,10,-3,68,-1032
1293,14.851745,4,4,10,2,65,-1031
1294,14.863321,3,6,10,-5,67,-1039
1295,14.874871,2,6,8,0,69,-1034
1296,14.886435,2,8,8,-3,67,-1030
1297,14.897984,5,5,11,2,66,-1033
1298,14.909536,3,7,10,-2,63,-1028
1299,14.921168,3,6,8,1,67,-1036
1300,14.932815,1,7,7,0,62,-1031
1301,14.944494,2,8,10,2,66,-1030
1302,14.956183,3,6,9,1,66,-1033
1303,14.967862,3,6,9,2,67,-1031
1304,14.979519,1,6,10,0,68,-1041
1305,14.991204,5,7,10,-2,67,-1034
1306,15.002847,2,7,10,-2,67,-1033
1307,15.014532,1,7,9,0,65,-1037
1308,15.026211,3,8,8,-4,64,-1027
1309,15.037788,1,6,7,0,64,-1035
1310,15.049376,2,6,9,0,68,-1031
1311,15.060973,1,7,10,1,64,-1031
1312,15.072515,0,6,9,-1,67,-1032
1313,15.084071,3,6,11,0,66,-1031
1314,15.095669,3,5,10,-1,64,-1031
1315,15.10722,3,5,9,-1,66,-1033
1316,15.118781,2,8,11,-1,61,-1037
1317,15.130418,2,5,8,2,62,-1026
1318,15.142073,3,7,10,0,63,-1032
1319,15.153742,0,7,11,1,61,-1033
1320,15.165409,4,4,10,-3,67,-1036
1321,15.177052,3,5,9,-3,61,-1035
1322,15.188699,4,7,10,-1,63,-1035
1323,15.200402,2,5,8,0,66,-1029
1324,15.212048,3,7,9,1,65,-1034
1325,15.223736,2,7,9,-3,64,-1035
1326,15.235397,2,7,9,3,64,-1036
1327,15.246965,4,8,8,-1,64,-1028
1328,15.258513,2,6,11,-2,67,-1035
1329,15.270096,3,5,11,0,65,-1036
1330,15.28164,1,7,10,-2,65,-1034
1331,15.293204,1,5,8,-1,62,-1033
1332,15.30475,0,7,8,0,65,-1032
1333,15.316305,3,3,10,1,67,-1032
1334,15.327868,2,6,9,-1,66,-1031
1335,15.339526,0,7,8,3,66,-1035
1336,15.351212,4,6,9,0,66,-1033
1337,15.362881,3,5,10,0,63,-1031
1338,15.374541,3,4,8,1,65,-1036
1339,15.386182,1,6,10,-1,67,-1030
1340,15.397831,4,6,7,0,66,-1040
1341,15.409477,1,6,8,-1,65,-1030
1342,15.421138,1,5,10,-3,71,-1038
1343,15.432829,3,7,6,-1,64,-1026
1344,15.444523,3,5,11,0,67,-1034
1345,15.456095,2,7,11,-6,61,-1035
1346,15.467693,2,5,8,-2,66,-1027
1347,15.479256,2,5,10,3,63,-1037
1348,15.490834,1,6,9,-1,65,-1029
1349,15.502383,2,8,9,2,63,-1035
1350,15.513966,3,6,9,0,67,-1031
1351,15.525502,2,4,9,3,63,-1033
1352,15.537047,2,6,9,2,66,-1026
1353,15.548704,3,7,7,-3,69,-1035
1354,15.560385,3,5,10,1,65,-1033
1355,15.572041,2,5,7,-2,62,-1035
1356,15.58376,2,7,7,-4,69,-1032
1357,15.595419,3,5,7,0,68,-1037
1358,15.607099,2,5,9,-5,67,-1033
1359,15.618751,3,8,10,0,68,-1031
1360,15.630415,1,8,10,2,64,-1033
1361,15.642051,3,7,9,-5,66,-1034
1362,15.653608,3,6,10,0,62,-1031
1363,15.665168,2,6,10,0,67,-1034
1364,15.67671,1,6,8,3,62,-1032
1365,15.68833,4,7,9,-2,64,-1027
1366,15.699899,2,8,9,-1,61,-1026
1367,15.711459,3,6,8,-1,67,-1034
1368,15.723006,1,9,10,-4,62,-1037
1369,15.734553,2,8,10,-3,69,-1036
1370,15.746174,0,6,10,-1,67,-1035
1371,15.757822,3,6,8,1,65,-1036
1372,15.769497,1,6,9,-1,64,-1028
1373,15.781154,2,9,9,-3,63,-1033
1374,15.792803,2,5,9,1,63,-1035
1375,15.804479,1,6,10,-3,62,-1035
1376,15.816167,2,8,10,3,62,-1037
1377,15.827812,2,6,8,-1,63,-1031
1378,15.839521,1,6,11,1,64,-1029
1379,15.851204,3,6,7,-3,68,-1031
1380,15.862766,3,6,8,0,68,-1031
1381,15.874333,2,8,8,-1,64,-1031
1382,15.885875,1,5,9,-4,71,-1038
1383,15.897418,1,6,9,-1,65,-1036
1384,15.90897,2,5,9,0,66,-1036
1385,15.920514,2,7,12,-3,61,-1038
1386,15.932077,2,8,9,-1,64,-1032
1387,15.943629,3,4,11,0,63,-1035
1388,15.955242,4,8,10,0,66,-1027
1389,15.966893,2,6,10,-2,68,-1033
1390,15.97854,2,6,10,1,63,-1028
1391,15.990185,3,6,9,1,67,-1030
1392,16.00185,3,6,10,-1,58,-1031
1393,16.013502,4,8,9,2,70,-1029
1394,16.025141,3,5,8,2,64,-1029
1395,16.036789,2,8,8,3,65,-1028
1396,16.048451,2,6,11,0,68,-1036
1397,16.060135,4,8,8,2,64,-1027
1398,16.071818,2,6,8,1,63,-1038
1399,16.083491,1,4,9,-2,67,-1035
1400,16.095137,2,7,9,0,66,-1034
1401,16.106784,3,6,9,0,62,-1043
1402,16.118419,2,6,10,-6,68,-1029
1403,16.130061,5,4,11,-2,67,-1036
1404,16.141737,1,6,10,-2,65,-1028
1405,16.153401,3,5,9,1,66,-1033
1406,16.165053,3,7,10,0,68,-1022
1407,16.176631,4,6,9,-3,66,-1030
1408,16.188185,2,7,8,0,64,-1034
1409,16.199746,4,7,9,-2,68,-1030
1410,16.211341,4,6,9,1,64,-1029
1411,16.222896,1,7,9,2,66,-1043
1412,16.234447,1,7,9,-2,63,-1035
1413,16.245982,2,6,10,-1,60,-1032
1414,16.257529,2,7,8,0,69,-1032
1415,16.269149,3,5,10,0,65,-1032
1416,16.280796,2,7,12,1,62,-1029
1417,16.292449,2,8,8,-1,66,-1032
1418,16.304149,3,4,10,2,64,-1033
1419,16.315802,3,7,8,0,66,-1031
1420,16.327504,1,5,9,0,68,-1032
1421,16.339162,3,6,11,-5,69,-1032
1422,16.35081,2,6,8,-1,66,-1029
1423,16.36248,2,6,7,1,63,-1028
1424,16.37416,4,7,9,-1,63,-1032
1425,16.385732,2,8,8,0,63,-1039
1426,16.397285,3,7,8,-2,64,-1034
1427,16.408836,2,5,9,0,65,-1032
1428,16.420434,3,5,8,3,65,-1037
1429,16.431988,4,5,9,0,60,-1026
1430,16.443565,4,7,9,-2,59,-1028
1431,16.455122,1,6,10,-2,66,-1040
1432,16.466698,0,6,9,0,64,-1030
1433,16.478334,2,5,8,1,64,-1033
1434,16.490003,3,5,8,-1,68,-1042
1435,16.50165,2,5,8,-1,69,-1030
1436,16.513298,2,4,11,-1,67,-1032
1437,16.524965,3,6,10,-1,67,-1029
1438,16.536615,2,4,9,-1,64,-1026
1439,16.548291,2,8,9,0,69,-1036
1440,16.559981,1,6,8,1,66,-1030
1441,16.571665,3,6,9,-2,64,-1033
1442,16.583382,5,8,7,4,64,-1035
1443,16.594955,3,6,9,-1,62,-1033
1444,16.606555,2,4,8,4,65,-1029
1445,16.618103,2,6,6,-3,65,-1027
1446,16.629661,4,6,10,0,67,-1039
1447,16.641212,3,7,9,0,64,-1025
1448,16.652757,4,6,8,1,62,-1028
1449,16.664305,2,6,9,0,69,-1032
1450,16.675878,2,8,8,0,63,-1035
1451,16.687447,3,7,9,-1,69,-1030
1452,16.698962,1,6,9,-1,66,-1028
1453,16.710507,3,7,8,2,66,-1026
1454,16.722049,1,6,8,0,66,-1032
1455,16.733598,4,6,9,-1,63,-1040
1456,16.745175,2,7,10,-1,67,-1031
1457,16.756728,4,4,8,0,66,-1039
1458,16.768304,3,5,10,0,66,-1033
1459,16.779908,4,5,10,-2,65,-1034
1460,16.791552,2,6,8,0,66,-1030
1461,16.803234,2,8,10,-2,63,-1030
1462,16.814881,0,6,10,1,67,-1024
1463,16.82653,2,7,9,-1,65,-1034
1464,16.838198,0,8,13,-1,63,-1034
1465,16.849846,4,6,10,-2,63,-1032
1466,16.861491,3,4,8,0,63,-1027
1467,16.873135,4,6,9,1,66,-1037
1468,16.884798,2,8,10,1,71,-1032
1469,16.896442,3,5,8,0,67,-1033
1470,16.908127,3,6,8,-2,67,-1037
1471,16.919816,2,6,9,0,63,-1033
1472,16.931492,4,8,9,0,65,-1031
1473,16.943141,1,6,8,-4,63,-1037
1474,16.954787,3,6,10,0,65,-1027
1475,16.966452,4,8,9,-2,63,-1033
1476,16.978098,3,6,12,-3,60,-1036
1477,16.989776,5,8,8,0,68,-1035
1478,17.001455,3,6,9,0,69,-1031
1479,17.013106,2,8,7,0,64,-1033
1480,17.024756,1,5,10,3,61,-1026
1481,17.036422,2,6,9,0,66,-1030
1482,17.048067,2,5,9,0,64,-1032
1483,17.059771,1,9,9,0,62,-1031
1484,17.07143,3,6,6,0,64,-1034
1485,17.083098,1,7,7,0,65,-1037
1486,17.094759,1,5,10,0,62,-1034
1487,17.106422,2,6,9,1,68,-1032
1488,17.118074,0,6,10,0,64,-1027
1489,17.129732,1,6,10,0,62,-1038
1490,17.141383,4,5,9,0,64,-1034
1491,17.153021,3,4,8,4,62,-1030
1492,17.16466,3,8,9,-3,63,-1030
1493,17.176328,3,4,9,-2,66,-1035
1494,17.187978,2,4,10,0,66,-1038
1495,17.199649,4,8,9,0,64,-1029
1496,17.211315,2,8,9,0,65,-1030
1497,17.222869,2,7,8,1,67,-1033
1498,17.234415,1,5,8,0,66,-1029
1499,17.245971,2,6,8,-2,68,-1036
1500,17.257554,3,5,8,-3,64,-1029
1501,17.269101,1,6,8,0,67,-1032
1502,17.280667,2,7,9,1,67,-1035
1503,17.292331,1,8,9,-4,69,-1031
1504,17.303934,3,9,11,-1,68,-1035
1505,17.315528,2,7,11,0,65,-1030
1506,17.327099,4,5,9,3,68,-1036
1507,17.338669,2,7,10,5,62,-1024
1508,17.350219,3,6,7,-1,71,-1035
1509,17.36177,2,7,8,0,67,-1035
1510,17.373321,4,6,7,-6,64,-1028
1511,17.38487,2,8,9,-1,62,-1033
1512,17.39642,2,6,9,-2,61,-1037
1513,17.408038,3,7,9,1,63,-1032
1514,17.419752,2,10,9,-1,66,-1037
1515,17.431416,2,8,9,0,62,-1031
1516,17.443099,2,6,10,-2,67,-1029
1517,17.454756,1,5,9,2,66,-1035
1518,17.466426,2,8,9,0,65,-1028
1519,17.478085,1,6,9,-3,64,-1030
1520,17.489738,2,7,9,2,67,-1040
1521,17.50139,2,5,10,0,68,-1032
1522,17.513074,3,6,7,-1,63,-1034
1523,17.524734,1,6,11,-1,67,-1028
1524,17.536422,3,7,11,2,65,-1031
1525,17.548123,3,6,10,-1,64,-1035
1526,17.559746,3,5,9,2,67,-1031
1527,17.571424,3,6,9,1,61,-1037
1528,17.583097,2,5,9,0,64,-1040
1529,17.594746,3,4,9,-1,63,-1037
1530,17.606406,1,6,10,0,63,-1033
1531,17.618097,2,6,6,-1,64,-1040
1532,17.629818,1,5,6,-4,65,-1033
1533,17.641481,2,7,8,0,67,-1034
1534,17.653132,4,5,11,-5,63,-1026
1535,17.664829,2,4,10,3,69,-1034
1536,17.676513,0,6,8,5,63,-1030
1537,17.688182,4,8,10,-1,67,-1035
1538,17.699858,3,7,9,0,65,-1030
1539,17.711488,4,5,9,2,65,-1033
1540,17.723217,1,5,9,0,63,-1033
1541,17.734886,3,5,10,-4,65,-1035
1542,17.746435,3,6,10,-2,60,-1034
1543,17.75798,1,6,9,0,65,-1032
1544,17.769531,2,6,9,2,66,-1035
1545,17.781089,1,5,10,0,66,-1035
1546,17.792655,4,7,9,-1,64,-1036
1547,17.804208,3,4,10,-1,66,-1031
1548,17.815776,3,6,10,0,66,-1039
1549,17.827336,2,6,10,-1,64,-1032
1550,17.838972,1,7,8,3,64,-1030
1551,17.850613,2,5,10,-1,61,-1029
1552,17.862263,3,6,7,0,66,-1028
1553,17.873937,2,6,9,0,63,-1038
1554,17.885588,4,8,11,0,64,-1033
1555,17.897236,2,7,8,-1,67,-1033
1556,17.908905,2,5,9,0,63,-1027
1557,17.920568,3,7,10,0,66,-1028
1558,17.932265,2,4,9,-1,64,-1032
1559,17.943942,2,7,9,1,67,-1035
1560,17.955614,3,7,9,0,67,-1035
1561,17.967272,2,6,10,0,61,-1034
1562,17.978948,1,6,10,0,69,-1025
1563,17.9906,3,7,8,0,68,-1029
1564,18.002254,3,7,7,1,65,-1031
1565,18.013897,1,5,10,5,66,-1030
1566,18.025583,1,6,9,4,61,-1033
1567,18.037263,1,5,8,0,63,-1037
1568,18.04893,1,8,11,-4,68,-1035
1569,18.06058,4,7,7,1,68,-1031
1570,18.072252,4,6,10,-2,67,-1032
1571,18.083907,3,5,9,0,65,-1037
1572,18.095568,1,6,7,0,64,-1030
1573,18.107273,3,7,9,-2,67,-1033
1574,18.118918,2,5,11,-2,67,-1030
1575,18.130573,3,6,9,0,62,-1036
1576,18.142233,3,7,10,-3,66,-1036
1577,18.153895,1,7,9,1,66,-1027
1578,18.16545,4,6,11,-3,68,-1032
1579,18.177004,3,8,9,2,66,-1034
1580,18.188548,2,7,9,0,66,-1032
1581,18.200112,3,8,8,-4,66,-1032
1582,18.211693,2,4,9,3,64,-1029
1583,18.223282,2,5,8,1,59,-1024
1584,18.23483,2,6,10,-3,70,-1029
1585,18.246394,2,6,10,1,67,-1039
1586,18.258096,4,6,7,-1,66,-1043
1587,18.269771,3,6,8,0,61,-1029
1588,18.281427,1,5,9,2,67,-1033
1589,18.293075,2,4,8,-2,65,-1034
1590,18.304723,0,7,9,-3,64,-1036
1591,18.316407,3,7,8,-4,67,-1029
1592,18.328075,3,6,9,-2,67,-1037
1593,18.339759,2,7,9,-1,71,-1030
1594,18.351445,4,6,9,-3,65,-1031
1595,18.363102,2,8,8,1,69,-1034
1596,18.374771,2,3,9,-5,67,-1033
1597,18.386427,3,7,8,-2,64,-1031
1598,18.398107,3,8,10,1,65,-1031
1599,18.409778,3,7,8,0,66,-1028
1600,18.421429,3,6,10,0,68,-1032
1601,18.433082,4,5,9,3,65,-1030
1602,18.444728,3,5,8,0,62,-1031
1603,18.45643,2,5,10,0,65,-1031
1604,18.468107,3,4,9,0,62,-1037
1605,18.479758,2,5,10,-2,65,-1035
1606,18.491433,0,5,9,-2,64,-1033
1607,18.503105,2,6,7,0,67,-1029
1608,18.514751,4,7,10,-3,69,-1025
1609,18.526414,2,4,10,1,63,-1035
1610,18.538089,5,6,9,-2,66,-1034
1611,18.549733,3,6,9,2,66,-1034
1612,18.561481,2,5,9,0,68,-1028
1613,18.575648,2,7,9,-3,66,-1033
1614,18.587261,2,7,10,1,64,-1034
1615,18.598807,3,4,9,1,61,-1034
1616,18.610353,2,4,6,7,67,-1033
1617,18.621903,2,7,9,-1,68,-1028
1618,18.633499,3,5,10,-2,67,-1033
1619,18.645043,2,5,8,-2,64,-1034
1620,18.656586,0,5,9,1,66,-1037
1621,18.668178,3,7,9,1,66,-1029
1622,18.679877,4,5,9,5,61,-1025
1623,18.691564,2,7,8,1,65,-1028
1624,18.703232,3,6,8,-3,66,-1041
1625,18.714901,3,7,7,0,63,-1035
1626,18.72658,4,6,10,0,65,-1039
1627,18.738227,2,7,10,0,67,-1037
1628,18.749894,2,6,10,0,64,-1031
1629,18.761549,2,6,9,0,68,-1031
1630,18.773215,2,9,10,-7,67,-1028
1631,18.784884,2,8,10,0,65,-1031
1632,18.796479,2,7,9,-1,67,-1039
1633,18.808048,1,8,9,0,63,-1028
1634,18.819615,3,7,10,1,67,-1038
1635,18.831193,2,6,8,4,65,-1027
1636,18.842753,0,7,8,2,65,-1033
1637,18.854297,3,8,11,2,61,-1031
1638,18.865868,2,7,10,0,65,-1038
1639,18.877417,1,7,6,0,63,-1030
1640,18.889046,3,8,10,-2,62,-1025
1641,18.900693,3,7,8,0,68,-1033
1642,18.91237,1,6,10,4,65,-1039
1643,18.924068,2,6,10,0,65,-1035
1644,18.935729,2,6,9,0,62,-1035
1645,18.947408,1,6,7,-1,67,-1031
1646,18.959091,4,7,11,0,64,-1034
1647,18.970737,3,6,11,-1,67,-1037
1648,18.982403,2,5,7,-1,65,-1032
1649,18.994062,3,4,11,-1,63,-1039
1650,19.005625,2,5,8,-1,62,-1031
1651,19.017201,3,7,9,0,69,-1033
1652,19.028751,1,8,9,3,63,-1039
1653,19.040343,4,5,10,1,65,-1035
1654,19.05191,1,6,9,3,63,-1029
1655,19.063442,0,5,10,0,67,-1035
1656,19.074964,4,6,11,-2,67,-1033
1657,19.086526,3,6,10,1,63,-1029
1658,19.098207,3,5,11,-3,67,-1034
1659,19.109877,2,7,9,1,66,-1027
1660,19.121537,3,7,9,2,65,-1034
1661,19.133187,3,7,9,-3,66,-1027
1662,19.144866,3,5,8,0,62,-1039
1663,19.156531,3,7,9,-2,64,-1033
1664,19.16821,3,5,9,2,63,-1034
1665,19.179899,6,7,9,0,68,-1037
1666,19.191568,2,6,9,-1,62,-1032
1667,19.203229,4,7,11,0,69,-1031
1668,19.214902,1,5,10,-1,65,-1035
1669,19.226546,3,4,9,0,67,-1037
1670,19.238198,2,6,10,2,68,-1031
1671,19.249859,0,7,9,-2,66,-1027
1672,19.261518,3,5,9,1,65,-1031
1673,19.273176,2,6,9,0,68,-1031
1674,19.284822,2,5,8,0,63,-1034
1675,19.296531,2,10,9,0,65,-1033
1676,19.308095,3,6,7,-1,68,-1031
1677,19.319667,1,8,8,0,61,-1039
1678,19.331202,6,7,10,0,67,-1033
1679,19.342744,2,7,11,-2,67,-1033
1680,19.354317,2,6,8,4,66,-1037
1681,19.365869,4,5,9,0,63,-1033
1682,19.377417,3,6,9,3,63,-1033
1683,19.388984,3,6,9,-4,64,-1037
1684,19.400537,1,6,9,0,67,-1028
1685,19.412197,2,6,9,-3,68,-1031
1686,19.423865,2,4,11,2,65,-1032
1687,19.435534,3,6,11,0,66,-1028
1688,19.44721,2,7,9,0,67,-1037
1689,19.458859,2,4,9,0,62,-1041
1690,19.470511,3,7,7,2,66,-1037
1691,19.482168,2,7,10,-1,62,-1030
1692,19.493825,2,5,8,-1,67,-1036
1693,19.505477,2,8,8,0,64,-1031
1694,19.517134,1,9,8,-2,66,-1029
1695,19.528818,2,7,10,0,68,-1032
1696,19.540533,2,7,10,1,70,-1035
1697,19.552187,3,5,10,2,67,-1031
1698,19.563878,2,6,9,1,63,-1030
1699,19.57554,3,7,11,-1,66,-1039
1700,19.587219,4,6,8,-4,66,-1039
1701,19.598923,3,4,8,0,65,-1034
1702,19.610569,3,7,10,1,66,-1026
1703,19.622219,3,7,9,4,67,-1029
1704,19.633888,3,5,8,3,62,-1032
1705,19.645537,2,6,11,2,64,-1033
1706,19.657189,3,6,7,3,65,-1036
1707,19.668872,1,8,9,-1,67,-1036
1708,19.680558,3,5,10,-1,68,-1031
1709,19.692246,3,7,8,1,65,-1032
1710,19.703934,4,6,11,2,64,-1036
1711,19.71563,3,6,8,0,66,-1030
1712,19.727216,2,4,8,0,62,-1029
1713,19.738765,2,6,9,-3,66,-1031
1714,19.750306,3,6,8,0,66,-1028
1715,19.761858,3,5,8,0,62,-1027
1716,19.773407,2,7,9,2,67,-1035
1717,19.784971,4,4,9,1,63,-1028
1718,19.796511,3,5,7,2,67,-1033
1719,19.808132,2,6,11,0,61,-1039
1720,19.819767,4,6,9,0,65,-1034
1721,19.831486,1,7,10,0,67,-1030
1722,19.843155,2,7,7,0,63,-1033
1723,19.85481,3,3,8,1,67,-1032
1724,19.866489,2,4,9,3,71,-1037
1725,19.878151,2,8,9,2,64,-1031
1726,19.889802,2,6,9,-1,67,-1032
1727,19.901472,0,9,9,3,64,-1038
1728,19.913174,3,6,11,-1,63,-1037
1729,19.924829,2,6,8,2,65,-1033
1730,19.936438,2,6,6,-4,67,-1038
1731,19.947989,2,8,10,-2,65,-1031
1732,19.959556,2,4,10,0,67,-1031
1733,19.971113,3,6,7,-1,69,-1032
1734,19.982658,4,7,9,0,66,-1033
1735,19.994203,1,7,8,-1,68,-1033
1736,20.005755,2,5,9,0,64,-1037
1737,20.017361,2,6,7,-2,67,-1038
1738,20.028984,2,9,10,1,67,-1033
1739,20.040639,2,6,9,-2,61,-1036
1740,20.052272,1,4,8,0,65,-1035
1741,20.063935,3,8,10,-2,64,-1032
1742,20.075611,2,6,10,0,65,-1037
1743,20.08723,1,5,10,1,62,-1033
1744,20.098898,4,6,10,-3,65,-1033
1745,20.110539,1,8,9,0,64,-1031
1746,20.122197,4,6,9,0,67,-1029
1747,20.13386,2,6,11,-1,69,-1023
1748,20.14541,2,6,9,0,69,-1039
1749,20.156969,1,6,9,-1,61,-1031
1750,20.168513,3,5,7,0,66,-1032
1751,20.180078,4,5,8,2,66,-1031
1752,20.191638,1,9,10,1,63,-1037
1753,20.203218,3,3,8,-1,66,-1032
1754,20.214764,3,6,8,-2,67,-1040
1755,20.226339,2,5,9,-1,63,-1036
1756,20.237953,3,6,8,2,65,-1029
1757,20.249631,3,5,9,2,65,-1030
1758,20.261288,2,8,10,-4,66,-1035
1759,20.272965,3,8,8,-2,64,-1034
1760,20.284642,3,7,11,1,65,-1034
1761,20.296304,3,5,9,3,67,-1034
1762,20.307993,2,7,8,0,63,-1028
1763,20.319654,2,6,9,2,66,-1039
1764,20.33132,3,7,10,0,66,-1029
1765,20.342979,1,6,8,-4,67,-1033
1766,20.354526,2,7,9,3,62,-1034
1767,20.36608,2,5,7,0,64,-1033
1768,20.377621,1,5,8,1,64,-1030
1769,20.389165,3,3,9,0,66,-1030
1770,20.400707,0,7,8,4,64,-1035
1771,20.412313,4,7,9,-1,59,-1032
1772,20.423864,2,5,8,0,66,-1032
1773,20.435456,4,7,9,0,62,-1033
1774,20.447131,1,6,9,-2,68,-1028
1775,20.458776,2,8,9,-3,66,-1029
1776,20.470424,2,7,8,1,65,-1035
1777,20.482087,3,4,8,0,69,-1029
1778,20.493742,2,5,8,-1,64,-1037
1779,20.505392,0,6,8,-1,70,-1035
1780,20.51708,2,8,9,-2,67,-1039
1781,20.528743,3,8,11,-1,67,-1034
1782,20.540422,2,6,8,0,63,-1037
1783,20.552073,3,7,10,2,65,-1031
1784,20.563749,2,6,9,0,68,-1028
1785,20.575405,2,6,7,0,69,-1030
1786,20.587047,3,4,8,3,65,-1033
1787,20.59869,3,5,8,3,63,-1039
1788,20.610354,2,6,8,-3,67,-1032
1789,20.622022,2,6,8,0,63,-1037
1790,20.633669,2,5,8,2,68,-1033
1791,20.645367,2,7,9,1,67,-1028
1792,20.65708,2,5,11,-1,61,-1027
1793,20.668731,2,5,8,0,62,-1033
1794,20.680394,3,6,8,-2,68,-1038
1795,20.692044,0,4,10,-1,64,-1032
1796,20.703729,3,8,9,1,63,-1038
1797,20.715393,0,6,11,-2,65,-1032
1798,20.727042,4,4,9,0,70,-1037
1799,20.738706,3,7,8,0,67,-1035
1800,20.750437,3,9,9,1,65,-1036
1801,20.762122,3,9,10,-1,63,-1038
1802,20.773686,0,7,8,1,66,-1032
1803,20.78524,3,6,8,0,62,-1036
1804,20.79681,1,7,9,4,64,-1032
1805,20.808355,3,6,9,-1,67,-1033
1806,20.81992,2,7,7,-1,68,-1034
1807,20.831445,3,4,7,-2,66,-1029
1808,20.842963,4,5,9,-4,66,-1034
1809,20.854514,1,4,10,-3,66,-1026
1810,20.866148,3,5,9,0,63,-1021
1811,20.877813,2,8,9,0,62,-1037
1812,20.889465,3,9,9,-4,64,-1030
1813,20.901124,2,6,9,-2,63,-1027
1814,20.912779,2,5,8,0,65,-1040
1815,20.924424,3,3,8,-4,65,-1033
1816,20.936127,3,6,9,0,66,-1031
1817,20.947785,1,6,11,0,68,-1034
1818,20.959467,2,5,9,-1,63,-1037
1819,20.971126,4,6,10,3,63,-1032
1820,20.982774,2,4,7,1,66,-1037
1821,20.994412,2,6,10,0,66,-1029
1822,21.006062,2,5,10,0,66,-1036
1823,21.017767,1,5,10,4,65,-1042
1824,21.029405,4,5,8,2,62,-1031
1825,21.041068,2,8,8,-3,63,-1032
1826,21.052721,2,7,10,1,64,-1032
1827,21.064401,3,6,9,3,66,-1033
1828,21.076055,1,5,8,2,67,-1037
1829,21.087622,3,5,8,-1,65,-1031
1830,21.099215,2,5,11,0,69,-1037
1831,21.110793,4,4,10,-4,64,-1027
1832,21.122331,2,4,10,-2,67,-1036
1833,21.13388,2,9,10,0,66,-1037
1834,21.145426,3,2,9,0,67,-1037
1835,21.156966,3,5,11,1,66,-1037
1836,21.168509,2,5,10,3,65,-1033
1837,21.180173,3,5,8,-5,65,-1031
1838,21.191871,4,6,7,3,61,-1033
1839,21.203533,1,6,8,-1,63,-1029
1840,21.21521,2,5,8,3,69,-1027
1841,21.226871,3,6,9,-4,63,-1042
1842,21.238525,2,6,8,1,62,-1033
1843,21.250169,1,4,8,-1,64,-1030
1844,21.261849,3,4,10,0,64,-1037
1845,21.273498,3,5,11,-2,62,-1032
1846,21.285065,2,2,9,1,66,-1030
1847,21.296633,3,5,9,-5,67,-1032
1848,21.308165,3,7,10,-1,67,-1032
1849,21.319689,2,6,8,-3,65,-1036
1850,21.331244,4,6,9,1,64,-1042
1851,21.342803,2,5,10,0,64,-1033
1852,21.354354,2,7,8,3,64,-1026
1853,21.365942,3,5,8,-1,64,-1035
1854,21.377628,3,6,11,1,67,-1035
1855,21.389309,2,6,10,-6,66,-1037
1856,21.400962,2,7,8,-2,66,-1031
1857,21.412611,3,8,8,1,68,-1031
1858,21.424273,3,6,10,1,63,-1034
1859,21.435914,2,5,9,1,64,-1031
1860,21.447608,1,5,9,-1,65,-1026
1861,21.459233,0,7,11,-3,68,-1039
1862,21.470884,3,7,9,-2,66,-1029
1863,21.482545,3,7,9,-1,68,-1031
1864,21.494121,2,6,7,-2,61,-1036
1865,21.505677,3,6,8,6,66,-1027
1866,21.517218,3,5,9,-3,62,-1030
1867,21.52876,3,4,6,-4,65,-1036
1868,21.540314,4,7,8,-3,64,-1037
1869,21.551864,1,7,8,0,66,-1035
1870,21.563432,4,6,10,-3,61,-1031
1871,21.574971,1,6,9,-2,65,-1032
1872,21.586596,2,6,11,-3,68,-1034
1873,21.598244,3,6,9,2,70,-1036
1874,21.609894,3,7,10,0,66,-1031
1875,21.621572,3,8,10,0,64,-1029
1876,21.633223,4,6,8,4,64,-1036
1877,21.644876,2,4,8,0,63,-1035
1878,21.656538,2,5,9,1,64,-1022
1879,21.668206,3,6,9,-2,66,-1032
1880,21.679886,2,7,10,4,67,-1034
1881,21.691565,4,7,9,0,66,-1034
1882,21.703176,0,9,9,-5,65,-1036
1883,21.714723,1,6,9,0,62,-1033
1884,21.726289,3,8,11,-1,65,-1028
1885,21.737827,2,5,8,-3,69,-1035
1886,21.749369,3,6,8,0,65,-1028
1887,21.760949,3,5,10,-3,65,-1032
1888,21.772492,4,4,8,-1,63,-1036
1889,21.784057,3,5,8,0,62,-1035
1890,21.795776,2,7,9,-4,68,-1032
1891,21.807476,1,8,10,-1,63,-1031
1892,21.819132,2,5,8,0,64,-1035
1893,21.830801,1,9,7,-1,66,-1031
1894,21.842474,1,5,9,-4,64,-1031
1895,21.854119,3,5,9,-2,62,-1037
1896,21.865778,3,8,10,0,65,-1037
1897,21.877467,3,7,10,-2,66,-1029
1898,21.889131,2,5,10,0,66,-1028
1899,21.900828,4,5,10,0,63,-1035
1900,21.912415,2,7,12,-3,68,-1036
1901,21.923969,2,8,11,0,69,-1033
1902,21.935552,1,4,9,2,63,-1028
1903,21.947103,1,5,10,-1,66,-1036
1904,21.958651,3,6,9,-3,65,-1035
1905,21.970199,3,7,10,0,62,-1033
1906,21.981773,4,6,8,0,66,-1035
1907,21.993359,1,5,11,0,61,-1036
1908,22.004977,1,6,7,2,69,-1037
1909,22.016638,2,5,8,-2,70,-1030
1910,22.028253,2,6,7,0,66,-1040
1911,22.039905,2,6,9,5,63,-1041
1912,22.051608,2,7,11,0,64,-1033
1913,22.063231,4,7,8,0,67,-1040
1914,22.074888,4,5,9,2,64,-1032
1915,22.08653,2,5,10,0,63,-1035
1916,22.098197,4,5,8,-2,62,-1035
1917,22.109849,3,6,11,-4,64,-1036
1918,22.121409,3,5,8,-2,67,-1032
1919,22.132979,2,6,9,0,66,-1040
1920,22.144527,1,7,10,-4,62,-1035
1921,22.156085,3,5,8,1,66,-1035
1922,22.16768,1,8,8,1,60,-1030
1923,22.179252,1,6,10,-2,67,-1030
1924,22.190791,2,5,10,1,65,-1029
1925,22.202345,2,6,7,2,64,-1034
1926,22.213976,1,8,10,-2,63,-1037
1927,22.225623,3,6,9,-3,70,-1036
1928,22.237308,2,8,7,-4,65,-1037
1929,22.248964,2,8,9,-1,67,-1033
1930,22.260607,1,8,13,-2,63,-1028
1931,22.272257,2,7,8,-1,67,-1031
1932,22.283934,3,7,9,0,65,-1033
1933,22.295599,2,6,8,-1,65,-1039
1934,22.307246,3,6,10,0,66,-1032
1935,22.318911,2,7,9,-4,62,-1034
1936,22.330463,1,6,9,-1,66,-1030
1937,22.342016,4,7,9,3,66,-1036
1938,22.353562,1,5,8,2,67,-1038
1939,22.365106,2,7,9,2,63,-1033
1940,22.376648,2,5,10,2,63,-1025
1941,22.388167,3,6,8,-2,64,-1032
1942,22.399758,1,6,10,-2,64,-1027
1943,22.411337,2,4,10,-2,60,-1035
1944,22.422973,4,7,9,0,65,-1035
1945,22.434643,2,7,8,2,61,-1034
1946,22.446296,3,7,8,-5,66,-1031
1947,22.457955,2,7,8,-2,62,-1031
1948,22.469604,4,8,9,-2,64,-1039
1949,22.481249,2,8,8,4,68,-1038
1950,22.492938,2,7,8,-4,64,-1031
1951,22.50461,2,4,9,0,59,-1034
1952,22.516271,2,6,7,0,66,-1037
1953,22.527941,1,5,8,-2,65,-1035
1954,22.539524,1,6,9,-5,66,-1035
1955,22.551085,2,8,8,-2,66,-1029
1956,22.562633,1,8,10,1,64,-1035
1957,22.574181,1,6,11,1,66,-1030
1958,22.58576,4,3,10,-2,67,-1031
1959,22.597295,3,6,9,0,65,-1031
1960,22.60883,2,5,8,0,65,-1035
1961,22.620413,2,5,9,1,65,-1031
1962,22.632075,5,5,10,1,66,-1041
1963,22.643747,3,6,9,0,66,-1034
1964,22.65547,2,8,8,2,70,-1035
1965,22.667129,3,8,10,-3,64,-1030
1966,22.678794,3,8,9,-5,62,-1032
1967,22.690459,3,6,8,-4,65,-1036
1968,22.702099,1,5,10,-2,65,-1029
1969,22.713748,2,5,10,0,65,-1030
1970,22.725435,1,8,10,-3,65,-1029
1971,22.737035,3,8,8,0,64,-1039
1972,22.748747,3,6,8,-4,66,-1029
1973,22.7603,3,7,8,0,65,-1036
1974,22.771852,2,6,7,0,68,-1035
1975,22.783425,2,6,9,4,65,-1031
1976,22.794959,5,7,11,-1,69,-1029
1977,22.806503,2,6,11,-3,63,-1029
1978,22.818059,3,6,9,0,63,-1035
1979,22.829653,2,7,10,0,67,-1032
1980,22.841293,3,7,10,0,66,-1035
1981,22.852946,3,5,9,0,65,-1036
1982,22.86459,3,8,9,0,64,-1040
1983,22.876301,1,5,10,0,69,-1033
1984,22.887977,2,6,7,-3,66,-1034
1985,22.899653,2,3,10,-5,61,-1036
1986,22.911305,2,5,11,1,65,-1031
1987,22.922972,2,7,8,1,67,-1037
1988,22.934653,2,6,9,4,67,-1034
1989,22.946326,1,10,11,0,68,-1038
1990,22.957886,3,4,9,0,67,-1034
1991,22.969434,3,5,8,-1,67,-1035
1992,22.981038,2,9,10,2,65,-1035
1993,22.992691,2,5,10,2,66,-1037
1994,23.004402,4,5,7,4,62,-1034
1995,23.016016,1,8,7,-1,59,-1029
1996,23.027589,0,7,8,-4,66,-1032
1997,23.0392,4,7,8,2,66,-1035
1998,23.050773,1,6,9,1,64,-1033
1999,23.06237,2,7,10,0,66,-1035
