sample,t_s,gyro_x,gyro_y,gyro_z,accel_x,accel_y,accel_z
0,1.4e-05,-1,1,1,1033,0,-1544
1,0.011245,1,0,-1,1031,2,-1544
2,0.022437,1,2,-1,1033,2,-1550
3,0.033622,0,2,0,1031,-2,-1543
4,0.044809,1,0,-1,1033,0,-1539
5,0.055996,-1,1,1,1035,0,-1547
6,0.067177,1,2,-1,1033,1,-1542
7,0.078369,2,-1,-1,1029,0,-1547
8,0.089552,2,2,-1,1031,0,-1541
9,0.100735,0,-1,1,1029,0,-1548
10,0.111917,0,2,-1,1034,-1,-1542
11,0.123109,0,2,-1,1030,-2,-1540
12,0.134254,-2,1,0,1032,-2,-1549
13,0.14544,-2,0,3,1035,0,-1547
14,0.156631,1,0,0,1033,1,-1547
15,0.167819,-1,-1,0,1034,-1,-1545
16,0.17899,1,2,0,1033,-3,-1538
17,0.190179,2,-1,-1,1032,1,-1545
18,0.201364,0,0,2,1034,-3,-1547
19,0.212544,1,0,-1,1033,1,-1546
20,0.223725,1,0,1,1031,0,-1547
21,0.234917,0,-1,-1,1033,3,-1548
22,0.246066,-1,2,1,1032,1,-1543
23,0.25725,1,1,1,1033,1,-1545
24,0.268432,2,0,-1,1029,-1,-1544
25,0.279614,1,0,-1,1033,0,-1540
26,0.290807,1,0,2,1031,1,-1540
27,0.301988,1,1,-1,1035,0,-1536
28,0.313199,2,0,0,1032,0,-1543
29,0.324388,1,0,-1,1033,2,-1539
30,0.335571,-2,1,0,1031,0,-1544
31,0.346761,1,-1,-1,1033,0,-1536
32,0.357955,-1,0,-1,1033,2,-1545
33,0.369138,0,1,0,1033,1,-1544
34,0.380326,0,0,0,1034,0,-1538
35,0.391507,-1,-2,0,1034,0,-1549
36,0.4027,2,1,2,1034,0,-1546
37,0.413886,1,1,1,1034,0,-1547
38,0.425071,0,0,1,1033,-3,-1539
39,0.436256,-2,-1,0,1036,-2,-1545
40,0.447444,-2,-2,0,1032,-3,-1541
41,0.458627,0,1,0,1033,0,-1538
42,0.469813,1,1,0,1033,0,-1544
43,0.481,1,-1,0,1031,1,-1541
44,0.492185,-2,-1,0,1031,-1,-1542
45,0.50337,1,-1,-2,1030,0,-1538
46,0.514561,-1,0,-1,1033,-3,-1550
47,0.525745,1,0,1,1033,0,-1542
48,0.53693,1,-1,1,1029,-2,-1547
49,0.548114,-1,-1,0,1026,2,-1549
50,0.5593,0,0,1,1032,1,-1549
51,0.570489,1,2,1,1030,-3,-1547
52,0.581673,1,0,1,1033,-4,-1539
53,0.59288,1,0,2,1034,-1,-1546
54,0.604069,0,-1,0,1032,-3,-1545
55,0.61525,2,0,-1,1034,0,-1548
56,0.626436,0,0,1,1033,2,-1543
57,0.637623,-1,1,2,1031,0,-1546
58,0.64881,1,1,-1,1031,0,-1539
59,0.660001,0,1,0,1034,0,-1543
60,0.671186,1,-1,1,1034,-1,-1547
61,0.682376,1,1,1,1033,0,-1546
62,0.693562,-1,0,1,1033,1,-1541
63,0.704752,0,1,0,1031,-3,-1547
64,0.715933,-1,-1,0,1033,0,-1538
65,0.727123,1,-1,0,1030,-2,-1548
66,0.738315,1,-2,1,1032,-2,-1542
67,0.749496,1,2,0,1034,1,-1541
68,0.760687,0,2,2,1032,0,-1542
69,0.771868,0,-1,-1,1032,0,-1543
70,0.783057,-1,1,0,1030,-1,-1540
71,0.794255,0,-1,1,1033,0,-1547
72,0.805458,-2,2,-3,1031,0,-1539
73,0.816716,-1,1,0,1029,-3,-1542
74,0.827903,1,1,0,1031,0,-1543
75,0.839109,-2,2,0,1033,-4,-1546
76,0.85031,1,-1,1,1033,-4,-1548
77,0.861497,-1,0,-1,1032,-4,-1542
78,0.872687,0,-1,0,1031,-1,-1544
79,0.883872,2,-1,0,1028,-1,-1535
80,0.895059,-1,-2,3,1032,3,-1544
81,0.906254,-1,0,0,1029,0,-1549
82,0.917436,1,1,-1,1030,-5,-1541
83,0.928619,1,0,-1,1033,-3,-1543
84,0.939812,1,-1,2,1032,0,-1542
85,0.95099,1,0,-1,1033,-2,-1545
86,0.96219,1,1,2,1032,-1,-1548
87,0.973383,-1,0,-1,1030,-4,-1533
88,0.984566,1,1,-2,1033,-2,-1536
89,0.995746,2,0,-2,1031,0,-1539
90,1.006938,0,-1,1,1032,1,-1544
91,1.018132,0,1,0,1030,0,-1545
92,1.029315,1,2,3,1031,0,-1545
93,1.040503,1,-2,-1,1027,2,-1546
94,1.051687,0,-2,0,1033,0,-1537
95,1.062875,2,-3,1,1032,-2,-1550
96,1.074068,1,-1,1,1028,-1,-1538
97,1.085251,0,-2,2,1032,0,-1542
98,1.096434,1,-2,0,1032,0,-1547
99,1.107618,1,0,-1,1032,0,-1544
100,1.118808,0,-1,2,1032,0,-1540
101,1.129993,0,-2,1,1031,3,-1545
102,1.141174,0,1,2,1033,1,-1540
103,1.15236,1,-1,3,1029,3,-1543
104,1.163547,0,0,1,1033,2,-1547
105,1.174739,1,0,1,1031,2,-1542
106,1.185927,1,0,-1,1035,-1,-1546
107,1.197113,-2,1,-1,1032,-1,-1541
108,1.208298,1,0,2,1031,0,-1551
109,1.219487,1,0,3,1032,0,-1541
110,1.230675,-1,-1,-1,1035,4,-1542
111,1.241858,1,0,3,1030,-2,-1540
112,1.253045,0,0,-1,1035,-6,-1547
113,1.264251,2,1,1,1033,0,-1545
114,1.275434,1,0,0,1032,0,-1542
115,1.286622,1,2,1,1032,-4,-1551
116,1.297803,-1,0,0,1037,0,-1545
117,1.308986,1,-1,-1,1028,1,-1548
118,1.320172,0,-3,0,1033,-8,-1538
119,1.331356,1,-1,0,1032,0,-1552
120,1.342555,1,0,0,1028,2,-1538
121,1.353743,0,1,1,1032,2,-1547
122,1.364927,0,0,0,1032,0,-1548
123,1.376117,-1,1,-2,1033,0,-1548
124,1.38731,-1,-2,-1,1033,-2,-1547
125,1.398497,0,2,2,1031,3,-1542
126,1.409679,0,0,0,1033,3,-1545
127,1.420861,1,-2,0,1030,0,-1545
128,1.432047,-1,0,1,1031,-1,-1547
129,1.443234,1,-1,0,1031,-1,-1543
130,1.454438,0,0,-1,1033,0,-1546
131,1.465621,2,-2,-1,1033,-1,-1542
132,1.476804,1,-2,1,1034,-1,-1545
133,1.487997,0,2,2,1033,0,-1544
134,1.499181,-1,3,0,1032,-3,-1542
135,1.510371,0,1,1,1036,-2,-1542
136,1.521554,-1,-2,1,1030,2,-1543
137,1.532738,0,2,0,1033,-1,-1538
138,1.543924,0,-1,2,1031,1,-1540
139,1.55511,0,3,-2,1029,-1,-1541
140,1.566299,-1,0,-1,1034,-3,-1538
141,1.577483,1,-2,-2,1035,0,-1546
142,1.588676,-1,1,0,1032,0,-1537
143,1.599864,1,0,1,1033,2,-1550
144,1.611053,0,-2,-2,1031,0,-1539
145,1.622251,1,1,0,1030,0,-1543
146,1.633434,0,2,0,1032,0,-1542
147,1.644617,0,0,0,1034,-1,-1545
148,1.655803,2,0,1,1033,1,-1544
149,1.666993,-1,2,-1,1033,0,-1540
150,1.678184,1,2,-2,1031,4,-1546
151,1.689366,-1,-2,0,1033,6,-1543
152,1.700552,-2,-1,-2,1034,0,-1544
153,1.711734,0,2,0,1033,5,-1549
154,1.722924,0,0,1,1034,-1,-1539
155,1.734117,-2,2,1,1033,0,-1548
156,1.745298,1,-1,-2,1032,0,-1542
157,1.75648,0,1,0,1033,-1,-1547
158,1.767666,1,0,1,1034,-1,-1545
159,1.778853,1,-2,-1,1033,-1,-1540
160,1.790039,3,-3,0,1033,0,-1543
161,1.801222,0,0,1,1033,-2,-1554
162,1.812407,1,-1,2,1032,-4,-1551
163,1.823589,0,-3,1,1033,0,-1538
164,1.834781,2,1,-1,1034,1,-1538
165,1.845966,0,0,-3,1031,2,-1553
166,1.85715,1,-1,0,1034,-4,-1542
167,1.868336,0,-1,-1,1033,1,-1546
168,1.879542,2,0,1,1034,0,-1546
169,1.890741,1,0,2,1032,4,-1542
170,1.901927,0,0,2,1033,1,-1545
171,1.913109,1,-1,-1,1029,1,-1543
172,1.92433,2,0,0,1032,0,-1540
173,1.935523,0,0,0,1033,-2,-1550
174,1.94678,-1,1,0,1033,0,-1540
175,1.957973,0,0,-1,1034,-1,-1542
176,1.969157,1,0,-2,1030,-1,-1547
177,1.980339,1,1,-2,1031,0,-1549
178,1.991523,0,0,0,1034,0,-1540
179,2.002727,1,1,1,1033,-2,-1546
180,2.01391,1,0,1,1034,0,-1545
181,2.025094,-1,1,-1,1031,-3,-1548
182,2.036275,0,1,1,1031,2,-1546
183,2.047459,1,1,-2,1032,0,-1548
184,2.058621,0,0,0,1033,-2,-1539
185,2.0698,0,0,-2,1034,-2,-1546
186,2.080982,-1,-2,1,1028,0,-1546
187,2.092163,1,1,1,1027,4,-1543
188,2.103344,0,-1,2,1035,-3,-1547
189,2.11454,0,0,1,1034,-1,-1546
190,2.125723,1,-1,-1,1033,-2,-1542
191,2.136903,2,-2,-1,1035,0,-1537
192,2.148087,0,1,-1,1032,0,-1540
193,2.159267,1,-2,0,1032,-1,-1548
194,2.17046,1,2,1,1033,2,-1546
195,2.183164,1,-2,-1,1030,5,-1541
196,2.194819,1,0,0,1033,-3,-1548
197,2.20891,3,-2,3,1034,-3,-1544
198,2.220275,2,1,1,1032,-3,-1546
199,2.231566,2,-1,-1,1034,-2,-1539
200,2.24277,1,1,0,1031,0,-1541
201,2.253971,-2,1,-2,1032,-3,-1544
202,2.265154,-1,-1,-2,1036,2,-1547
203,2.276335,-1,1,0,1030,2,-1546
204,2.287521,2,1,0,1033,-4,-1543
205,2.298707,2,2,0,1038,-2,-1548
206,2.309895,1,-1,-2,1037,-1,-1544
207,2.321077,1,-1,-1,1034,-1,-1542
208,2.332264,-1,1,1,1033,-2,-1541
209,2.343448,1,-1,1,1029,-2,-1540
210,2.354621,1,0,0,1037,1,-1543
211,2.365807,1,1,1,1034,0,-1546
212,2.376992,-1,0,-1,1029,-5,-1543
213,2.38818,1,1,0,1034,-2,-1547
214,2.399364,-1,1,-1,1030,0,-1534
215,2.410558,0,1,0,1030,3,-1545
216,2.421747,3,-1,0,1031,0,-1550
217,2.432935,-1,-1,2,1033,1,-1540
218,2.444123,-1,0,0,1034,0,-1549
219,2.455312,0,1,0,1034,-1,-1544
220,2.466502,1,1,3,1033,0,-1539
221,2.477685,1,-1,0,1034,0,-1545
222,2.488872,-1,2,-1,1032,-2,-1543
223,2.500053,1,-1,1,1033,-2,-1542
224,2.511234,-1,0,-1,1033,2,-1542
225,2.522435,0,-1,0,1032,-1,-1542
226,2.533619,0,1,0,1033,1,-1543
227,2.544808,1,1,-1,1028,0,-1544
228,2.555991,-1,1,0,1029,1,-1540
229,2.56717,0,-1,1,1034,0,-1543
230,2.578362,-1,0,2,1030,0,-1544
231,2.589562,-1,-2,0,1033,0,-1538
232,2.600756,0,-2,-1,1034,1,-1547
233,2.611945,0,0,0,1036,0,-1549
234,2.623134,1,2,2,1029,0,-1543
235,2.63433,-1,0,0,1030,0,-1544
236,2.645513,0,0,-2,1033,2,-1546
237,2.656697,1,1,1,1033,-1,-1542
238,2.667891,1,1,2,1033,-2,-1541
239,2.679077,0,0,0,1031,-2,-1545
240,2.690255,1,-1,-2,1035,3,-1545
241,2.701439,1,1,0,1030,-2,-1543
242,2.712628,1,0,1,1031,2,-1547
243,2.723813,-2,1,-2,1033,0,-1550
244,2.734992,1,-1,-1,1031,0,-1543
245,2.746185,-1,-2,-1,1030,0,-1545
246,2.757369,-1,1,2,1035,-1,-1548
247,2.768554,-1,0,-2,1031,1,-1547
248,2.779738,0,0,-1,1031,-1,-1547
249,2.790929,0,1,0,1036,-3,-1541
250,2.802117,-1,0,1,1035,0,-1546
251,2.813302,1,2,0,1034,3,-1550
252,2.824485,0,2,-2,1033,0,-1541
253,2.835667,-1,1,1,1031,-4,-1543
254,2.846857,1,2,-1,1033,-2,-1544
255,2.858039,-1,0,-2,1032,0,-1538
256,2.86922,2,0,1,1033,-5,-1544
257,2.8804,3,2,2,1032,1,-1546
258,2.891585,0,0,-1,1032,-1,-1552
259,2.90277,-1,0,1,1033,0,-1541
260,2.913951,0,-1,-1,1032,-1,-1548
261,2.925134,1,2,0,1034,-1,-1552
262,2.936321,0,0,1,1034,0,-1546
263,2.94752,0,0,1,1032,-2,-1544
264,2.958709,0,2,-1,1029,0,-1544
265,2.969893,1,1,1,1033,1,-1543
266,2.981074,0,3,-1,1032,0,-1543
267,2.992258,2,1,-1,1031,2,-1542
268,3.003443,2,-1,2,1034,-2,-1542
269,3.014622,0,2,-2,1034,-1,-1548
270,3.025807,2,1,-1,1034,-2,-1539
271,3.036988,0,-2,2,1031,-4,-1540
272,3.048176,-1,-1,0,1032,1,-1546
273,3.059357,1,1,2,1029,2,-1534
274,3.070558,0,2,0,1035,0,-1544
275,3.081752,0,-2,0,1032,1,-1544
276,3.092938,2,-1,-2,1034,0,-1544
277,3.10413,0,1,0,1029,0,-1548
278,3.115317,2,1,-1,1034,5,-1536
279,3.126505,-1,-2,0,1030,4,-1541
280,3.137692,1,0,1,1033,0,-1543
281,3.148878,0,-1,-1,1032,-4,-1543
282,3.160063,0,-1,-2,1032,-2,-1543
283,3.171247,-1,0,-2,1033,-4,-1545
284,3.182436,0,-1,-1,1031,0,-1545
285,3.193618,1,1,-2,1033,-2,-1541
286,3.204806,-1,-1,-1,1029,2,-1547
287,3.215996,-2,-1,0,1032,4,-1546
288,3.227181,0,-1,0,1033,-1,-1542
289,3.238371,2,2,2,1031,1,-1547
290,3.249551,0,1,1,1033,0,-1546
291,3.260735,0,0,1,1034,0,-1538
292,3.271915,-1,-1,-2,1033,0,-1548
293,3.283103,1,0,1,1033,0,-1542
294,3.294252,1,1,-2,1033,0,-1540
295,3.305468,-1,-1,0,1030,0,-1544
296,3.316649,1,-2,0,1031,-1,-1548
297,3.327829,-1,0,-2,1033,0,-1549
298,3.33899,1,2,1,1033,1,-1542
299,3.350184,-2,-1,2,1031,-2,-1544
300,3.361369,-1,1,1,1031,0,-1548
301,3.372553,1,-1,0,1033,-3,-1544
302,3.383745,1,-2,1,1032,0,-1540
303,3.394927,0,0,-1,1033,-4,-1544
304,3.406122,2,1,0,1028,-1,-1546
305,3.417308,-1,0,1,1030,-4,-1540
306,3.428489,0,1,0,1032,2,-1543
307,3.439678,1,1,1,1033,-1,-1544
308,3.450876,1,1,-2,1031,-2,-1538
309,3.462068,-1,0,1,1033,0,-1543
310,3.473252,0,2,1,1033,-1,-1546
311,3.484434,-1,3,-1,1033,1,-1542
312,3.495615,0,2,0,1033,-2,-1547
313,3.506806,2,-2,2,1035,0,-1546
314,3.517989,0,0,0,1032,1,-1547
315,3.529172,0,0,0,1034,-4,-1546
316,3.54036,1,-2,-2,1032,-6,-1547
317,3.551542,0,0,0,1032,-3,-1542
318,3.562737,2,3,0,1033,-3,-1544
319,3.573919,1,2,1,1032,3,-1545
320,3.585107,0,1,0,1032,2,-1541
321,3.596294,0,-1,1,1033,-2,-1546
322,3.607478,0,1,-1,1034,0,-1555
323,3.618673,2,0,0,1030,1,-1545
324,3.629859,0,0,0,1035,-2,-1542
325,3.641043,1,-2,-1,1032,-3,-1545
326,3.652231,-1,0,-3,1031,0,-1551
327,3.66343,-1,1,-1,1035,0,-1545
328,3.674622,1,1,0,1033,-1,-1545
329,3.685804,1,1,-1,1033,2,-1540
330,3.696984,1,-2,1,1037,0,-1548
331,3.70817,-1,-3,0,1033,-1,-1541
332,3.719352,1,1,1,1032,0,-1544
333,3.730548,1,0,-2,1033,0,-1535
334,3.741733,1,-1,-2,1033,0,-1540
335,3.752916,0,0,-2,1033,-4,-1549
336,3.764107,1,1,0,1033,-1,-1546
337,3.775296,0,-1,0,1032,-1,-1549
338,3.786484,1,2,-1,1033,-3,-1547
339,3.797683,1,2,-2,1029,-1,-1547
340,3.808868,1,-1,2,1030,2,-1546
341,3.820051,-1,0,0,1032,2,-1543
342,3.831234,1,0,-1,1033,1,-1545
343,3.842433,-1,0,2,1035,1,-1544
344,3.853617,-1,0,1,1031,-1,-1553
345,3.8648,1,-1,1,1033,3,-1549
346,3.875995,0,1,-1,1034,-1,-1547
347,3.88718,2,2,-1,1033,-4,-1549
348,3.898369,1,-1,0,1033,-4,-1544
349,3.909552,-1,1,2,1033,1,-1543
350,3.920737,-1,-2,2,1034,1,-1541
351,3.93193,0,-1,0,1029,-4,-1543
352,3.943496,-1,1,1,1031,3,-1547
353,3.95521,-1,1,2,1033,0,-1547
354,3.966876,1,-1,-1,1033,1,-1546
355,3.978552,1,-1,-1,1034,0,-1541
356,3.990237,0,2,2,1032,0,-1539
357,4.001914,2,-2,-2,1034,2,-1543
358,4.013559,-1,1,-1,1032,1,-1550
359,4.025235,1,0,1,1034,0,-1545
360,4.036915,2,2,-1,1029,0,-1547
361,4.048483,-2,2,2,1029,2,-1547
362,4.060036,-1,2,2,1033,0,-1548
363,4.071609,0,-2,-1,1033,0,-1549
364,4.083179,1,1,2,1037,0,-1543
365,4.094749,-1,2,0,1035,0,-1542
366,4.106289,-1,-1,-1,1032,0,-1539
367,4.117835,-1,-1,-1,1033,1,-1550
368,4.129386,-1,-3,1,1031,0,-1545
369,4.14098,1,0,-1,1029,0,-1547
370,4.152684,0,-1,2,1030,0,-1548
371,4.164372,2,0,-1,1033,-2,-1542
372,4.176048,1,-1,-1,1030,-1,-1545
373,4.187695,1,0,-1,1033,0,-1548
374,4.199381,1,-1,1,1033,0,-1544
375,4.211053,0,-1,2,1030,-5,-1539
376,4.222699,1,2,0,1034,0,-1552
377,4.234377,-1,1,-1,1029,0,-1542
378,4.246095,1,0,0,1034,0,-1544
379,4.257656,0,-1,-1,1030,0,-1548
380,4.269237,1,2,-1,1034,1,-1544
381,4.280788,1,-1,0,1032,0,-1543
382,4.292364,1,0,0,1031,4,-1545
383,4.303907,0,0,1,1029,-1,-1544
384,4.315453,0,1,1,1035,0,-1542
385,4.327008,0,0,-1,1027,0,-1547
386,4.33859,-2,-2,-2,1033,0,-1546
387,4.350245,2,-1,-2,1033,0,-1547
388,4.361908,1,-1,1,1033,0,-1548
389,4.37356,2,-1,-1,1031,-3,-1541
390,4.385207,-1,0,0,1033,-1,-1540
391,4.396885,0,-1,-1,1031,-2,-1549
392,4.40855,0,0,-1,1033,-3,-1543
393,4.420194,0,0,0,1033,0,-1543
394,4.431843,1,2,-1,1031,0,-1550
395,4.443552,2,1,1,1032,0,-1545
396,4.455257,0,-1,1,1034,2,-1548
397,4.466853,1,0,0,1032,1,-1549
398,4.478414,0,0,0,1033,2,-1547
399,4.48999,1,-1,1,1028,-1,-1543
400,4.501529,0,-2,-1,1033,0,-1541
401,4.513077,-1,0,-1,1032,0,-1549
402,4.524625,2,0,-1,1032,0,-1544
403,4.536193,1,-1,-1,1034,-1,-1546
404,4.54775,2,0,1,1031,0,-1544
405,4.559332,1,2,1,1032,-5,-1546
406,4.571017,1,0,2,1033,-1,-1551
407,4.582677,0,1,-1,1034,-4,-1545
408,4.594377,-1,0,1,1033,-1,-1542
409,4.606031,1,-2,1,1033,-2,-1545
410,4.617683,-1,0,-2,1034,-5,-1549
411,4.629333,2,-1,0,1033,1,-1546
412,4.641003,2,1,-2,1031,3,-1546
413,4.652663,-1,1,-1,1030,3,-1551
414,4.664315,1,-1,-2,1031,-1,-1548
415,4.675877,1,0,-2,1033,-2,-1538
416,4.687443,1,-2,0,1033,-2,-1544
417,4.699,-1,0,-2,1032,-3,-1541
418,4.710602,1,1,1,1031,0,-1545
419,4.722157,-1,0,1,1029,-2,-1542
420,4.733724,0,0,-3,1031,0,-1543
421,4.745263,2,0,0,1034,1,-1543
422,4.756816,0,2,-2,1033,1,-1539
423,4.76847,0,2,-1,1031,-1,-1543
424,4.780152,2,1,-1,1030,-1,-1550
425,4.791797,0,-1,1,1034,-1,-1546
426,4.803452,1,-1,-1,1033,-1,-1544
427,4.815147,-1,-1,0,1033,-1,-1546
428,4.826794,0,-1,2,1033,-6,-1545
429,4.838447,2,1,0,1033,-1,-1537
430,4.850119,-1,-1,0,1035,-3,-1543
431,4.86179,1,1,-1,1029,0,-1543
432,4.873436,-1,1,-1,1034,0,-1538
433,4.884993,0,0,-2,1031,1,-1545
434,4.896555,1,0,-2,1033,0,-1539
435,4.908138,2,1,0,1033,-1,-1551
436,4.919685,-1,1,0,1034,1,-1543
437,4.931241,1,-1,0,1031,-3,-1550
438,4.942851,0,-1,1,1031,3,-1543
439,4.95441,0,0,0,1032,0,-1542
440,4.966031,-1,-2,1,1034,2,-1537
441,4.977659,0,0,-2,1031,-3,-1544
442,4.989319,2,-1,2,1033,0,-1546
443,5.000986,-2,2,-1,1033,0,-1544
444,5.012645,1,1,0,1036,-1,-1551
445,5.024304,0,-1,-1,1034,1,-1540
446,5.035949,1,2,2,1034,0,-1539
447,5.047608,-1,-1,-3,1033,1,-1548
448,5.059277,2,1,0,1029,0,-1547
449,5.070995,0,1,1,1033,-1,-1542
450,5.083074,2,0,0,1033,1,-1543
451,5.095403,1,2,0,1033,-6,-1545
452,5.107316,-1,1,1,1031,-3,-1540
453,5.119209,1,0,-2,1036,0,-1547
454,5.131011,0,2,0,1032,2,-1544
455,5.142695,1,0,-2,1027,0,-1542
456,5.154387,0,2,0,1033,0,-1542
457,5.166051,-2,-1,0,1034,-3,-1541
458,5.177793,-1,2,0,1034,0,-1547
459,5.189208,1,1,2,1033,-2,-1549
460,5.200609,2,-1,0,1033,-1,-1545
461,5.212014,2,1,-2,1032,-3,-1543
462,5.223413,2,0,-3,1034,0,-1548
463,5.234826,0,-1,1,1030,0,-1543
464,5.246232,0,0,0,1032,0,-1545
465,5.257638,1,0,0,1032,1,-1541
466,5.269101,-1,-2,0,1033,-2,-1543
467,5.280742,-2,0,1,1036,-1,-1545
468,5.292423,0,1,0,1030,-2,-1544
469,5.304092,1,2,-2,1029,1,-1543
470,5.31574,0,0,-2,1031,0,-1551
471,5.327403,0,1,-1,1033,-2,-1538
472,5.339069,0,0,-1,1034,-1,-1536
473,5.350761,2,0,-1,1032,-2,-1546
474,5.362422,1,-1,1,1033,-2,-1547
475,5.374121,1,1,2,1032,-1,-1537
476,5.385775,0,2,-1,1033,-2,-1547
477,5.397425,0,0,1,1031,2,-1539
478,5.409083,-1,2,0,1032,0,-1545
479,5.420731,-1,-1,1,1033,0,-1544
480,5.432389,-1,1,0,1032,-3,-1545
481,5.444041,-1,1,0,1030,3,-1542
482,5.455683,2,2,-1,1032,0,-1543
483,5.467333,3,1,1,1031,3,-1546
484,5.479049,0,0,1,1032,1,-1538
485,5.4907,0,1,-1,1033,0,-1544
486,5.502397,0,1,-1,1036,-2,-1540
487,5.51405,1,0,-1,1032,1,-1549
488,5.525696,1,0,-3,1033,-4,-1546
489,5.537358,2,0,-1,1033,-1,-1545
490,5.54902,0,-1,1,1029,-3,-1543
491,5.560669,-1,3,-1,1030,-2,-1546
492,5.572317,-1,0,2,1033,2,-1544
493,5.584061,1,-2,-2,1032,-3,-1539
494,5.595764,1,0,-1,1031,-2,-1540
495,5.607535,1,0,-1,1035,0,-1540
496,5.619206,2,3,-1,1034,0,-1547
497,5.630884,3,-1,0,1030,0,-1543
498,5.642574,2,-2,-1,1033,1,-1549
499,5.654256,0,0,1,1031,0,-1545
500,5.665905,2,0,0,1034,-1,-1547
501,5.677558,1,2,1,1031,-2,-1545
502,5.689222,1,1,0,1032,-3,-1547
503,5.700898,2,0,1,1030,-1,-1539
504,5.712468,0,0,1,1033,-1,-1547
505,5.724071,-2,-1,0,1035,0,-1546
506,5.735627,2,-3,-1,1033,-4,-1544
507,5.747208,1,0,-1,1032,1,-1541
508,5.758754,-1,0,-1,1033,-3,-1544
509,5.770332,0,-2,2,1035,-4,-1548
510,5.781874,-1,2,0,1030,1,-1547
511,5.793471,0,-1,-1,1033,-3,-1542
512,5.805112,0,0,1,1034,2,-1550
513,5.816754,3,-2,0,1032,-1,-1545
514,5.828406,0,1,2,1030,-2,-1540
515,5.840072,0,1,-1,1034,0,-1543
516,5.851742,1,3,0,1036,0,-1548
517,5.863407,0,1,0,1035,0,-1538
518,5.875119,1,0,-1,1030,-2,-1546
519,5.886765,0,1,0,1029,2,-1549
520,5.898432,0,0,-1,1032,3,-1541
521,5.910122,-2,2,1,1033,0,-1544
522,5.921681,1,-1,1,1032,-3,-1545
523,5.933235,0,0,0,1033,-1,-1541
524,5.944788,-1,-2,0,1032,2,-1545
525,5.956334,1,1,0,1035,3,-1547
526,5.967915,0,1,-1,1032,1,-1539
527,5.979469,1,0,-1,1028,-2,-1551
528,5.99107,0,0,1,1031,-1,-1546
529,6.002594,1,0,2,1034,-1,-1536
530,6.014267,-2,1,0,1033,1,-1544
531,6.02592,3,1,1,1034,2,-1544
532,6.037571,1,-2,1,1032,0,-1542
533,6.049246,1,0,-1,1032,0,-1547
534,6.060894,0,-1,1,1035,1,-1542
535,6.072546,-1,0,0,1034,-2,-1545
536,6.084188,-1,1,-1,1033,1,-1548
537,6.095842,0,1,2,1033,1,-1544
538,6.107533,1,2,1,1034,-1,-1533
539,6.11919,2,1,0,1032,-2,-1542
540,6.130748,0,0,-1,1030,-3,-1542
541,6.142332,-1,-1,0,1032,0,-1547
542,6.153884,0,0,0,1030,-3,-1547
543,6.165434,-1,-2,0,1033,3,-1542
544,6.176993,2,-1,0,1031,2,-1541
545,6.188572,0,3,2,1030,1,-1545
546,6.200124,0,-2,0,1029,0,-1541
547,6.211698,2,2,0,1032,0,-1545
548,6.223323,-1,-2,0,1034,2,-1543
549,6.235023,2,1,1,1032,0,-1546
550,6.246713,-1,0,0,1032,0,-1544
551,6.25838,1,-2,-1,1035,1,-1549
552,6.27003,1,0,-1,1033,-2,-1542
553,6.281698,0,0,-1,1031,0,-1544
554,6.293377,-1,1,1,1033,-2,-1542
555,6.305024,0,1,-2,1031,-2,-1548
556,6.316695,2,1,0,1032,0,-1541
557,6.328356,2,1,0,1032,5,-1540
558,6.339935,0,0,1,1033,-3,-1539
559,6.351493,1,-2,-2,1030,-2,-1541
560,6.363067,-1,2,-1,1033,-3,-1547
561,6.374584,0,0,1,1038,0,-1547
562,6.386124,0,2,1,1033,0,-1547
563,6.397671,2,0,0,1029,0,-1538
564,6.409215,0,1,-2,1032,0,-1545
565,6.420768,0,1,2,1033,0,-1542
566,6.432382,2,0,0,1035,-7,-1541
567,6.444034,1,-1,-1,1033,0,-1546
568,6.455704,-1,-1,-1,1037,-1,-1546
569,6.46739,1,0,0,1034,-2,-1538
570,6.479049,2,-1,-1,1033,4,-1543
571,6.490747,1,-1,1,1031,-1,-1541
572,6.502371,2,2,-1,1033,-2,-1542
573,6.514016,0,0,1,1033,0,-1549
574,6.525674,-2,0,-1,1033,0,-1541
575,6.537222,-1,0,-1,1033,-5,-1544
576,6.548769,-1,0,0,1033,1,-1550
577,6.560312,0,0,2,1030,-3,-1545
578,6.571855,3,-2,2,1028,0,-1544
579,6.583427,1,1,2,1034,-2,-1544
580,6.594975,0,0,-1,1032,-3,-1546
581,6.606524,-1,-1,-1,1033,0,-1544
582,6.618111,2,0,0,1029,-3,-1541
583,6.629688,2,1,0,1027,-1,-1544
584,6.641387,2,-1,0,1032,-1,-1546
585,6.653051,1,0,0,1034,2,-1547
586,6.664716,0,-1,1,1033,-1,-1543
587,6.676366,2,-1,-1,1035,0,-1543
588,6.688022,-1,0,-1,1028,2,-1549
589,6.699659,3,1,0,1028,-2,-1541
590,6.711313,0,-2,1,1031,-2,-1547
591,6.723011,3,1,0,1034,-2,-1541
592,6.734711,-1,-2,0,1033,-3,-1543
593,6.746378,1,2,-1,1032,1,-1548
594,6.757956,0,0,0,1033,-7,-1551
595,6.769504,-1,-2,1,1032,0,-1540
596,6.781059,0,-2,-1,1036,-2,-1549
597,6.792612,2,-1,0,1028,1,-1547
598,6.804177,2,2,-1,1034,-1,-1541
599,6.815754,-1,1,0,1033,0,-1538
600,6.827313,2,0,-1,1030,0,-1541
601,6.838896,1,-2,1,1033,0,-1536
602,6.850532,0,-1,-2,1033,0,-1536
603,6.862237,2,0,1,1031,-3,-1538
604,6.873898,0,-2,0,1033,2,-1541
605,6.885551,2,0,0,1035,-1,-1546
606,6.897234,1,0,-1,1030,-2,-1549
607,6.908894,0,0,-2,1035,-3,-1545
608,6.920548,1,1,0,1031,-1,-1542
609,6.932221,0,1,0,1035,0,-1545
610,6.943876,1,1,-1,1034,-1,-1542
611,6.955557,0,-3,1,1031,2,-1546
612,6.967126,1,-1,-1,1037,-2,-1544
613,6.978699,2,1,0,1029,-4,-1549
614,6.990275,0,-2,0,1033,-1,-1540
615,7.001822,2,1,3,1030,1,-1546
616,7.013366,2,-1,-1,1033,0,-1541
617,7.024912,-2,1,-2,1032,1,-1541
618,7.036464,0,1,1,1033,-1,-1543
619,7.048069,-1,-1,1,1030,0,-1545
620,7.059733,0,2,0,1031,-2,-1547
621,7.071453,-1,0,1,1033,0,-1545
622,7.083145,1,0,-1,1032,1,-1547
623,7.094796,2,-1,2,1032,0,-1543
624,7.106492,-1,0,1,1029,-1,-1548
625,7.118181,0,1,-2,1030,-1,-1546
626,7.129835,0,-1,0,1028,-1,-1537
627,7.141481,0,1,0,1031,2,-1547
628,7.153152,-1,4,0,1031,3,-1539
629,7.164849,0,-2,1,1032,-1,-1549
630,7.176418,1,0,2,1029,-2,-1539
631,7.187969,-2,3,2,1034,3,-1543
632,7.19954,2,2,-1,1033,0,-1544
633,7.211063,2,-1,1,1033,0,-1546
634,7.22258,1,-2,2,1032,2,-1538
635,7.234101,1,0,1,1035,5,-1540
636,7.245644,0,2,0,1032,2,-1549
637,7.257191,2,1,-3,1030,-1,-1544
638,7.268845,1,1,0,1033,0,-1543
639,7.280495,0,0,-1,1030,0,-1541
640,7.292152,0,0,2,1037,0,-1543
641,7.303824,0,-1,-1,1034,0,-1552
642,7.315482,-2,2,1,1035,0,-1546
643,7.327155,0,1,1,1034,-3,-1544
644,7.338809,0,-1,0,1031,-2,-1546
645,7.35049,0,0,0,1032,-4,-1542
646,7.362175,-2,2,-1,1034,2,-1543
647,7.373826,-1,-1,1,1035,0,-1549
648,7.385479,1,-1,0,1031,-1,-1539
649,7.397124,0,1,0,1033,-4,-1545
650,7.408768,1,-1,1,1032,1,-1543
651,7.420433,0,0,-3,1032,0,-1544
652,7.432085,1,1,2,1033,0,-1546
653,7.44373,1,1,2,1033,4,-1547
654,7.455414,0,-1,0,1036,0,-1544
655,7.467088,-1,0,0,1030,3,-1538
656,7.478753,2,-1,1,1031,1,-1542
657,7.490446,1,0,1,1033,-4,-1539
658,7.502115,0,1,-2,1028,-2,-1542
659,7.513764,0,-1,-1,1032,-4,-1545
660,7.525431,1,1,1,1034,-2,-1543
661,7.537081,0,2,-1,1033,0,-1546
662,7.548729,2,0,1,1030,0,-1547
663,7.560374,-1,-1,-1,1034,0,-1540
664,7.572073,0,-2,-1,1033,-1,-1541
665,7.583723,2,0,-2,1032,-3,-1546
666,7.595383,1,1,1,1030,1,-1539
667,7.607042,0,-1,-1,1036,0,-1546
668,7.618712,-1,-1,0,1033,0,-1544
669,7.630368,0,2,1,1033,0,-1550
670,7.642012,0,0,0,1033,0,-1539
671,7.653678,1,-2,0,1034,-1,-1545
672,7.665322,-1,0,1,1032,0,-1544
673,7.677007,-1,2,3,1033,0,-1547
674,7.688678,0,-1,0,1033,-4,-1545
675,7.700333,0,-1,-2,1033,-2,-1545
676,7.71198,1,-3,-4,1033,-1,-1542
677,7.723675,2,0,1,1033,-2,-1538
678,7.735345,1,1,1,1027,-1,-1548
679,7.747014,-1,-1,0,1033,0,-1545
680,7.758696,2,1,1,1032,2,-1545
681,7.770364,1,1,-1,1035,1,-1550
682,7.782042,-1,1,3,1034,0,-1545
683,7.793708,0,0,0,1030,0,-1543
684,7.805272,1,0,1,1027,-1,-1544
685,7.816826,-1,2,2,1030,-1,-1543
686,7.828391,0,0,1,1034,0,-1548
687,7.839944,0,1,1,1030,-1,-1552
688,7.851496,1,-1,0,1034,-1,-1544
689,7.863088,1,0,1,1032,-2,-1542
690,7.874651,1,1,0,1033,1,-1547
691,7.886244,-1,2,-1,1030,1,-1547
692,7.897869,-1,1,-1,1032,2,-1551
693,7.909539,0,2,-1,1033,-2,-1539
694,7.921192,2,1,1,1035,-1,-1546
695,7.932839,-1,-2,0,1033,-1,-1543
696,7.944488,0,1,0,1033,-2,-1545
697,7.956149,3,0,-1,1029,-2,-1537
698,7.967798,-1,-1,-2,1035,-1,-1545
699,7.979453,0,-1,2,1033,0,-1545
700,7.991149,1,0,-1,1033,2,-1547
701,8.002756,1,1,-1,1033,0,-1548
702,8.014332,1,1,1,1036,-3,-1537
703,8.025897,1,0,0,1036,0,-1539
704,8.037439,1,-1,-1,1032,-2,-1547
705,8.048983,1,1,1,1030,0,-1543
706,8.06053,1,0,0,1031,4,-1545
707,8.072078,2,0,0,1029,-4,-1542
708,8.083639,0,1,0,1034,0,-1547
709,8.09523,1,0,1,1033,-2,-1544
710,8.106895,1,0,0,1033,0,-1547
711,8.118561,0,3,0,1030,-1,-1550
712,8.130241,0,0,2,1033,-5,-1545
713,8.141925,0,-1,-1,1030,-1,-1541
714,8.153586,2,0,-1,1035,-2,-1540
715,8.16524,0,-2,-1,1033,-2,-1548
716,8.176907,1,0,1,1033,-3,-1546
717,8.188565,0,1,0,1031,2,-1543
718,8.200234,1,1,0,1031,0,-1545
719,8.211892,2,0,1,1037,-2,-1542
720,8.223451,0,3,1,1036,-5,-1542
721,8.235048,2,-2,0,1031,1,-1539
722,8.246591,0,0,-2,1031,0,-1550
723,8.258153,1,-1,2,1033,1,-1546
724,8.269715,0,1,2,1033,0,-1547
725,8.281264,1,1,-1,1034,0,-1543
726,8.292806,0,1,0,1036,-1,-1546
727,8.304374,1,1,-1,1035,0,-1540
728,8.316027,1,2,1,1033,0,-1547
729,8.327681,3,1,1,1033,-3,-1549
730,8.339332,3,0,0,1034,1,-1546
731,8.351014,0,0,1,1033,-2,-1543
732,8.36269,0,0,0,1032,1,-1546
733,8.374364,1,2,0,1033,3,-1538
734,8.386011,-2,2,1,1034,-2,-1549
735,8.397683,2,0,0,1030,0,-1544
736,8.409333,1,0,0,1033,0,-1545
737,8.420984,0,1,-1,1027,0,-1546
738,8.432543,1,0,-1,1033,3,-1544
739,8.444115,1,0,1,1033,0,-1549
740,8.455674,-2,1,1,1033,-2,-1543
741,8.467275,1,-1,-1,1033,-4,-1543
742,8.478834,-1,-1,-1,1034,-1,-1544
743,8.49039,1,-1,-2,1033,0,-1546
744,8.50193,0,-1,-1,1033,-5,-1539
745,8.513479,0,2,3,1034,1,-1543
746,8.525155,1,-3,-1,1031,-2,-1542
747,8.53681,1,0,1,1029,-3,-1541
748,8.548467,1,2,1,1034,0,-1546
749,8.560112,1,3,-1,1031,0,-1542
750,8.57177,-1,-1,1,1031,0,-1544
751,8.5834,-2,0,1,1035,2,-1548
752,8.595089,0,1,0,1030,2,-1544
753,8.606772,1,1,0,1034,0,-1541
754,8.618448,0,0,-1,1031,-1,-1548
755,8.630127,1,-1,1,1033,-1,-1538
756,8.641693,2,1,0,1033,-2,-1541
757,8.653252,0,-2,-1,1033,0,-1540
758,8.664794,1,1,-1,1030,2,-1543
759,8.676346,1,0,-1,1032,2,-1538
760,8.687893,1,-1,0,1032,-3,-1541
761,8.699448,0,1,0,1033,-2,-1542
762,8.710999,1,0,0,1032,1,-1542
763,8.722605,-1,0,1,1030,-2,-1546
764,8.734247,2,0,-1,1031,0,-1547
765,8.745918,-2,0,1,1032,-2,-1546
766,8.757563,0,1,1,1033,0,-1545
767,8.769213,1,-1,1,1033,-2,-1548
768,8.780891,0,0,0,1033,0,-1543
769,8.792547,1,1,1,1033,1,-1540
770,8.804198,1,1,1,1033,3,-1543
771,8.815846,0,1,1,1031,2,-1545
772,8.82755,0,-1,0,1034,3,-1541
773,8.839242,1,0,-1,1033,-1,-1545
774,8.850823,-1,1,0,1032,2,-1545
775,8.862349,0,0,0,1031,-2,-1543
776,8.873895,0,0,-1,1035,0,-1541
777,8.885436,0,1,0,1033,0,-1542
778,8.896981,0,1,-1,1032,1,-1543
779,8.908533,2,-1,0,1034,1,-1542
780,8.920099,1,0,1,1035,3,-1542
781,8.931656,1,1,1,1030,0,-1546
782,8.943329,0,-1,0,1031,3,-1548
783,8.95502,2,1,2,1034,2,-1538
784,8.966686,2,0,1,1033,-4,-1543
785,8.978385,2,-3,0,1032,2,-1540
786,8.990038,-1,1,0,1034,0,-1543
787,9.001689,1,1,0,1036,0,-1546
788,9.013343,0,0,1,1031,1,-1547
789,9.025008,1,1,-3,1033,1,-1541
790,9.036664,0,1,0,1031,0,-1544
791,9.048241,2,-1,0,1036,-5,-1542
792,9.059786,1,-1,0,1032,-1,-1542
793,9.071306,-1,0,-2,1033,0,-1542
794,9.082824,1,1,-2,1034,2,-1546
795,9.094344,1,0,-1,1034,0,-1549
796,9.105895,1,2,0,1031,-1,-1544
797,9.117441,0,-1,-1,1032,0,-1549
798,9.129003,1,-1,0,1029,0,-1547
799,9.140621,1,1,0,1032,0,-1547
800,9.152287,0,0,-1,1031,0,-1542
801,9.163936,1,1,0,1037,-2,-1542
802,9.17559,1,-2,0,1033,-1,-1545
803,9.187273,0,1,1,1033,1,-1545
804,9.198944,0,-1,1,1033,0,-1542
805,9.210663,1,-1,1,1036,2,-1540
806,9.222316,0,-2,0,1030,-2,-1544
807,9.233976,1,-1,0,1030,1,-1543
808,9.245651,0,0,2,1032,3,-1546
809,9.257211,0,2,0,1032,0,-1555
810,9.268761,0,1,1,1032,1,-1543
811,9.280328,-1,0,0,1031,-2,-1543
812,9.291879,0,-2,1,1032,-2,-1539
813,9.303467,0,1,1,1035,2,-1546
814,9.315022,1,0,-2,1030,0,-1545
815,9.326598,1,1,1,1032,0,-1548
816,9.338112,0,0,2,1030,2,-1536
817,9.349753,1,0,2,1032,0,-1541
818,9.361409,1,0,-2,1032,-2,-1544
819,9.373061,2,2,0,1033,2,-1545
820,9.384702,-2,2,0,1033,-3,-1544
821,9.396349,0,1,1,1032,-1,-1545
822,9.408026,2,-1,-2,1032,-2,-1541
823,9.419666,0,-1,-2,1031,0,-1543
824,9.431317,0,0,-1,1035,0,-1546
825,9.443026,1,-1,0,1034,0,-1548
826,9.454681,0,0,-1,1034,-2,-1543
827,9.466256,1,1,0,1031,0,-1539
828,9.477803,0,0,1,1031,-3,-1540
829,9.489351,-1,0,1,1029,4,-1542
830,9.500897,0,-1,-1,1033,-1,-1542
831,9.51245,1,1,-1,1030,0,-1540
832,9.523997,-1,-1,0,1030,-3,-1542
833,9.535574,-1,-1,0,1032,-1,-1537
834,9.547143,1,-3,1,1032,-4,-1547
835,9.558788,2,1,-2,1033,-2,-1548
836,9.570449,1,0,-1,1033,2,-1540
837,9.582133,2,0,-2,1034,-1,-1548
838,9.593785,3,2,1,1034,2,-1547
839,9.605436,-1,0,1,1032,0,-1546
840,9.617077,1,1,-2,1035,-1,-1540
841,9.628726,2,0,0,1033,1,-1547
842,9.64039,1,-2,-1,1031,0,-1543
843,9.652048,3,2,-1,1030,-4,-1544
844,9.663698,2,0,2,1031,1,-1536
845,9.675251,1,1,1,1032,-2,-1540
846,9.686814,0,-1,1,1030,-1,-1541
847,9.698343,1,0,0,1032,0,-1542
848,9.709912,2,1,0,1033,-2,-1540
849,9.72147,-1,-1,1,1037,3,-1544
850,9.733015,-1,0,0,1034,-4,-1546
851,9.744589,0,-1,1,1035,-3,-1546
852,9.756134,1,2,0,1033,-1,-1540
853,9.76775,-1,-1,-1,1032,0,-1544
854,9.779402,0,-1,-2,1032,4,-1547
855,9.791056,2,1,-2,1031,-3,-1541
856,9.802748,0,1,1,1034,-1,-1539
857,9.814372,1,1,1,1030,-1,-1544
858,9.826022,0,-1,0,1031,-1,-1540
859,9.837673,1,1,1,1031,-2,-1557
860,9.84931,-1,-2,1,1030,0,-1541
861,9.86097,0,0,2,1032,-2,-1546
862,9.872639,0,0,0,1033,-1,-1541
863,9.884229,1,1,0,1032,-4,-1548
864,9.89578,2,-1,-1,1037,0,-1547
865,9.907311,1,0,1,1035,0,-1535
866,9.918829,-2,-2,1,1033,2,-1546
867,9.930392,0,-2,1,1031,4,-1543
868,9.941978,1,1,-1,1030,0,-1544
869,9.953582,-2,-1,-3,1031,-1,-1545
870,9.965129,0,2,0,1033,0,-1538
871,9.976763,3,1,-1,1030,0,-1548
872,9.988412,2,1,2,1030,0,-1542
873,10.000069,0,0,0,1030,1,-1545
874,10.01175,-1,1,-1,1031,-1,-1543
875,10.023395,3,-1,1,1030,-1,-1544
876,10.035054,0,1,-1,1027,0,-1551
877,10.046751,2,-1,-1,1029,0,-1538
878,10.058372,1,0,0,1032,-2,-1539
879,10.070042,-1,0,-1,1032,3,-1542
880,10.081736,2,1,2,1032,1,-1543
881,10.093288,-1,2,2,1037,0,-1545
882,10.104841,-1,-1,1,1034,0,-1551
883,10.116388,3,3,-1,1035,1,-1544
884,10.127933,0,0,1,1033,-1,-1544
885,10.139483,1,1,0,1035,1,-1548
886,10.151053,0,0,0,1032,-3,-1549
887,10.162588,-1,2,0,1034,-5,-1541
888,10.174104,0,2,0,1032,1,-1546
889,10.18577,1,0,-2,1032,0,-1546
890,10.197428,-1,1,-1,1032,2,-1544
891,10.209081,-1,1,1,1033,0,-1542
892,10.22074,-1,0,-2,1026,3,-1539
893,10.232394,0,1,1,1033,2,-1543
894,10.244034,-1,0,-1,1032,3,-1543
895,10.255676,2,-1,0,1034,0,-1548
896,10.267345,-1,1,0,1031,0,-1546
897,10.279103,0,1,0,1032,0,-1547
898,10.290771,1,0,-1,1036,-1,-1550
899,10.302344,-1,0,-1,1031,-1,-1547
900,10.313944,0,2,0,1034,2,-1548
901,10.325522,2,-1,0,1033,-1,-1547
902,10.33708,0,-2,1,1033,-1,-1547
903,10.348618,0,1,0,1031,0,-1546
904,10.360159,1,1,0,1034,0,-1545
905,10.371711,1,3,0,1032,-1,-1542
906,10.383271,2,-3,0,1029,-1,-1544
907,10.394969,2,-1,1,1033,1,-1542
908,10.406646,2,1,-1,1033,0,-1544
909,10.41831,2,-1,1,1031,0,-1540
910,10.429984,0,-1,-1,1035,0,-1545
911,10.44164,1,-2,0,1032,0,-1545
912,10.453324,1,-2,-2,1034,1,-1548
913,10.464994,1,-1,-1,1033,0,-1548
914,10.476649,0,1,-1,1031,1,-1544
915,10.488293,0,0,-1,1032,1,-1544
916,10.499844,0,0,1,1032,2,-1552
917,10.511398,3,-1,1,1033,4,-1540
918,10.522952,2,1,0,1031,4,-1546
919,10.534515,1,-1,-2,1034,0,-1542
920,10.546095,-2,2,1,1033,0,-1550
921,10.557659,3,1,-1,1033,-1,-1540
922,10.569207,-2,-1,-2,1028,0,-1543
923,10.580763,0,0,0,1034,2,-1542
924,10.592394,1,1,-2,1032,0,-1547
925,10.604047,-2,0,1,1037,0,-1546
926,10.615698,-1,0,0,1031,-1,-1546
927,10.6274,0,2,2,1029,-1,-1545
928,10.639055,1,0,0,1033,-3,-1543
929,10.650705,0,-1,0,1033,-1,-1540
930,10.662379,-1,3,1,1035,-2,-1539
931,10.674026,2,-1,0,1033,0,-1543
932,10.685696,1,1,2,1032,2,-1548
933,10.697379,-2,0,-1,1033,-1,-1545
934,10.708951,0,1,-1,1034,0,-1542
935,10.720505,0,-1,-1,1029,1,-1548
936,10.732076,-1,1,-1,1031,1,-1540
937,10.743618,3,-2,0,1034,-3,-1546
938,10.755186,0,-1,-1,1033,0,-1548
939,10.76674,1,-1,1,1033,4,-1545
940,10.778334,1,-2,-1,1035,-1,-1537
941,10.78992,2,-1,0,1030,5,-1548
942,10.801551,1,0,0,1030,2,-1542
943,10.813234,1,-2,1,1033,-6,-1549
944,10.825024,0,1,0,1033,0,-1548
945,10.83671,1,0,1,1036,-2,-1542
946,10.848373,0,-1,0,1032,-1,-1541
947,10.86004,1,2,1,1032,0,-1545
948,10.871728,0,0,-1,1031,-2,-1547
949,10.883394,-1,1,-1,1033,-2,-1538
950,10.89507,1,-1,-1,1033,0,-1543
951,10.906774,2,0,1,1034,0,-1549
952,10.918456,0,0,1,1032,0,-1546
953,10.930114,2,1,-2,1030,4,-1551
954,10.941764,0,1,1,1031,0,-1543
955,10.953422,0,0,1,1032,-2,-1542
956,10.965065,1,1,-1,1033,0,-1547
957,10.976718,-1,-2,-2,1037,-1,-1544
958,10.98837,-1,-2,1,1033,0,-1544
959,11.000028,-1,1,1,1034,0,-1544
960,11.011681,3,-1,-1,1032,0,-1538
961,11.023248,1,2,0,1031,-2,-1541
962,11.034819,0,4,-1,1029,6,-1546
963,11.046385,1,-1,1,1031,-1,-1543
964,11.058058,0,4,1,1033,0,-1549
965,11.069635,1,1,-1,1029,-2,-1536
966,11.081438,-1,0,1,1034,0,-1553
967,11.093122,1,0,1,1030,0,-1539
968,11.104696,0,1,1,1030,-3,-1543
969,11.116285,1,-3,-1,1035,-1,-1540
970,11.127836,-1,-1,1,1033,0,-1549
971,11.139419,2,0,-2,1034,2,-1551
972,11.150975,-1,1,0,1031,-4,-1543
973,11.162557,3,0,1,1031,2,-1542
974,11.174105,0,0,2,1031,-2,-1541
975,11.185681,0,2,-1,1034,-1,-1545
976,11.197258,1,-3,-1,1031,-1,-1546
977,11.208821,-1,-2,0,1032,4,-1543
978,11.220489,1,1,0,1034,0,-1542
979,11.232142,-1,-3,2,1033,-1,-1545
980,11.243806,1,0,0,1030,-1,-1543
981,11.255481,-2,2,1,1031,-1,-1544
982,11.267146,0,-1,2,1031,0,-1547
983,11.278822,0,0,1,1033,-1,-1545
984,11.2905,1,0,-2,1031,0,-1544
985,11.302167,1,-1,0,1033,0,-1545
986,11.313849,-1,-2,0,1032,0,-1544
987,11.325505,0,1,-2,1032,0,-1543
988,11.337156,3,2,1,1031,0,-1544
989,11.348825,-2,0,-1,1032,-3,-1547
990,11.360485,3,0,0,1033,-1,-1546
991,11.372133,0,-2,0,1033,2,-1546
992,11.383782,1,0,2,1032,3,-1540
993,11.395453,1,-2,0,1033,1,-1540
994,11.407174,1,0,-1,1033,-2,-1543
995,11.418888,0,1,-2,1032,0,-1541
996,11.430591,-1,0,1,1032,0,-1542
997,11.442256,3,-2,1,1030,1,-1543
998,11.453904,0,-2,-2,1033,-5,-1537
999,11.465577,-1,1,-1,1032,-3,-1544
1000,11.477227,0,3,1,1036,-3,-1542
1001,11.488877,0,1,0,1030,-2,-1545
1002,11.500526,1,-2,1,1036,0,-1544
1003,11.512229,-2,1,0,1033,-1,-1539
1004,11.523884,1,1,0,1032,0,-1542
1005,11.535561,0,-3,2,1035,0,-1548
1006,11.547253,1,2,1,1030,1,-1546
1007,11.558883,1,1,1,1032,0,-1546
1008,11.570585,0,1,2,1033,0,-1550
1009,11.582252,1,0,0,1028,-1,-1545
1010,11.593907,-1,-1,0,1032,0,-1545
1011,11.605588,-1,-1,2,1029,-1,-1548
1012,11.617242,-1,1,1,1033,-1,-1540
1013,11.628937,0,1,0,1029,-2,-1547
1014,11.640536,2,-2,2,1035,-1,-1545
1015,11.65208,1,-1,0,1033,2,-1539
1016,11.663622,0,2,-1,1032,-1,-1543
1017,11.675191,0,-1,-3,1031,-2,-1545
1018,11.686755,1,0,1,1034,0,-1543
1019,11.698324,2,0,0,1033,0,-1543
1020,11.709868,1,0,-1,1033,0,-1542
1021,11.721427,1,-1,0,1029,2,-1544
1022,11.733124,0,-2,0,1030,-1,-1543
1023,11.744773,0,2,0,1033,2,-1540
1024,11.756451,0,-2,-1,1032,1,-1545
1025,11.768089,0,2,-1,1033,3,-1540
1026,11.779736,1,1,0,1033,0,-1548
1027,11.791413,2,-1,0,1028,0,-1545
1028,11.803105,2,0,0,1036,-3,-1540
1029,11.814759,-1,1,0,1031,0,-1542
1030,11.826445,-1,-1,-1,1031,-3,-1542
1031,11.838105,-1,0,0,1033,3,-1550
1032,11.849679,2,0,-1,1033,2,-1540
1033,11.861222,1,3,-1,1033,-2,-1544
1034,11.872771,2,-1,1,1035,0,-1549
1035,11.884324,0,-2,1,1033,3,-1551
1036,11.895922,0,1,2,1038,0,-1545
1037,11.907472,-2,0,0,1032,-4,-1538
1038,11.919043,-1,-1,1,1034,0,-1543
1039,11.930654,-1,1,-2,1031,-1,-1545
1040,11.942405,2,2,-2,1036,-2,-1545
1041,11.954117,-2,-1,-2,1033,0,-1544
1042,11.965769,1,2,1,1030,-2,-1545
1043,11.977424,1,0,-1,1031,-3,-1544
1044,11.989097,-1,1,2,1031,2,-1552
1045,12.000747,0,-1,-1,1032,2,-1546
1046,12.012398,2,-1,-1,1033,1,-1546
1047,12.02407,1,1,0,1032,-2,-1542
1048,12.035733,1,1,-1,1030,-2,-1539
1049,12.047405,0,-1,0,1029,-3,-1544
1050,12.05908,0,1,-1,1033,0,-1540
1051,12.070754,-1,0,0,1033,-3,-1546
1052,12.082373,2,-1,0,1034,0,-1546
1053,12.094029,0,-1,2,1034,2,-1546
1054,12.105692,2,1,1,1028,-3,-1552
1055,12.117342,1,1,1,1033,0,-1548
1056,12.128987,0,1,0,1031,0,-1539
1057,12.140672,0,-2,0,1035,-4,-1547
1058,12.152332,0,2,0,1033,-3,-1543
1059,12.164017,1,0,0,1031,2,-1550
1060,12.17571,3,0,0,1033,0,-1549
1061,12.187388,1,0,1,1033,0,-1545
1062,12.19904,-1,1,0,1031,-3,-1549
1063,12.210705,3,-1,1,1029,1,-1542
1064,12.222375,-2,0,0,1032,-5,-1544
1065,12.234024,1,-2,-1,1034,0,-1545
1066,12.245744,0,1,0,1028,0,-1545
1067,12.257409,-1,0,0,1030,0,-1551
1068,12.268961,0,-1,-1,1029,2,-1547
1069,12.280514,1,0,0,1033,0,-1545
1070,12.292063,1,1,2,1033,-2,-1541
1071,12.303606,-1,1,-2,1027,0,-1546
1072,12.315196,2,-1,-1,1034,1,-1544
1073,12.326771,2,0,-1,1031,0,-1543
1074,12.338339,-1,0,0,1033,1,-1542
1075,12.349914,1,-1,-1,1034,0,-1541
1076,12.36152,-1,1,0,1031,-3,-1546
1077,12.373182,0,1,1,1033,0,-1542
1078,12.384835,1,-1,0,1032,0,-1549
1079,12.396483,1,0,-2,1034,0,-1547
1080,12.408137,0,1,0,1031,-2,-1552
1081,12.419792,1,0,0,1031,1,-1540
1082,12.431455,0,-1,-1,1036,0,-1540
1083,12.443136,0,0,-1,1031,-1,-1550
1084,12.454822,0,0,-1,1035,0,-1545
1085,12.466491,1,-2,0,1032,-2,-1539
1086,12.478114,1,1,0,1033,0,-1545
1087,12.489778,3,0,-1,1034,0,-1535
1088,12.501435,1,-1,0,1034,-2,-1545
1089,12.51309,0,0,1,1035,0,-1544
1090,12.524736,1,0,0,1033,0,-1540
1091,12.536391,-2,1,0,1033,1,-1544
1092,12.548072,0,-1,0,1033,0,-1549
1093,12.559744,1,-3,1,1035,-4,-1546
1094,12.571415,0,0,2,1033,-2,-1541
1095,12.58308,-1,1,1,1033,1,-1539
1096,12.594757,1,0,1,1033,-1,-1544
1097,12.60643,0,0,-2,1030,2,-1541
1098,12.618099,0,2,0,1034,0,-1542
1099,12.629744,-1,-1,0,1033,0,-1545
1100,12.641405,1,1,1,1032,-1,-1540
1101,12.653069,2,0,-1,1033,0,-1546
1102,12.664741,1,0,1,1032,0,-1547
1103,12.676419,-1,0,1,1032,-1,-1541
1104,12.688076,-1,-2,-2,1037,-2,-1538
1105,12.699717,-2,1,1,1033,2,-1541
1106,12.711384,-1,0,-1,1028,-1,-1542
1107,12.723061,1,-1,1,1029,-5,-1542
1108,12.734737,1,2,1,1031,0,-1547
1109,12.746371,0,2,0,1037,0,-1545
1110,12.758033,0,2,1,1034,-1,-1549
1111,12.769685,-1,1,1,1033,0,-1543
1112,12.781257,2,1,0,1032,-1,-1545
1113,12.792803,1,0,1,1033,0,-1543
1114,12.804383,0,1,-1,1030,-4,-1544
1115,12.815923,0,0,1,1033,-1,-1547
1116,12.827468,-1,0,-1,1030,0,-1549
1117,12.839042,2,-3,0,1033,2,-1543
1118,12.850586,0,-1,-2,1033,-1,-1548
1119,12.862139,1,3,-1,1033,0,-1538
1120,12.8737,-1,1,0,1036,1,-1539
1121,12.885321,-2,0,1,1035,-2,-1541
1122,12.896962,0,2,-1,1035,-1,-1540
1123,12.908612,0,0,4,1031,-1,-1542
1124,12.92033,0,-1,2,1032,1,-1546
1125,12.93197,-1,-2,-1,1036,-1,-1540
1126,12.943651,1,0,-1,1034,-2,-1545
1127,12.955324,0,1,0,1033,0,-1547
1128,12.967008,1,0,1,1031,0,-1545
1129,12.978686,1,0,0,1032,-1,-1547
1130,12.990356,0,0,1,1036,-2,-1536
1131,13.001923,1,-2,1,1033,1,-1545
1132,13.013504,1,-1,2,1031,0,-1544
1133,13.025047,-2,-1,0,1031,3,-1545
1134,13.036595,0,-1,2,1033,1,-1543
1135,13.048167,2,1,2,1031,0,-1545
1136,13.059714,1,1,0,1034,4,-1544
1137,13.071294,1,2,0,1029,-1,-1541
1138,13.082896,2,1,1,1031,-2,-1538
1139,13.094587,0,-1,3,1029,0,-1543
1140,13.106268,2,-2,0,1031,-1,-1539
1141,13.11793,-2,1,1,1029,2,-1540
1142,13.129582,-1,0,-1,1035,-3,-1543
1143,13.141245,1,0,-1,1032,2,-1538
1144,13.152901,0,-1,-1,1035,2,-1548
1145,13.164571,0,0,1,1033,2,-1544
1146,13.176225,0,-1,1,1029,-2,-1541
1147,13.187892,0,1,-1,1034,0,-1546
1148,13.199566,-1,2,1,1035,0,-1544
1149,13.211134,0,0,1,1034,-1,-1546
1150,13.222725,1,1,-1,1032,-2,-1540
1151,13.234282,1,-1,3,1032,0,-1541
1152,13.245868,0,1,-1,1034,0,-1538
1153,13.257408,-1,-1,0,1035,1,-1536
1154,13.26896,1,0,1,1033,0,-1544
1155,13.280507,1,1,-1,1034,0,-1554
1156,13.29208,2,-1,1,1030,0,-1540
1157,13.303696,2,1,-2,1030,2,-1543
1158,13.315382,0,1,0,1032,-1,-1541
1159,13.327058,1,0,-1,1030,-3,-1544
1160,13.33871,-2,-1,0,1033,-1,-1548
1161,13.350377,2,1,1,1028,-1,-1542
1162,13.362047,1,1,1,1032,2,-1539
1163,13.373689,1,0,-1,1035,1,-1542
1164,13.385338,1,0,-1,1033,0,-1537
1165,13.397011,-1,1,3,1034,0,-1548
1166,13.408671,-1,0,0,1033,0,-1551
1167,13.420268,-1,0,-3,1033,0,-1540
1168,13.431842,-1,0,0,1032,-2,-1545
1169,13.443394,2,-1,-1,1032,3,-1544
1170,13.454959,0,1,2,1038,1,-1544
1171,13.466506,0,0,0,1036,0,-1549
1172,13.478095,2,-3,-1,1031,0,-1543
1173,13.489646,2,1,-3,1031,0,-1542
1174,13.501217,0,2,0,1032,0,-1541
1175,13.512888,-1,-1,-1,1031,1,-1545
1176,13.524549,-1,-1,0,1033,-5,-1544
1177,13.536192,0,-1,0,1029,0,-1548
1178,13.547842,-1,0,1,1032,0,-1544
1179,13.559536,-1,2,-1,1034,2,-1554
1180,13.571189,1,-1,1,1033,2,-1547
1181,13.582882,0,1,0,1028,1,-1543
1182,13.594553,2,-1,-1,1030,0,-1540
1183,13.606244,0,-1,0,1033,-1,-1541
1184,13.617919,3,2,0,1027,0,-1544
1185,13.629561,-1,0,1,1035,-3,-1546
1186,13.641204,-1,-1,1,1035,2,-1545
1187,13.652866,0,0,-1,1033,1,-1543
1188,13.664578,1,0,-2,1031,-3,-1548
1189,13.676313,-2,3,0,1036,0,-1549
1190,13.687972,1,0,0,1033,0,-1548
1191,13.699658,-1,0,0,1031,0,-1545
1192,13.711406,2,0,1,1030,0,-1541
1193,13.723084,1,2,1,1033,3,-1547
1194,13.734657,-1,-1,1,1037,-1,-1549
1195,13.746228,1,1,2,1030,0,-1535
1196,13.757783,0,-1,1,1031,-1,-1544
1197,13.769362,2,1,-1,1033,-2,-1543
1198,13.780917,2,0,0,1034,-1,-1546
1199,13.792514,0,1,0,1035,0,-1549
1200,13.804059,0,1,0,1029,-4,-1547
1201,13.815622,-1,0,1,1034,2,-1542
1202,13.827275,2,1,1,1031,0,-1537
1203,13.838934,-1,0,1,1031,0,-1541
1204,13.850614,2,0,0,1033,0,-1545
1205,13.862292,0,0,1,1033,-2,-1549
1206,13.873937,0,1,0,1034,3,-1540
1207,13.885621,0,1,0,1036,0,-1540
1208,13.897332,0,0,0,1032,0,-1545
1209,13.909009,1,-1,2,1033,0,-1543
1210,13.920675,-1,-1,0,1034,0,-1541
1211,13.932329,2,3,1,1033,0,-1546
1212,13.944021,1,0,1,1033,0,-1541
1213,13.955676,1,1,0,1029,-1,-1547
1214,13.967334,1,1,-1,1031,-1,-1543
1215,13.979022,0,-1,-2,1030,1,-1546
1216,13.990683,1,1,2,1033,0,-1539
1217,14.002352,1,0,0,1033,-4,-1548
1218,14.014031,0,1,0,1033,-2,-1535
1219,14.025781,1,-2,0,1033,1,-1547
1220,14.037436,-1,0,0,1031,-3,-1548
1221,14.048997,0,-1,1,1031,-2,-1540
1222,14.06061,0,-1,1,1030,0,-1541
1223,14.072167,0,1,-2,1031,-1,-1542
1224,14.083738,0,2,1,1035,-1,-1545
1225,14.0953,-1,0,4,1031,-1,-1545
1226,14.106826,1,0,-2,1030,0,-1545
1227,14.118359,1,-1,1,1035,-2,-1545
1228,14.129966,0,0,0,1031,-2,-1543
1229,14.141615,-1,-1,-1,1033,-1,-1550
1230,14.153277,0,0,1,1031,-1,-1550
1231,14.164954,0,-1,1,1030,-2,-1542
1232,14.176621,-1,0,-1,1032,0,-1541
1233,14.188278,1,0,0,1033,0,-1540
1234,14.199923,-2,-1,0,1031,0,-1542
1235,14.211586,0,0,-1,1033,-1,-1544
1236,14.223269,0,0,0,1027,-2,-1545
1237,14.234932,1,0,0,1031,0,-1556
1238,14.246605,2,-2,0,1031,-3,-1549
1239,14.258283,0,2,0,1030,-1,-1542
1240,14.269922,1,0,-1,1032,0,-1542
1241,14.281566,-1,1,0,1033,0,-1542
1242,14.293223,1,-2,2,1030,0,-1541
1243,14.304888,1,0,0,1030,0,-1547
1244,14.31654,-1,-1,-1,1033,2,-1548
1245,14.328189,1,0,-1,1034,-2,-1546
1246,14.339867,0,1,2,1030,-2,-1544
1247,14.351542,1,0,-1,1032,-1,-1545
1248,14.363198,0,-1,1,1031,2,-1556
1249,14.374921,0,0,-1,1031,4,-1544
1250,14.386567,0,0,0,1032,-3,-1543
1251,14.398268,1,0,-1,1030,-3,-1540
1252,14.409916,-1,1,3,1034,0,-1545
1253,14.421563,1,-3,2,1036,-3,-1547
1254,14.433231,1,0,0,1035,-2,-1547
1255,14.444914,1,1,0,1033,-1,-1546
1256,14.456561,1,0,-1,1033,-2,-1549
1257,14.468218,0,0,0,1033,1,-1548
1258,14.479886,0,2,-1,1037,0,-1544
1259,14.491538,1,0,1,1032,2,-1547
1260,14.503188,1,-1,0,1037,-1,-1540
1261,14.514865,-2,1,-1,1031,0,-1542
1262,14.526531,-2,2,-1,1032,2,-1539
1263,14.538192,4,-2,0,1033,0,-1541
1264,14.549848,0,1,0,1033,2,-1543
1265,14.561533,0,0,-1,1033,-1,-1544
1266,14.573102,2,3,1,1033,-2,-1546
1267,14.584663,0,0,4,1031,0,-1541
1268,14.596225,0,-3,0,1037,-6,-1540
1269,14.60777,-1,1,-2,1033,0,-1546
1270,14.619307,-1,-1,0,1031,0,-1536
1271,14.630828,1,0,0,1033,0,-1546
1272,14.642348,2,1,1,1034,1,-1545
1273,14.653897,-2,-1,-1,1033,-1,-1547
1274,14.665554,0,1,0,1031,0,-1540
1275,14.677204,0,2,2,1031,-1,-1548
1276,14.688874,-1,0,1,1032,0,-1545
1277,14.700523,-1,-1,1,1034,-4,-1546
1278,14.712177,-2,0,2,1036,-3,-1543
1279,14.72386,-2,0,-2,1035,2,-1538
1280,14.735533,0,-1,0,1032,4,-1547
1281,14.747191,1,-3,1,1026,-2,-1539
1282,14.758869,1,0,2,1032,2,-1548
1283,14.770497,1,-1,1,1035,0,-1540
1284,14.782039,1,-2,-2,1035,0,-1547
1285,14.793596,3,0,0,1030,1,-1547
1286,14.80514,-2,1,1,1031,1,-1547
1287,14.816696,1,1,0,1032,0,-1543
1288,14.828247,1,2,1,1032,-1,-1539
1289,14.839845,0,1,0,1034,-1,-1546
1290,14.851447,1,-2,-1,1033,2,-1544
1291,14.863019,0,-1,-2,1030,1,-1545
1292,14.874694,2,0,-2,1031,0,-1548
1293,14.88637,0,2,1,1031,2,-1546
1294,14.898052,1,0,0,1030,1,-1544
1295,14.909726,1,-1,-1,1034,-1,-1540
1296,14.92139,0,-1,0,1039,-1,-1541
1297,14.933044,-1,2,-1,1029,1,-1541
1298,14.944692,0,1,1,1034,2,-1545
1299,14.956363,0,1,-1,1033,0,-1548
1300,14.968027,0,2,-1,1031,2,-1547
1301,14.979591,1,0,0,1032,2,-1538
1302,14.991205,1,-1,0,1033,0,-1551
1303,15.002758,1,0,0,1029,1,-1545
1304,15.014326,-1,-1,0,1031,0,-1544
1305,15.025872,0,0,0,1031,1,-1541
1306,15.037445,2,0,0,1030,2,-1548
1307,15.048989,-1,2,0,1034,-1,-1547
1308,15.060578,-1,-2,0,1031,0,-1551
1309,15.072195,2,2,0,1033,1,-1544
1310,15.083884,2,0,1,1033,0,-1545
1311,15.095539,0,0,0,1031,4,-1545
1312,15.107215,0,-1,-1,1031,-2,-1550
1313,15.118885,1,1,0,1029,-2,-1541
1314,15.130538,-2,1,2,1035,-2,-1539
1315,15.142259,0,1,-1,1032,0,-1544
1316,15.1539,0,0,1,1032,-6,-1547
1317,15.165561,0,1,0,1030,0,-1541
1318,15.177247,0,2,-1,1028,4,-1538
1319,15.188824,1,0,0,1031,-2,-1543
1320,15.200375,-1,-1,-1,1032,0,-1547
1321,15.211937,0,0,-2,1031,-1,-1550
1322,15.22349,1,-1,0,1035,6,-1546
1323,15.235061,-1,-2,-2,1037,-3,-1547
1324,15.246589,1,2,0,1027,0,-1546
1325,15.258174,0,1,2,1030,-1,-1541
1326,15.269762,1,0,2,1030,-2,-1546
1327,15.281391,0,0,0,1035,-2,-1541
1328,15.293047,2,1,-2,1033,0,-1548
1329,15.304694,1,4,0,1033,-5,-1539
1330,15.316341,0,3,2,1033,-6,-1547
1331,15.328008,0,-1,-1,1032,0,-1538
1332,15.339647,0,1,-1,1031,0,-1546
1333,15.351305,1,-1,1,1034,-2,-1542
1334,15.362979,0,-1,0,1030,0,-1545
1335,15.374641,1,2,0,1032,-2,-1545
1336,15.386293,1,-1,-1,1033,-2,-1544
1337,15.397964,1,0,-1,1034,2,-1547
1338,15.409619,2,-1,2,1033,0,-1548
1339,15.421268,-1,1,2,1033,-1,-1548
1340,15.432912,0,-1,-2,1034,-1,-1540
1341,15.444565,0,0,-1,1031,2,-1545
1342,15.456225,2,0,2,1035,-6,-1538
1343,15.467874,1,2,-1,1039,5,-1542
1344,15.479545,0,-3,0,1032,0,-1535
1345,15.491191,-1,-1,0,1030,4,-1540
1346,15.502874,0,-1,0,1032,-1,-1548
1347,15.514555,-1,1,-1,1034,-2,-1546
1348,15.526241,0,0,0,1033,0,-1546
1349,15.537881,2,1,1,1032,-2,-1544
1350,15.549532,0,-1,0,1030,-1,-1540
1351,15.561201,1,-1,0,1035,-1,-1544
1352,15.572861,2,1,1,1031,1,-1543
1353,15.584541,0,1,-2,1028,2,-1545
1354,15.596209,1,0,0,1033,1,-1541
1355,15.607865,1,3,1,1032,0,-1545
1356,15.619524,0,-2,0,1034,-4,-1549
1357,15.631162,0,3,0,1033,7,-1542
1358,15.64283,0,1,0,1034,0,-1541
1359,15.654502,0,-1,1,1034,0,-1540
1360,15.666155,1,-1,1,1032,0,-1544
1361,15.677818,2,2,0,1033,-3,-1535
1362,15.689498,0,-1,1,1037,3,-1540
1363,15.701149,1,-2,-1,1033,-2,-1541
1364,15.712801,-1,0,1,1034,1,-1542
1365,15.724443,1,0,0,1036,-1,-1545
1366,15.736103,0,0,0,1032,0,-1540
1367,15.747754,0,0,1,1034,0,-1546
1368,15.759391,-1,-1,0,1033,-3,-1542
1369,15.771048,0,2,0,1031,-3,-1548
1370,15.782698,0,1,0,1034,-2,-1544
1371,15.794383,1,1,0,1032,-2,-1548
1372,15.806056,0,2,0,1034,1,-1542
1373,15.817627,-1,2,1,1034,0,-1537
1374,15.829188,0,0,2,1034,1,-1547
1375,15.840735,0,1,-1,1031,4,-1544
1376,15.852292,2,-2,-2,1032,0,-1547
1377,15.863843,0,0,1,1028,-1,-1543
1378,15.875393,-1,-2,0,1032,0,-1540
1379,15.886982,0,1,1,1030,2,-1538
1380,15.898593,0,1,-1,1033,1,-1543
1381,15.910303,0,1,-1,1033,-2,-1546
1382,15.921976,1,-1,1,1029,1,-1536
1383,15.933633,0,0,1,1030,1,-1546
1384,15.9453,1,2,-1,1033,-2,-1544
1385,15.956967,0,-1,0,1033,-1,-1542
1386,15.968628,1,-2,-1,1034,0,-1544
1387,15.980273,1,-1,0,1034,3,-1546
1388,15.991947,1,-2,2,1032,0,-1545
1389,16.003686,-2,-1,1,1029,0,-1555
1390,16.015361,1,1,-1,1031,1,-1547
1391,16.026947,0,1,1,1029,-1,-1543
1392,16.038504,3,1,-2,1034,-1,-1546
1393,16.050083,-1,1,0,1034,0,-1541
1394,16.06163,0,0,2,1030,-3,-1544
1395,16.073183,-2,0,-1,1029,0,-1542
1396,16.084727,-1,0,0,1031,1,-1539
1397,16.096276,0,1,0,1033,0,-1543
1398,16.107836,0,1,0,1030,0,-1545
1399,16.119473,0,-1,1,1031,0,-1541
1400,16.13115,1,1,2,1031,0,-1547
1401,16.14282,0,-2,-2,1033,0,-1542
1402,16.154501,-1,-1,1,1031,3,-1544
1403,16.166155,0,0,0,1033,-2,-1544
1404,16.177827,1,2,2,1031,2,-1541
1405,16.189487,1,1,-1,1034,-1,-1546
1406,16.201132,0,0,-1,1032,1,-1535
1407,16.212796,0,1,0,1029,-4,-1546
1408,16.224467,0,1,1,1035,-2,-1541
1409,16.236113,1,2,0,1035,-1,-1549
1410,16.247764,-1,0,0,1034,-4,-1544
1411,16.259433,2,-2,-1,1030,-1,-1547
1412,16.271089,0,1,0,1029,1,-1541
1413,16.282758,-1,0,1,1030,1,-1548
1414,16.294428,0,-1,2,1033,-1,-1546
1415,16.306103,-1,-2,0,1032,0,-1540
1416,16.317779,2,0,-1,1033,2,-1545
1417,16.32945,-2,1,2,1031,0,-1548
1418,16.341096,2,1,1,1030,0,-1543
1419,16.352747,1,1,0,1034,0,-1545
1420,16.36439,0,0,1,1035,0,-1543
1421,16.376075,1,1,2,1035,-1,-1535
1422,16.387726,-2,0,0,1035,-1,-1541
1423,16.399395,0,-2,-1,1034,-1,-1543
1424,16.411064,-2,0,-1,1033,-2,-1547
1425,16.422797,1,-1,-1,1030,0,-1545
1426,16.434497,0,2,1,1029,0,-1545
1427,16.446116,0,-1,2,1031,1,-1544
1428,16.457766,-1,-1,0,1033,-1,-1539
1429,16.469437,1,-1,1,1033,2,-1547
1430,16.481089,4,0,0,1033,4,-1538
1431,16.49274,-1,1,0,1034,-2,-1544
1432,16.504382,1,2,0,1033,0,-1544
1433,16.516038,-1,-1,0,1031,0,-1540
1434,16.527723,1,0,1,1033,0,-1544
1435,16.539395,0,0,2,1031,1,-1545
1436,16.55105,1,0,-2,1029,-1,-1543
1437,16.562748,0,0,1,1032,-2,-1549
1438,16.574369,0,1,2,1033,0,-1537
1439,16.586012,0,2,0,1034,-3,-1547
1440,16.597676,0,2,-3,1034,-3,-1538
1441,16.609338,1,0,-1,1031,0,-1542
1442,16.620983,1,1,1,1038,1,-1540
1443,16.632722,-1,-1,-2,1035,-2,-1542
1444,16.644375,1,-1,0,1031,-4,-1541
1445,16.655926,0,0,-1,1030,-1,-1544
1446,16.667475,1,2,-2,1032,-1,-1542
1447,16.679054,-1,0,-1,1030,-4,-1542
1448,16.690632,0,-2,-2,1033,0,-1544
1449,16.702184,1,3,0,1030,-2,-1550
1450,16.713793,2,0,0,1027,-4,-1544
1451,16.725344,0,-1,1,1028,0,-1548
1452,16.736917,1,-1,0,1034,6,-1548
1453,16.748559,0,-1,1,1033,0,-1549
1454,16.760217,0,2,3,1031,2,-1540
1455,16.771875,1,1,1,1035,2,-1543
1456,16.783574,0,0,1,1037,1,-1550
1457,16.795252,0,0,0,1035,1,-1547
1458,16.806888,2,-1,2,1033,0,-1536
1459,16.818539,0,1,-1,1031,0,-1545
1460,16.830233,0,0,0,1033,1,-1549
1461,16.841905,1,-1,-1,1033,-6,-1542
1462,16.853558,1,-1,0,1031,0,-1550
1463,16.865149,-1,-1,2,1031,-1,-1549
1464,16.876702,1,-1,3,1033,4,-1543
1465,16.88828,-1,1,3,1032,2,-1540
1466,16.899826,-1,0,1,1032,1,-1539
1467,16.911382,1,-2,2,1031,1,-1545
1468,16.922945,2,1,0,1034,2,-1538
1469,16.934503,1,2,2,1036,2,-1543
1470,16.946054,-1,1,2,1036,1,-1550
1471,16.957749,1,0,1,1034,0,-1542
1472,16.969433,1,0,-1,1032,-1,-1546
1473,16.981086,0,-2,0,1032,-1,-1539
1474,16.992794,1,-2,-1,1034,-1,-1539
1475,17.004458,-1,-1,2,1033,0,-1545
1476,17.016107,1,0,0,1033,-1,-1542
1477,17.027758,0,1,-2,1034,0,-1542
1478,17.03941,1,-2,1,1033,0,-1550
1479,17.051087,3,0,1,1033,-4,-1545
1480,17.062755,0,0,1,1031,0,-1548
1481,17.07435,2,0,-1,1031,-2,-1543
1482,17.085982,1,0,-1,1026,0,-1543
1483,17.09754,0,0,0,1031,0,-1548
1484,17.109115,0,-1,1,1029,2,-1542
1485,17.120661,2,0,1,1029,2,-1547
1486,17.132206,-1,-1,-1,1033,-3,-1541
1487,17.143761,-1,-1,0,1033,2,-1545
1488,17.155343,1,-2,-1,1033,0,-1537
1489,17.167032,-1,-1,-3,1036,1,-1542
1490,17.178745,1,2,1,1030,-5,-1542
1491,17.190379,0,0,0,1030,-3,-1547
1492,17.202102,1,-1,-1,1033,0,-1545
1493,17.213748,0,0,-1,1032,1,-1539
1494,17.225416,1,0,0,1032,0,-1540
1495,17.237085,-1,1,-1,1032,2,-1543
1496,17.248725,2,1,0,1033,-3,-1543
1497,17.260376,3,-1,1,1033,0,-1545
1498,17.272025,-1,0,-2,1032,0,-1542
1499,17.283566,-2,0,0,1034,0,-1540
1500,17.295114,-2,2,1,1035,-4,-1545
1501,17.306664,0,0,0,1033,-3,-1538
1502,17.318226,1,0,-1,1035,-2,-1547
1503,17.32978,0,1,0,1030,-2,-1547
1504,17.341335,0,0,0,1033,2,-1539
1505,17.352884,0,-1,1,1033,2,-1537
1506,17.364475,-1,-3,0,1033,0,-1542
1507,17.376104,-1,0,0,1033,2,-1543
1508,17.387782,0,0,-2,1033,0,-1539
1509,17.399446,-1,0,0,1035,2,-1542
1510,17.411126,0,0,-1,1029,-2,-1543
1511,17.422804,0,1,-1,1035,-5,-1536
1512,17.434449,-1,-1,0,1031,1,-1545
1513,17.446116,0,1,0,1033,-4,-1550
1514,17.457811,-1,0,1,1034,0,-1544
1515,17.469466,2,0,-1,1031,0,-1545
1516,17.48114,-1,2,-1,1032,1,-1542
1517,17.492828,2,-1,2,1029,0,-1541
1518,17.504463,-2,0,0,1032,3,-1544
1519,17.51611,0,0,-1,1035,2,-1541
1520,17.527783,0,0,-2,1030,0,-1548
1521,17.539438,0,-2,-1,1033,2,-1547
1522,17.551118,-1,1,2,1032,0,-1547
1523,17.562799,0,0,1,1032,4,-1542
1524,17.574542,1,-1,-2,1033,0,-1544
1525,17.586221,2,-1,0,1031,0,-1543
1526,17.597781,1,2,-2,1033,-2,-1544
1527,17.609365,2,0,1,1033,-1,-1546
1528,17.620916,1,3,1,1033,3,-1542
1529,17.632492,-1,0,-1,1033,2,-1545
1530,17.644037,1,-1,-1,1031,-3,-1543
1531,17.65558,0,0,1,1032,-2,-1547
1532,17.667133,1,-1,-1,1035,0,-1537
1533,17.678715,-2,-1,1,1032,1,-1538
1534,17.690377,2,2,-1,1034,2,-1543
1535,17.702048,1,-1,0,1034,0,-1541
1536,17.713707,1,-1,-2,1032,0,-1545
1537,17.725363,-2,1,-2,1031,0,-1547
1538,17.737055,0,3,-1,1033,0,-1544
1539,17.748708,-1,2,0,1033,0,-1541
1540,17.760354,-1,-1,1,1030,-2,-1542
1541,17.772024,1,0,1,1033,-1,-1546
1542,17.783691,0,1,1,1033,-2,-1542
1543,17.795397,1,2,-1,1031,0,-1551
1544,17.807061,-1,1,-2,1029,2,-1544
1545,17.818739,0,2,0,1036,2,-1545
1546,17.830372,0,1,0,1032,1,-1542
1547,17.842019,2,-1,0,1033,-3,-1536
1548,17.853701,0,1,0,1033,-1,-1539
1549,17.865341,-1,0,0,1030,3,-1536
1550,17.876987,-1,-3,-1,1032,0,-1544
1551,17.88868,0,0,0,1034,1,-1543
1552,17.90033,0,-1,0,1031,1,-1538
1553,17.912013,1,-1,-2,1033,0,-1547
1554,17.923682,-1,-3,0,1031,0,-1544
1555,17.935332,0,2,0,1030,0,-1546
1556,17.947003,1,1,1,1026,0,-1542
1557,17.958682,1,1,1,1034,-3,-1544
1558,17.970351,0,1,1,1031,0,-1547
1559,17.981999,2,1,-1,1029,-2,-1542
1560,17.993691,0,-1,-2,1033,4,-1541
1561,18.005347,0,0,2,1032,0,-1539
1562,18.016912,0,-2,1,1028,0,-1547
1563,18.028509,-2,0,3,1031,-2,-1546
1564,18.040066,0,-2,1,1033,1,-1542
1565,18.051632,-2,-2,-1,1034,0,-1544
1566,18.063198,-1,-1,0,1032,0,-1548
1567,18.074757,0,0,0,1030,-2,-1544
1568,18.086335,0,0,2,1032,-1,-1550
1569,18.097899,0,0,0,1035,-1,-1542
1570,18.109549,0,1,0,1032,-2,-1547
1571,18.121198,1,0,1,1036,0,-1543
1572,18.132851,0,0,1,1035,-5,-1551
1573,18.14453,1,1,0,1034,-4,-1547
1574,18.156179,2,-1,-1,1035,0,-1543
1575,18.167835,0,-1,1,1033,1,-1544
1576,18.179539,0,0,2,1030,1,-1542
1577,18.193571,0,0,0,1032,-3,-1544
1578,18.205275,0,-1,0,1030,0,-1547
1579,18.216978,0,0,2,1036,-2,-1540
1580,18.22854,0,1,1,1033,5,-1540
1581,18.240132,0,0,3,1030,1,-1543
1582,18.251676,0,1,0,1031,-1,-1542
1583,18.263235,0,0,-1,1034,1,-1548
1584,18.274811,2,0,0,1035,-3,-1542
1585,18.286353,-1,0,2,1033,1,-1548
1586,18.29791,1,-1,1,1032,1,-1539
1587,18.30952,0,1,-2,1029,1,-1542
1588,18.321172,1,-1,0,1033,-3,-1540
1589,18.332838,0,2,-1,1031,3,-1541
1590,18.34452,1,2,1,1029,2,-1547
1591,18.356176,1,-1,0,1033,1,-1543
1592,18.367831,-1,1,-1,1032,0,-1550
1593,18.379542,2,2,-2,1031,-3,-1542
1594,18.391198,1,2,-2,1031,1,-1549
1595,18.402876,0,-2,1,1032,-2,-1540
1596,18.41458,0,0,-2,1031,2,-1539
1597,18.426237,0,0,1,1035,0,-1546
1598,18.437797,1,-1,1,1029,2,-1543
1599,18.449367,-2,0,0,1030,0,-1542
1600,18.460916,1,1,1,1033,-2,-1546
1601,18.472484,0,-1,-2,1031,1,-1546
1602,18.484046,2,1,1,1033,0,-1544
1603,18.49559,1,2,3,1034,-5,-1542
1604,18.507139,1,2,0,1032,0,-1546
1605,18.518715,2,0,0,1034,1,-1538
1606,18.530372,-1,-1,1,1033,1,-1546
1607,18.542034,1,2,0,1033,-3,-1546
1608,18.553689,0,0,1,1033,-3,-1539
1609,18.565327,1,-1,0,1033,-1,-1546
1610,18.576974,2,0,-1,1033,-3,-1541
1611,18.588647,1,1,1,1033,2,-1541
1612,18.600317,0,-1,2,1035,2,-1549
1613,18.611967,0,0,0,1031,1,-1554
1614,18.62365,0,2,-1,1029,2,-1539
1615,18.635311,0,1,1,1033,0,-1539
1616,18.646876,2,1,0,1035,2,-1541
1617,18.658497,1,1,2,1032,0,-1542
1618,18.670057,0,2,0,1032,0,-1551
1619,18.681622,2,0,2,1031,0,-1546
1620,18.693169,0,-1,0,1029,-2,-1539
1621,18.704721,0,-1,1,1030,-3,-1541
1622,18.716273,0,0,2,1039,-2,-1549
1623,18.727853,0,1,2,1034,0,-1538
1624,18.739551,0,0,-1,1032,-2,-1546
1625,18.751214,1,-1,0,1033,0,-1543
1626,18.762888,0,1,1,1031,0,-1545
1627,18.774553,1,3,0,1035,0,-1541
1628,18.786232,0,0,2,1032,-5,-1537
1629,18.797909,2,1,0,1033,1,-1546
1630,18.809554,0,-1,1,1033,0,-1541
1631,18.821203,0,1,0,1031,5,-1544
1632,18.832883,1,-1,0,1032,4,-1539
1633,18.844544,1,-2,1,1034,-2,-1539
1634,18.856217,2,1,1,1027,1,-1542
1635,18.867876,1,2,0,1031,-2,-1544
1636,18.879529,-2,-1,0,1030,-2,-1547
1637,18.89119,0,2,-1,1033,2,-1546
1638,18.902861,0,1,0,1031,-2,-1540
1639,18.914531,-1,0,-1,1032,-1,-1539
1640,18.926187,-1,1,2,1034,0,-1547
1641,18.937843,1,1,0,1030,-2,-1546
1642,18.94952,4,-1,-2,1032,-2,-1542
1643,18.961096,-2,-1,1,1033,0,-1541
1644,18.972662,1,-3,2,1033,-3,-1542
1645,18.984215,1,0,-1,1030,3,-1538
1646,18.99576,1,2,-2,1030,0,-1547
1647,19.007304,1,1,-1,1032,0,-1540
1648,19.018869,1,-1,0,1034,-2,-1547
1649,19.03042,1,-2,1,1032,0,-1552
1650,19.041978,0,1,0,1034,-2,-1540
1651,19.053541,2,0,0,1033,2,-1543
1652,19.065109,2,0,0,1033,2,-1544
1653,19.076704,1,2,-2,1032,-1,-1542
1654,19.088257,-1,-1,1,1032,0,-1546
1655,19.0998,2,-1,2,1035,0,-1546
1656,19.111359,0,2,-1,1034,-3,-1546
1657,19.122964,2,-1,2,1033,-2,-1548
1658,19.134513,2,0,0,1033,-1,-1541
1659,19.146131,0,3,-2,1032,-2,-1541
1660,19.157776,0,0,0,1032,0,-1547
1661,19.169451,1,2,0,1034,0,-1543
1662,19.1811,2,0,-1,1031,-4,-1540
1663,19.192759,1,0,0,1033,0,-1542
1664,19.204414,0,-1,2,1028,1,-1556
1665,19.216058,2,-1,0,1031,0,-1543
1666,19.227739,0,0,2,1031,4,-1546
1667,19.239432,-1,0,0,1033,-2,-1541
1668,19.251116,2,1,1,1033,-4,-1546
1669,19.262788,1,-1,2,1033,-4,-1551
1670,19.27445,0,1,0,1031,0,-1543
1671,19.286114,-1,1,0,1033,2,-1548
1672,19.29777,-1,2,0,1037,-1,-1537
1673,19.309426,0,1,1,1033,-1,-1547
1674,19.321067,0,1,-3,1036,0,-1541
1675,19.332713,1,2,0,1033,-4,-1543
1676,19.344401,0,3,0,1034,2,-1544
1677,19.356082,2,2,0,1035,-2,-1551
1678,19.367756,2,1,0,1029,-3,-1545
1679,19.379407,-1,1,-1,1031,0,-1544
1680,19.391066,1,0,1,1032,3,-1546
1681,19.402754,0,-1,1,1029,0,-1548
1682,19.414418,1,1,4,1030,1,-1547
1683,19.426098,1,-1,-2,1033,0,-1551
1684,19.437764,0,1,3,1033,0,-1541
1685,19.449417,2,3,1,1031,-2,-1542
1686,19.461081,0,2,0,1035,-3,-1544
1687,19.472755,1,2,0,1031,0,-1549
1688,19.484407,2,0,-2,1033,4,-1550
1689,19.496056,0,1,1,1032,5,-1544
1690,19.507721,1,1,0,1034,0,-1544
1691,19.519393,0,0,-1,1035,3,-1543
1692,19.531055,1,-1,2,1035,-4,-1546
1693,19.542728,1,-1,-1,1036,2,-1541
1694,19.554376,1,-1,-2,1032,0,-1542
1695,19.566039,1,1,-1,1034,-1,-1544
1696,19.577697,1,-2,-1,1034,0,-1543
1697,19.589346,1,2,0,1034,0,-1541
1698,19.601024,0,0,1,1035,0,-1547
1699,19.612679,2,-3,2,1031,0,-1540
1700,19.624344,-1,1,-1,1033,0,-1542
1701,19.636011,2,1,1,1030,0,-1537
1702,19.647662,3,1,1,1031,-3,-1547
1703,19.659333,0,0,0,1027,-4,-1543
1704,19.671047,1,0,-1,1033,0,-1543
1705,19.6827,1,1,-1,1034,2,-1550
1706,19.694379,0,2,-1,1033,0,-1546
1707,19.706025,1,-1,0,1034,0,-1544
1708,19.717692,-2,-1,-1,1033,0,-1546
1709,19.729364,1,-1,1,1033,-1,-1550
1710,19.741015,1,0,0,1033,-1,-1544
1711,19.752667,1,2,0,1033,0,-1542
1712,19.764328,1,1,1,1032,0,-1546
1713,19.776015,-1,0,1,1032,-2,-1544
1714,19.787584,0,0,1,1035,0,-1543
1715,19.79914,-2,1,0,1036,2,-1544
1716,19.810714,1,0,0,1033,1,-1540
1717,19.82226,0,1,3,1034,0,-1543
1718,19.833818,1,-1,0,1035,0,-1547
1719,19.84536,2,-3,1,1033,1,-1545
1720,19.856906,2,0,0,1030,-4,-1546
1721,19.868449,-1,1,1,1033,6,-1545
1722,19.880019,1,-1,1,1033,-4,-1549
1723,19.891674,-2,0,1,1033,-1,-1545
1724,19.903323,0,4,0,1031,-2,-1539
1725,19.915003,0,0,2,1032,-1,-1540
1726,19.926637,0,1,0,1033,3,-1540
1727,19.93829,1,0,0,1033,1,-1542
1728,19.949938,-2,1,2,1033,1,-1546
1729,19.961607,0,0,-1,1027,0,-1545
1730,19.973291,0,3,0,1033,1,-1543
1731,19.984941,1,-2,1,1033,1,-1548
1732,19.996612,2,0,-2,1036,0,-1544
1733,20.008264,0,-1,1,1033,2,-1543
1734,20.019913,2,0,0,1035,-1,-1539
1735,20.031593,-2,0,-1,1033,2,-1545
1736,20.04328,-1,1,1,1033,0,-1542
1737,20.054928,0,1,1,1034,-1,-1549
1738,20.066617,2,-1,-1,1030,-4,-1549
1739,20.078339,0,1,-1,1033,-3,-1546
1740,20.090019,-1,1,-2,1030,-1,-1540
1741,20.101591,-1,0,-1,1033,1,-1551
1742,20.113172,1,0,0,1028,-1,-1535
1743,20.124725,1,-2,-1,1032,-2,-1543
1744,20.136297,-1,0,0,1033,0,-1544
1745,20.147847,0,0,0,1031,0,-1549
1746,20.159466,0,1,0,1032,-1,-1539
1747,20.17107,0,0,-1,1034,0,-1546
1748,20.182596,0,-2,1,1033,2,-1542
1749,20.194294,2,-1,-1,1037,2,-1547
1750,20.205949,1,-1,0,1034,-1,-1541
1751,20.217622,0,4,3,1032,0,-1546
1752,20.229273,0,-1,0,1032,-5,-1545
1753,20.240911,0,-1,1,1033,0,-1544
1754,20.25256,1,1,2,1031,-2,-1546
1755,20.264255,-2,0,0,1030,-2,-1545
1756,20.275892,-1,-1,1,1033,0,-1549
1757,20.287555,-1,0,-2,1033,0,-1552
1758,20.29925,-1,1,2,1033,1,-1543
1759,20.310835,0,-1,-1,1029,1,-1546
1760,20.322392,-1,0,2,1029,0,-1546
1761,20.33395,0,0,0,1034,4,-1542
1762,20.345546,1,2,3,1034,1,-1542
1763,20.3571,0,1,2,1030,-1,-1550
1764,20.368687,4,1,1,1032,0,-1547
1765,20.380233,0,-1,-1,1033,0,-1548
1766,20.391826,2,0,1,1030,0,-1546
1767,20.403475,0,0,1,1035,0,-1541
1768,20.415145,0,1,-1,1031,2,-1538
1769,20.4268,0,1,1,1032,0,-1544
1770,20.438448,-1,-1,0,1030,0,-1552
1771,20.450114,0,-2,1,1033,1,-1545
1772,20.461776,2,1,0,1032,-4,-1546
1773,20.473427,0,-1,0,1033,2,-1542
1774,20.485102,1,-1,-1,1031,1,-1549
1775,20.496765,1,4,0,1036,1,-1548
1776,20.508414,0,-1,1,1031,4,-1547
1777,20.520008,2,-1,1,1035,-2,-1539
1778,20.531576,1,0,1,1035,7,-1540
1779,20.543127,1,0,1,1031,-2,-1545
1780,20.554707,1,-1,0,1032,-5,-1539
1781,20.56628,1,1,2,1033,2,-1544
1782,20.577834,1,-1,0,1032,1,-1546
1783,20.589418,1,3,2,1033,0,-1542
1784,20.600986,1,0,-3,1032,-4,-1542
1785,20.612623,0,1,-1,1037,0,-1545
1786,20.624283,2,1,-1,1035,-2,-1545
1787,20.635933,0,2,0,1032,-3,-1543
1788,20.647598,1,-4,0,1031,-1,-1539
1789,20.659275,-1,1,-1,1035,-3,-1548
1790,20.670959,0,1,0,1030,1,-1542
1791,20.682633,1,1,1,1033,3,-1552
1792,20.694296,2,-2,1,1031,0,-1546
1793,20.706003,-1,1,0,1029,-1,-1545
1794,20.717681,2,1,1,1033,2,-1543
1795,20.729251,0,0,1,1033,2,-1547
1796,20.740807,0,-1,1,1033,0,-1549
1797,20.752364,-1,-1,0,1031,-6,-1549
1798,20.763943,0,0,0,1027,2,-1544
1799,20.775498,0,0,-1,1033,5,-1545
1800,20.787065,0,1,0,1032,-2,-1542
1801,20.79858,-2,0,1,1027,-3,-1543
1802,20.810106,1,-2,0,1031,-1,-1538
1803,20.821759,0,0,-1,1033,0,-1545
1804,20.833408,1,1,-1,1031,1,-1548
1805,20.845056,-1,0,0,1037,-1,-1543
1806,20.856744,0,0,1,1033,-3,-1543
1807,20.868384,1,-1,1,1033,-1,-1544
1808,20.880034,1,0,-2,1037,-1,-1546
1809,20.891729,0,-2,-1,1032,0,-1543
1810,20.903405,0,0,1,1033,-1,-1548
1811,20.915097,0,0,0,1030,0,-1551
1812,20.926751,0,-1,0,1033,1,-1539
1813,20.93835,1,0,1,1030,-2,-1541
1814,20.94994,0,0,-1,1033,0,-1543
1815,20.961495,0,-1,1,1033,-3,-1542
1816,20.973056,1,0,-1,1036,-2,-1541
1817,20.984601,0,0,-1,1030,1,-1546
1818,20.996159,1,-2,2,1033,0,-1544
1819,21.00771,0,-1,1,1033,0,-1542
1820,21.019308,2,0,0,1031,1,-1547
1821,21.031021,1,1,0,1032,1,-1547
1822,21.042705,-1,3,-1,1037,-2,-1543
1823,21.054371,-1,1,0,1030,-1,-1546
1824,21.066029,1,0,0,1029,0,-1544
1825,21.077678,1,0,1,1035,0,-1543
1826,21.089379,1,1,0,1031,0,-1541
1827,21.101027,2,2,-2,1033,3,-1542
1828,21.112679,1,-2,1,1032,0,-1547
1829,21.124365,1,-1,1,1034,-4,-1545
1830,21.136023,0,2,1,1033,1,-1546
1831,21.147587,2,0,1,1029,0,-1552
1832,21.159167,0,0,0,1031,0,-1546
1833,21.170719,0,-2,-1,1030,0,-1541
1834,21.182278,2,-2,0,1030,-1,-1541
1835,21.193843,1,1,1,1031,0,-1557
1836,21.205388,0,0,-1,1033,1,-1551
1837,21.216932,3,0,0,1035,0,-1541
1838,21.228514,0,2,2,1032,0,-1548
1839,21.240129,1,1,-1,1032,0,-1547
1840,21.251792,1,1,1,1031,1,-1546
1841,21.263464,1,-1,1,1036,0,-1541
1842,21.275134,1,0,0,1032,0,-1540
1843,21.286851,1,0,2,1031,0,-1536
1844,21.298633,0,0,-1,1030,-1,-1546
1845,21.310312,1,0,1,1033,-1,-1546
1846,21.321976,1,0,1,1035,-3,-1543
1847,21.33365,-1,2,-1,1031,0,-1543
1848,21.345336,1,-3,0,1035,1,-1551
1849,21.356986,0,2,1,1031,0,-1542
1850,21.36864,1,0,-1,1031,2,-1546
1851,21.380306,0,2,-1,1032,-3,-1542
1852,21.391968,0,2,0,1028,1,-1541
1853,21.403652,-1,4,-2,1031,-2,-1539
1854,21.415308,1,0,0,1034,-1,-1539
1855,21.426965,1,0,-1,1031,-2,-1547
1856,21.438665,1,0,-1,1032,1,-1542
1857,21.450401,0,0,-1,1033,-3,-1544
1858,21.462103,-2,2,-1,1031,0,-1551
1859,21.473746,1,0,0,1036,-1,-1544
1860,21.485391,-1,-1,0,1033,0,-1544
1861,21.49706,1,1,-2,1034,1,-1544
1862,21.508717,1,1,0,1034,-1,-1542
1863,21.52037,1,1,1,1029,-4,-1546
1864,21.532042,1,1,0,1029,1,-1544
1865,21.543799,2,0,0,1032,-1,-1539
1866,21.555438,-2,-1,-1,1036,1,-1544
1867,21.567006,1,-1,-1,1033,-4,-1545
1868,21.578581,1,-1,-2,1033,1,-1540
1869,21.590102,-1,1,1,1030,0,-1547
1870,21.601656,1,-1,1,1028,0,-1539
1871,21.613213,0,1,-1,1032,-1,-1543
1872,21.624783,2,-2,0,1031,-1,-1539
1873,21.636332,-1,1,0,1035,-1,-1544
1874,21.647918,-1,0,1,1033,-2,-1538
1875,21.659588,0,1,-2,1031,0,-1541
1876,21.671291,1,-2,-2,1035,0,-1547
1877,21.683004,1,0,0,1030,0,-1545
1878,21.694628,1,0,-1,1030,3,-1545
1879,21.706287,0,-1,2,1031,-1,-1541
1880,21.717961,3,1,1,1034,1,-1547
1881,21.729603,3,2,-1,1033,1,-1537
1882,21.741252,1,0,0,1033,0,-1545
1883,21.752942,-1,-2,0,1032,3,-1539
1884,21.764602,0,-1,2,1031,-4,-1544
1885,21.776167,0,0,0,1029,0,-1546
1886,21.787712,0,-1,1,1033,0,-1539
1887,21.799295,-1,1,-1,1035,-3,-1553
1888,21.810828,1,-1,0,1033,-2,-1544
1889,21.822407,0,1,-1,1029,0,-1542
1890,21.833966,0,-2,2,1032,0,-1542
1891,21.845534,0,2,3,1035,2,-1545
1892,21.857093,2,4,0,1033,-1,-1541
1893,21.868719,1,2,-1,1030,-1,-1543
1894,21.880376,0,0,1,1030,1,-1552
1895,21.892023,1,1,2,1036,0,-1542
1896,21.903674,0,-2,-1,1033,-2,-1549
1897,21.915342,0,-1,2,1033,0,-1544
1898,21.927025,-1,-1,-2,1037,-1,-1543
1899,21.938699,2,0,2,1033,1,-1542
1900,21.950375,1,2,3,1030,-2,-1543
1901,21.962038,0,-1,-1,1031,1,-1539
1902,21.973584,0,0,-1,1032,-2,-1539
1903,21.985134,0,-3,-2,1031,0,-1546
1904,21.996685,1,1,-1,1029,1,-1542
1905,22.008263,2,-1,-2,1034,-2,-1542
1906,22.01981,0,-2,0,1033,-1,-1538
1907,22.031398,0,-1,2,1033,0,-1543
1908,22.042958,0,3,1,1032,1,-1535
1909,22.05451,-1,-1,0,1030,-1,-1543
1910,22.066093,1,1,0,1032,3,-1548
1911,22.077712,0,2,-1,1033,2,-1543
1912,22.089379,-1,2,0,1035,-1,-1548
1913,22.101025,-1,1,1,1031,1,-1539
1914,22.112684,1,0,-1,1028,-1,-1542
1915,22.124337,1,-1,0,1028,-4,-1547
1916,22.136004,-1,0,1,1033,0,-1541
1917,22.147654,2,-2,0,1034,0,-1544
1918,22.159334,-1,0,2,1035,-1,-1544
1919,22.171063,-2,2,-1,1031,-1,-1542
1920,22.182741,0,1,0,1031,-1,-1538
1921,22.19435,0,1,-1,1031,0,-1542
1922,22.205914,1,-1,1,1033,0,-1542
1923,22.217476,0,-1,-2,1032,-3,-1546
1924,22.229029,0,0,-1,1032,-3,-1543
1925,22.240576,2,2,1,1037,-1,-1542
1926,22.252123,2,2,0,1030,-1,-1538
1927,22.263669,0,-1,2,1034,0,-1544
1928,22.275236,2,-1,-1,1038,0,-1542
1929,22.286877,-1,-2,0,1031,2,-1545
1930,22.298537,1,-1,-2,1033,-2,-1545
1931,22.310242,2,1,0,1031,1,-1541
1932,22.321887,1,1,1,1029,2,-1544
1933,22.333556,1,0,-1,1032,-1,-1545
1934,22.345211,0,0,-1,1034,-1,-1541
1935,22.356847,-1,0,1,1033,0,-1542
1936,22.368497,1,-2,3,1033,-2,-1540
1937,22.380188,0,2,1,1031,0,-1543
1938,22.391838,1,0,1,1032,2,-1537
1939,22.403431,1,1,0,1031,-2,-1544
1940,22.415018,1,-1,-2,1030,0,-1549
1941,22.426587,0,-1,1,1034,-1,-1545
1942,22.438102,0,-1,-1,1033,2,-1550
1943,22.44965,-1,1,1,1037,0,-1545
1944,22.461208,3,0,-1,1033,0,-1550
1945,22.472764,0,1,-1,1033,-2,-1546
1946,22.484321,1,1,0,1034,0,-1546
1947,22.495943,2,0,0,1033,-3,-1542
1948,22.507604,0,1,0,1032,-5,-1544
1949,22.519272,0,-1,1,1035,-1,-1545
1950,22.530929,2,2,1,1039,-1,-1543
1951,22.542607,0,0,-1,1034,-1,-1542
1952,22.554253,1,-2,-1,1031,-1,-1546
1953,22.565919,0,-1,-1,1031,1,-1544
1954,22.577648,1,1,-1,1033,0,-1542
1955,22.589318,0,0,1,1033,1,-1541
1956,22.600878,0,0,0,1034,1,-1547
1957,22.612431,2,2,0,1029,0,-1550
1958,22.624,-1,-3,1,1032,-1,-1545
1959,22.635556,0,1,0,1030,0,-1548
1960,22.647136,-1,2,-1,1033,4,-1540
1961,22.65871,1,0,-1,1033,-3,-1555
1962,22.670269,0,1,-1,1038,4,-1546
1963,22.681837,1,-1,-1,1033,-3,-1548
1964,22.693414,0,-2,-1,1035,-1,-1539
1965,22.705071,-1,1,0,1034,-1,-1551
1966,22.716722,0,1,-1,1033,0,-1540
1967,22.728359,1,0,0,1033,2,-1539
1968,22.740006,0,0,2,1033,0,-1540
1969,22.751679,0,-2,1,1034,0,-1548
1970,22.76332,3,-1,1,1035,-4,-1546
1971,22.774993,0,0,1,1033,-1,-1542
1972,22.786676,0,1,-1,1032,2,-1547
1973,22.798353,1,-2,-1,1033,-3,-1539
1974,22.809913,-2,1,0,1035,0,-1546
1975,22.821488,0,0,1,1030,-2,-1539
1976,22.833031,-1,-2,2,1032,0,-1541
1977,22.844576,3,0,1,1028,-2,-1547
1978,22.856131,0,1,1,1033,0,-1541
1979,22.867675,2,0,0,1035,0,-1544
1980,22.879226,0,3,0,1033,-1,-1542
1981,22.890793,-2,1,1,1031,0,-1542
1982,22.902497,3,-2,-1,1036,1,-1541
1983,22.914193,1,0,1,1036,-1,-1540
1984,22.925835,0,0,-1,1035,2,-1547
1985,22.937509,1,1,-1,1034,-4,-1546
1986,22.949174,0,1,-1,1030,-1,-1545
1987,22.960827,3,0,1,1030,-2,-1541
1988,22.972484,-2,0,0,1032,-1,-1548
1989,22.984137,-1,3,1,1034,0,-1543
1990,22.995821,1,1,1,1036,0,-1543
1991,23.007477,0,1,2,1033,-2,-1547
1992,23.019063,1,-1,0,1033,0,-1543
1993,23.030587,1,0,0,1030,1,-1540
1994,23.042124,1,0,-1,1033,0,-1547
1995,23.053684,0,-1,0,1035,1,-1546
1996,23.065259,1,1,0,1031,0,-1547
1997,23.076862,1,2,-2,1036,0,-1537
1998,23.088509,0,0,-1,1032,0,-1544
1999,23.10004,1,-1,-1,1030,0,-1537
