sample,t_s,gyro_x,gyro_y,gyro_z,accel_x,accel_y,accel_z
0,1e-05,0,7,10,10,32,-1019
1,0.011437,2,5,9,9,32,-1021
2,0.022658,2,7,9,9,31,-1029
3,0.033865,3,5,9,13,31,-1024
4,0.045055,2,5,9,10,32,-1018
5,0.056246,3,6,9,18,31,-1019
6,0.067447,2,5,8,12,29,-1022
7,0.078643,2,6,9,14,33,-1021
8,0.089843,3,6,9,9,29,-1017
9,0.101037,2,6,9,6,31,-1025
10,0.112224,2,4,9,7,27,-1022
11,0.12341,2,4,9,10,33,-1019
12,0.134601,1,5,9,13,26,-1025
13,0.145797,2,6,9,10,29,-1023
14,0.156983,2,7,8,11,34,-1021
15,0.168167,2,6,8,8,30,-1021
16,0.179351,3,6,8,7,32,-1019
17,0.190537,2,6,9,11,35,-1024
18,0.201686,2,6,8,6,30,-1025
19,0.212869,2,6,8,12,31,-1020
20,0.224053,2,5,8,12,30,-1019
21,0.23524,2,6,8,7,33,-1030
22,0.246425,2,6,9,8,29,-1027
23,0.257634,2,7,8,8,31,-1027
24,0.268821,2,6,9,8,34,-1020
25,0.280003,2,6,9,9,34,-1024
26,0.291188,2,7,10,6,33,-1025
27,0.302399,2,7,9,12,29,-1017
28,0.313624,2,6,9,12,31,-1022
29,0.324811,3,7,9,11,28,-1015
30,0.335999,2,7,9,12,28,-1020
31,0.347182,2,6,10,9,29,-1024
32,0.358369,2,6,9,12,32,-1025
33,0.369558,3,6,9,8,29,-1021
34,0.380741,2,7,9,16,32,-1020
35,0.391924,3,7,9,12,34,-1025
36,0.403125,3,6,9,10,33,-1022
37,0.414312,3,7,9,9,28,-1022
38,0.4255,2,6,9,12,36,-1031
39,0.436682,3,6,10,10,31,-1027
40,0.447864,2,7,10,8,33,-1020
41,0.45905,2,7,9,11,28,-1020
42,0.47024,2,7,9,11,31,-1023
43,0.481427,3,6,9,11,30,-1017
44,0.492609,3,7,9,8,32,-1027
45,0.503793,2,7,9,12,34,-1025
46,0.514977,2,7,8,10,32,-1022
47,0.526166,3,7,9,13,32,-1020
48,0.537314,3,7,9,15,28,-1021
49,0.548497,3,7,10,10,33,-1021
50,0.559679,3,8,9,13,29,-1018
51,0.570865,2,7,9,7,29,-1023
52,0.582058,3,6,9,8,30,-1023
53,0.593243,3,7,9,12,27,-1021
54,0.604428,2,7,10,10,30,-1021
55,0.615612,2,6,10,11,32,-1023
56,0.626796,2,7,10,9,28,-1027
57,0.637982,3,7,9,11,32,-1023
58,0.649166,2,7,8,12,29,-1027
59,0.66035,3,6,9,8,31,-1021
60,0.671534,2,6,9,13,30,-1020
61,0.682724,2,7,9,11,30,-1027
62,0.69387,2,7,9,12,32,-1022
63,0.705054,1,6,9,12,31,-1027
64,0.716237,2,6,9,9,31,-1017
65,0.727425,2,5,9,10,34,-1020
66,0.738609,2,6,8,9,31,-1018
67,0.749796,4,6,9,13,31,-1022
68,0.760998,2,6,9,10,33,-1021
69,0.772182,2,7,10,9,32,-1025
70,0.783368,2,6,9,8,33,-1021
71,0.79455,2,5,10,12,30,-1018
72,0.805738,2,6,9,10,33,-1022
73,0.816921,2,7,11,10,32,-1022
74,0.828104,3,7,9,9,30,-1019
75,0.839289,3,6,9,14,29,-1014
76,0.850472,2,7,9,12,31,-1024
77,0.861716,2,7,9,9,31,-1027
78,0.87291,2,5,9,7,29,-1025
79,0.8841,2,5,9,13,30,-1028
80,0.895284,3,6,9,9,29,-1032
81,0.906468,2,6,9,10,31,-1024
82,0.917658,2,5,9,11,33,-1015
83,0.928842,2,6,9,13,30,-1029
84,0.940027,2,5,9,10,33,-1020
85,0.951216,2,5,9,12,28,-1030
86,0.962408,2,8,9,13,29,-1027
87,0.973613,2,5,9,10,32,-1018
88,0.984794,2,5,9,13,35,-1021
89,0.995978,1,5,9,9,34,-1026
90,1.007163,2,7,10,11,30,-1023
91,1.018354,2,5,9,9,31,-1017
92,1.0295,2,5,9,10,28,-1020
93,1.040683,2,6,9,11,28,-1019
94,1.051868,2,6,10,13,30,-1023
95,1.063048,2,6,9,6,28,-1018
96,1.074238,3,6,10,14,30,-1025
97,1.085435,2,7,9,8,34,-1016
98,1.09662,2,5,9,9,33,-1030
99,1.107802,3,6,9,10,32,-1029
100,1.118994,3,6,8,10,28,-1020
101,1.130184,2,6,8,10,27,-1016
102,1.141372,2,5,8,10,27,-1015
103,1.152555,2,5,9,10,30,-1024
104,1.163737,2,5,9,12,27,-1018
105,1.174918,2,5,8,12,29,-1021
106,1.186102,1,5,9,11,31,-1023
107,1.197283,1,6,9,10,34,-1019
108,1.20847,3,6,9,9,30,-1017
109,1.219651,3,6,8,8,30,-1015
110,1.230835,3,7,9,10,30,-1029
111,1.24202,2,8,9,11,30,-1016
112,1.253217,2,7,8,13,34,-1016
113,1.264524,1,7,9,9,31,-1020
114,1.275814,2,6,8,9,28,-1021
115,1.287006,1,4,8,10,29,-1019
116,1.298199,2,5,9,12,30,-1020
117,1.30939,3,6,8,11,28,-1025
118,1.320576,3,6,8,11,28,-1023
119,1.331763,2,6,8,11,29,-1020
120,1.342949,3,7,9,10,31,-1017
121,1.354143,3,7,9,6,29,-1032
122,1.365311,3,6,9,11,32,-1022
123,1.376493,2,6,9,12,33,-1018
124,1.387674,1,6,9,12,31,-1021
125,1.398858,2,5,9,10,33,-1025
126,1.410051,2,5,9,12,27,-1024
127,1.421231,2,5,10,11,33,-1026
128,1.432414,2,5,8,14,31,-1025
129,1.443601,2,5,10,10,30,-1016
130,1.454782,3,6,10,10,33,-1017
131,1.465981,2,5,10,10,26,-1017
132,1.477191,2,5,10,16,32,-1025
133,1.488374,3,5,10,13,32,-1022
134,1.499556,2,7,9,14,34,-1022
135,1.510741,2,8,9,8,29,-1027
136,1.521929,2,6,9,4,32,-1022
137,1.533113,2,7,8,12,28,-1025
138,1.544297,3,7,8,9,33,-1030
139,1.55548,3,7,9,12,32,-1020
140,1.566663,3,6,8,10,24,-1021
141,1.577859,2,7,8,10,28,-1016
142,1.589042,3,6,9,10,28,-1031
143,1.600234,2,7,9,12,33,-1020
144,1.611418,3,7,10,11,27,-1019
145,1.622603,3,7,9,12,29,-1019
146,1.633797,2,7,9,5,33,-1019
147,1.64498,2,7,9,14,32,-1024
148,1.65616,2,7,9,12,31,-1023
149,1.667346,2,8,9,10,29,-1024
150,1.678545,2,5,10,12,29,-1024
151,1.68973,3,5,9,13,32,-1021
152,1.700913,2,4,9,10,32,-1022
153,1.712093,3,6,9,12,34,-1025
154,1.72328,3,7,9,7,40,-1023
155,1.734468,2,7,9,12,32,-1027
156,1.745652,2,6,9,8,28,-1023
157,1.756837,2,6,8,11,29,-1021
158,1.768028,2,5,8,12,30,-1024
159,1.779218,3,6,9,10,30,-1021
160,1.790415,2,6,9,7,28,-1025
161,1.801611,3,6,9,9,29,-1023
162,1.812797,2,6,9,9,33,-1022
163,1.823978,3,6,9,15,31,-1024
164,1.835174,3,6,9,11,27,-1019
165,1.846361,2,6,9,11,33,-1025
166,1.857549,2,6,9,11,31,-1027
167,1.868732,2,6,9,12,29,-1023
168,1.879917,2,7,9,11,31,-1028
169,1.891102,3,7,10,8,31,-1020
170,1.902288,3,6,9,10,30,-1019
171,1.913476,3,6,10,8,31,-1032
172,1.92466,2,6,9,7,31,-1024
173,1.935845,2,7,9,8,29,-1024
174,1.947029,2,7,10,9,30,-1019
175,1.958212,3,8,9,7,30,-1030
176,1.969397,3,7,9,10,30,-1013
177,1.980581,3,6,8,12,31,-1023
178,1.991766,3,6,8,10,28,-1023
179,2.002948,3,7,7,8,27,-1021
180,2.014139,2,6,8,9,34,-1025
181,2.025315,3,7,8,10,31,-1021
182,2.036499,2,5,8,10,30,-1025
183,2.047686,2,4,9,11,28,-1024
184,2.058871,2,4,9,7,30,-1026
185,2.070052,2,5,9,11,28,-1028
186,2.081239,2,5,10,13,31,-1016
187,2.092421,2,6,9,12,30,-1018
188,2.103605,2,6,10,11,32,-1025
189,2.114796,3,5,9,9,33,-1022
190,2.125987,2,6,9,12,32,-1029
191,2.137173,2,6,9,7,33,-1020
192,2.148358,2,5,9,10,32,-1022
193,2.159541,2,5,9,13,37,-1029
194,2.170724,2,6,9,11,34,-1026
195,2.181863,3,6,9,12,27,-1021
196,2.193054,3,6,9,10,32,-1030
197,2.204236,2,6,9,12,31,-1020
198,2.215418,2,6,9,10,31,-1023
199,2.2266,2,6,9,6,27,-1018
200,2.237794,3,6,10,12,30,-1024
201,2.248974,2,6,9,9,30,-1027
202,2.260156,2,8,8,8,32,-1014
203,2.271344,2,7,8,12,30,-1023
204,2.282526,2,6,9,6,32,-1026
205,2.293679,3,6,8,8,34,-1022
206,2.304862,2,7,8,11,31,-1025
207,2.316044,3,7,8,10,33,-1019
208,2.32724,3,6,8,11,34,-1026
209,2.338425,2,6,9,16,32,-1026
210,2.349612,2,7,9,11,34,-1025
211,2.360796,1,7,10,11,33,-1018
212,2.371981,2,7,9,10,29,-1027
213,2.383166,3,8,9,13,31,-1023
214,2.394363,2,5,8,10,32,-1026
215,2.405551,2,5,9,10,28,-1022
216,2.416735,2,6,10,9,31,-1022
217,2.427917,3,6,9,12,31,-1019
218,2.439102,2,7,9,12,30,-1020
219,2.450286,2,5,9,11,31,-1019
220,2.461474,2,7,9,7,34,-1020
221,2.472657,3,7,9,11,32,-1023
222,2.483841,3,6,9,17,27,-1022
223,2.495021,2,6,9,11,29,-1024
224,2.506206,3,6,9,12,29,-1024
225,2.517389,2,6,8,9,31,-1026
226,2.528576,2,7,8,12,29,-1021
227,2.539766,2,6,9,8,27,-1026
228,2.550962,2,7,9,8,27,-1026
229,2.562149,3,6,9,11,31,-1023
230,2.57331,3,6,10,10,29,-1020
231,2.58449,3,6,10,9,27,-1027
232,2.595672,2,6,9,7,30,-1024
233,2.606853,3,6,9,7,31,-1026
234,2.618051,2,5,9,9,30,-1020
235,2.629241,2,5,10,6,32,-1021
236,2.640423,2,5,9,9,31,-1026
237,2.651606,2,6,9,7,33,-1023
238,2.662787,2,6,9,8,30,-1021
239,2.673979,2,5,9,8,32,-1019
240,2.685165,1,5,9,10,35,-1018
241,2.696349,2,5,9,6,29,-1024
242,2.707533,2,5,9,9,33,-1020
243,2.718722,2,6,10,12,29,-1020
244,2.72987,2,6,9,10,30,-1023
245,2.741052,2,6,9,10,29,-1018
246,2.752236,2,6,10,10,29,-1018
247,2.763418,2,6,10,13,31,-1023
248,2.774602,3,7,10,12,33,-1017
249,2.785793,3,6,9,9,30,-1024
250,2.796978,2,7,9,9,33,-1021
251,2.808159,2,7,9,12,31,-1023
252,2.819346,2,7,9,13,31,-1026
253,2.830528,3,7,8,10,31,-1017
254,2.841685,2,7,8,13,28,-1020
255,2.852865,2,7,9,11,23,-1019
256,2.864047,3,7,9,12,32,-1019
257,2.875243,3,6,9,7,32,-1028
258,2.886427,2,6,10,10,30,-1020
259,2.897613,2,7,9,9,30,-1024
260,2.908807,2,7,9,11,32,-1023
261,2.919993,1,6,9,13,33,-1024
262,2.931176,3,6,10,10,31,-1019
263,2.942363,2,5,9,10,34,-1027
264,2.95355,2,6,9,8,33,-1017
265,2.964733,2,6,9,13,34,-1026
266,2.975917,2,6,8,10,31,-1025
267,2.987101,2,6,9,6,28,-1019
268,2.998286,3,6,9,11,26,-1020
269,3.00947,2,7,9,8,32,-1023
270,3.020654,2,6,9,12,30,-1017
271,3.031848,3,6,9,10,30,-1025
272,3.043033,1,5,10,10,30,-1021
273,3.05423,3,5,9,10,33,-1013
274,3.065419,2,5,10,10,30,-1024
275,3.076601,2,4,9,9,29,-1019
276,3.087785,2,5,9,9,28,-1023
277,3.098971,2,5,10,10,30,-1025
278,3.11016,2,5,9,9,33,-1018
279,3.121314,2,5,8,15,32,-1023
280,3.132495,2,5,8,11,32,-1024
281,3.143679,3,5,9,11,33,-1024
282,3.15486,2,5,8,11,29,-1022
283,3.166051,2,5,8,8,30,-1018
284,3.177232,2,5,9,8,32,-1018
285,3.188412,2,6,9,13,30,-1023
286,3.199592,3,6,9,14,33,-1017
287,3.210775,3,8,9,9,30,-1025
288,3.221973,2,6,10,7,30,-1023
289,3.233154,2,7,10,8,29,-1026
290,3.244341,2,5,9,6,27,-1019
291,3.255546,2,6,9,10,28,-1020
292,3.266741,2,7,9,8,31,-1023
293,3.277927,2,6,9,11,33,-1020
294,3.28911,2,6,9,9,29,-1021
295,3.30029,3,6,8,12,32,-1025
296,3.311477,3,7,9,10,29,-1021
297,3.32266,2,6,9,10,30,-1023
298,3.333857,3,7,9,14,29,-1020
299,3.345042,2,6,8,11,32,-1018
300,3.356225,3,7,9,9,30,-1025
301,3.36741,2,7,9,10,31,-1018
302,3.378597,2,7,9,10,31,-1021
303,3.389788,2,7,8,8,33,-1013
304,3.400977,3,6,9,11,31,-1019
305,3.41216,2,6,9,9,31,-1024
306,3.423352,3,7,9,16,29,-1021
307,3.434558,2,6,9,11,30,-1020
308,3.445749,2,7,9,11,30,-1021
309,3.456951,2,6,8,7,30,-1018
310,3.468139,2,6,9,12,32,-1020
311,3.479337,2,5,9,8,28,-1020
312,3.490523,2,6,8,7,32,-1021
313,3.50168,2,7,8,10,32,-1020
314,3.512873,2,6,9,7,29,-1021
315,3.524054,2,7,9,9,29,-1025
316,3.535245,2,7,8,12,29,-1022
317,3.546433,3,7,8,9,28,-1026
318,3.557631,2,6,9,12,31,-1020
319,3.568821,2,6,8,11,26,-1024
320,3.580003,2,4,9,11,31,-1026
321,3.59119,2,5,9,7,31,-1017
322,3.602378,2,5,9,12,31,-1025
323,3.613575,2,5,9,6,31,-1020
324,3.624761,2,6,9,6,30,-1019
325,3.635951,2,6,9,7,30,-1028
326,3.64716,2,6,9,10,29,-1027
327,3.658354,2,7,8,9,34,-1025
328,3.669495,2,7,9,9,34,-1016
329,3.680677,3,6,9,10,28,-1019
330,3.691861,2,5,9,11,32,-1022
331,3.703045,1,5,9,9,33,-1025
332,3.714235,2,6,8,15,33,-1022
333,3.725426,2,6,9,14,32,-1025
334,3.736607,2,5,9,8,32,-1019
335,3.74779,2,4,9,10,30,-1022
336,3.758978,2,4,9,8,33,-1021
337,3.770162,2,6,9,12,29,-1027
338,3.78131,2,6,9,12,30,-1023
339,3.792492,2,5,10,8,29,-1027
340,3.803674,2,5,9,9,31,-1020
341,3.814858,2,6,10,11,30,-1018
342,3.826048,2,6,10,7,32,-1024
343,3.837229,3,6,10,13,32,-1028
344,3.848411,3,7,9,13,35,-1024
345,3.859596,2,7,10,7,31,-1022
346,3.870777,3,7,9,10,33,-1025
347,3.881962,2,7,9,12,26,-1027
348,3.893143,2,6,8,9,34,-1024
349,3.904328,2,7,8,10,33,-1024
350,3.915511,2,6,9,11,30,-1021
351,3.926692,2,5,8,11,28,-1021
352,3.93786,2,5,9,10,32,-1024
353,3.949045,2,6,10,11,28,-1025
354,3.960228,2,7,10,11,32,-1021
355,3.971425,3,7,8,9,32,-1020
356,3.982616,3,6,8,9,29,-1021
357,3.993802,2,5,9,8,36,-1019
358,4.004985,2,7,10,10,30,-1017
359,4.016167,2,6,10,10,32,-1017
360,4.027348,2,7,9,12,33,-1015
361,4.03853,2,6,9,9,31,-1025
362,4.04968,3,6,9,9,31,-1020
363,4.060862,2,7,10,14,31,-1027
364,4.072048,3,7,9,10,30,-1027
365,4.083246,2,6,9,12,33,-1020
366,4.09443,3,6,8,13,30,-1023
367,4.105616,2,5,10,15,33,-1021
368,4.116796,3,7,9,8,33,-1024
369,4.127976,3,7,9,11,29,-1017
370,4.139161,3,7,8,9,30,-1024
371,4.150345,2,6,8,11,34,-1023
372,4.161496,3,6,9,11,29,-1021
373,4.172676,1,6,8,12,34,-1022
374,4.183859,3,5,8,12,30,-1019
375,4.195041,1,4,9,16,35,-1023
376,4.206233,2,6,9,9,32,-1022
377,4.217427,2,6,9,11,32,-1020
378,4.22861,3,6,8,9,28,-1031
379,4.239792,2,6,8,10,33,-1022
380,4.250978,2,6,9,9,29,-1027
381,4.26217,2,6,9,5,31,-1024
382,4.273309,3,6,9,7,30,-1023
383,4.284491,2,5,9,8,32,-1023
384,4.295673,2,4,9,10,31,-1018
385,4.306853,2,5,9,8,31,-1021
386,4.318049,2,6,9,10,30,-1026
387,4.329241,2,5,9,10,30,-1021
388,4.340423,2,5,9,10,29,-1017
389,4.351604,2,5,8,10,34,-1024
390,4.362784,2,6,9,10,29,-1021
391,4.373974,2,6,10,13,30,-1021
392,4.385159,2,6,9,10,29,-1015
393,4.39634,2,6,9,10,33,-1022
394,4.407525,2,6,9,11,31,-1020
395,4.418707,2,5,9,11,32,-1025
396,4.429868,3,6,9,10,31,-1025
397,4.441051,2,5,9,12,31,-1025
398,4.45224,2,6,9,10,30,-1021
399,4.463423,3,6,8,12,31,-1024
400,4.474605,1,6,8,11,32,-1026
401,4.4858,2,6,9,10,30,-1024
402,4.496983,2,5,9,10,31,-1020
403,4.508164,2,5,10,7,26,-1024
404,4.519346,2,6,9,10,30,-1032
405,4.530528,2,6,9,12,36,-1024
406,4.541679,3,6,10,10,32,-1024
407,4.55286,3,7,9,12,30,-1030
408,4.564041,3,8,8,12,30,-1028
409,4.575221,3,7,8,10,27,-1023
410,4.586415,3,6,8,10,29,-1017
411,4.59761,3,8,8,9,30,-1023
412,4.608795,2,7,9,7,32,-1027
413,4.619976,2,7,10,9,30,-1024
414,4.631159,2,8,9,10,28,-1025
415,4.64235,2,6,9,8,31,-1019
416,4.653496,3,8,8,12,27,-1019
417,4.664678,2,8,9,11,31,-1023
418,4.675871,3,7,9,10,28,-1020
419,4.687065,2,6,10,15,30,-1027
420,4.698234,2,8,8,10,35,-1024
421,4.709426,3,7,9,12,30,-1029
422,4.720607,2,7,9,8,28,-1026
423,4.731788,3,7,9,10,31,-1027
424,4.742976,1,6,10,11,31,-1019
425,4.754174,3,7,9,9,30,-1020
426,4.765767,3,7,9,12,32,-1021
427,4.777481,2,6,9,11,33,-1017
428,4.789137,3,7,8,9,30,-1020
429,4.800802,2,6,8,10,31,-1025
430,4.812461,2,5,9,14,27,-1024
431,4.824121,2,6,9,10,34,-1030
432,4.835771,2,6,9,4,29,-1026
433,4.847424,2,6,8,10,31,-1021
434,4.859092,3,7,9,10,32,-1022
435,4.870774,2,7,9,8,30,-1021
436,4.882448,3,7,9,12,31,-1020
437,4.89413,2,7,8,11,30,-1018
438,4.905789,2,6,9,13,31,-1027
439,4.917485,1,6,9,10,27,-1022
440,4.929134,3,5,9,8,32,-1017
441,4.940832,2,7,9,10,34,-1021
442,4.952485,2,6,9,11,31,-1022
443,4.964169,2,6,9,9,30,-1019
444,4.975842,2,6,9,13,32,-1021
445,4.987492,2,6,9,9,28,-1022
446,4.999142,2,6,9,11,30,-1027
447,5.010791,3,6,9,14,28,-1023
448,5.022442,2,6,8,13,29,-1022
449,5.034125,2,6,9,9,30,-1025
450,5.045773,2,6,9,10,32,-1027
451,5.057442,2,7,9,10,28,-1021
452,5.069142,2,6,10,8,32,-1024
453,5.080788,2,6,9,12,33,-1030
454,5.092437,3,6,9,11,27,-1023
455,5.104105,2,6,9,8,30,-1021
456,5.11575,2,5,9,9,30,-1027
457,5.1274,2,5,9,10,30,-1024
458,5.139063,2,5,9,12,29,-1015
459,5.150726,2,6,9,9,31,-1024
460,5.162386,2,6,10,9,29,-1020
461,5.174047,2,6,9,10,30,-1022
462,5.1856,2,6,9,10,29,-1018
463,5.197189,2,6,9,12,30,-1021
464,5.208738,2,5,9,12,31,-1016
465,5.2203,3,7,9,8,29,-1025
466,5.231842,3,6,9,13,31,-1021
467,5.243439,2,5,8,11,32,-1020
468,5.254991,2,6,8,15,32,-1020
469,5.266559,2,7,9,11,30,-1018
470,5.278084,2,6,9,13,29,-1028
471,5.289735,2,6,9,7,30,-1024
472,5.301362,2,5,9,9,32,-1023
473,5.313012,3,6,9,11,29,-1025
474,5.324677,2,7,9,12,30,-1025
475,5.336338,3,6,9,11,30,-1022
476,5.34799,2,6,9,12,29,-1024
477,5.359637,3,6,9,13,29,-1021
478,5.371294,2,6,9,10,32,-1023
479,5.382952,2,5,9,5,29,-1023
480,5.39463,2,6,9,9,33,-1022
481,5.40629,2,6,9,7,34,-1014
482,5.417944,3,6,9,6,34,-1023
483,5.429647,3,5,9,8,31,-1030
484,5.441363,3,6,9,11,32,-1022
485,5.453018,3,6,8,10,32,-1024
486,5.464678,3,6,8,12,29,-1022
487,5.476337,2,7,9,12,31,-1027
488,5.488016,2,6,9,9,32,-1019
489,5.499662,2,7,10,11,32,-1021
490,5.511344,2,6,9,8,31,-1020
491,5.523002,2,6,8,7,29,-1025
492,5.534647,2,6,9,11,31,-1018
493,5.546309,3,6,9,9,30,-1025
494,5.558007,3,6,9,13,31,-1023
495,5.569621,2,6,9,10,29,-1029
496,5.581273,2,6,9,8,34,-1023
497,5.593027,3,6,9,12,30,-1020
498,5.604704,3,6,8,9,32,-1021
499,5.616284,3,6,8,8,31,-1021
500,5.627849,3,6,9,8,33,-1018
501,5.639443,3,6,9,12,29,-1021
502,5.650996,3,6,10,9,31,-1018
503,5.662566,2,5,9,10,28,-1016
504,5.674119,3,6,9,10,33,-1023
505,5.685671,2,7,8,6,27,-1020
506,5.697245,2,6,9,13,27,-1022
507,5.708871,3,6,8,12,28,-1021
508,5.720536,3,6,8,7,31,-1022
509,5.732183,2,6,9,14,35,-1026
510,5.743851,2,6,10,10,32,-1021
511,5.755501,2,6,9,8,31,-1020
512,5.767154,3,5,9,12,31,-1019
513,5.778823,3,5,9,11,32,-1019
514,5.790512,2,6,9,10,26,-1024
515,5.802234,3,6,9,12,29,-1022
516,5.813879,3,6,9,7,34,-1024
517,5.825459,3,6,9,9,30,-1020
518,5.83701,2,7,9,12,29,-1022
519,5.848557,2,6,10,11,29,-1014
520,5.860113,2,7,9,11,33,-1020
521,5.871687,2,6,9,9,29,-1028
522,5.883258,2,6,9,11,31,-1019
523,5.894806,2,6,9,9,31,-1024
524,5.906364,2,7,9,6,28,-1026
525,5.918032,2,6,9,13,30,-1029
526,5.929739,2,6,9,11,34,-1032
527,5.941407,2,6,8,12,31,-1029
528,5.953091,2,5,9,10,34,-1027
529,5.964751,2,6,8,8,32,-1019
530,5.976402,2,6,8,8,28,-1016
531,5.988074,2,7,9,11,33,-1023
532,5.999729,2,6,9,12,30,-1022
533,6.011383,1,6,9,12,24,-1020
534,6.023066,3,6,8,11,32,-1025
535,6.034654,2,6,9,14,33,-1023
536,6.046241,2,5,9,12,33,-1019
537,6.057825,2,6,9,11,29,-1024
538,6.069353,2,6,9,7,25,-1016
539,6.080904,3,6,9,11,31,-1028
540,6.092456,3,6,9,10,33,-1019
541,6.10402,2,6,9,12,28,-1019
542,6.115586,2,6,9,9,31,-1022
543,6.12728,1,6,9,14,31,-1028
544,6.138968,2,6,9,6,30,-1028
545,6.150635,3,5,9,8,26,-1023
546,6.162326,3,5,9,14,28,-1024
547,6.174009,3,6,10,10,30,-1021
548,6.18566,3,6,9,9,30,-1024
549,6.19736,2,6,9,11,31,-1019
550,6.209021,3,6,9,15,33,-1028
551,6.220679,3,6,9,12,26,-1026
552,6.232356,2,6,8,8,34,-1024
553,6.243918,3,6,8,9,29,-1020
554,6.255466,3,6,9,6,28,-1021
555,6.267007,3,6,9,12,30,-1025
556,6.278557,3,6,9,12,26,-1016
557,6.290066,2,7,10,7,26,-1020
558,6.301582,2,6,9,9,26,-1024
559,6.313125,2,6,10,9,27,-1024
560,6.324681,2,6,10,9,27,-1027
561,6.336379,2,6,8,9,32,-1023
562,6.348032,2,6,9,8,32,-1028
563,6.359705,1,6,9,13,31,-1019
564,6.371363,3,6,10,13,29,-1028
565,6.383007,2,5,8,10,30,-1031
566,6.394637,2,5,9,11,31,-1025
567,6.406285,2,6,9,8,29,-1027
568,6.417968,2,7,8,15,31,-1023
569,6.429621,2,7,9,11,33,-1020
570,6.44127,2,6,9,12,34,-1017
571,6.452919,2,7,9,12,29,-1025
572,6.46459,2,7,9,10,33,-1018
573,6.476235,2,6,9,10,33,-1022
574,6.487884,3,6,8,9,33,-1022
575,6.499534,2,6,9,10,30,-1022
576,6.511199,3,6,9,11,28,-1029
577,6.52289,2,6,9,10,31,-1022
578,6.534589,2,6,8,12,30,-1028
579,6.546255,2,6,9,10,27,-1022
580,6.557865,3,6,9,11,30,-1020
581,6.569516,2,5,9,12,29,-1020
582,6.581165,2,6,9,8,32,-1022
583,6.592845,2,5,9,12,30,-1021
584,6.604485,2,6,8,10,33,-1017
585,6.616134,3,6,10,5,31,-1030
586,6.627783,3,6,10,11,32,-1021
587,6.639452,3,6,9,12,28,-1024
588,6.65103,1,6,9,9,30,-1016
589,6.66256,2,6,9,11,29,-1021
590,6.674118,2,6,9,9,31,-1021
591,6.685678,2,5,9,9,33,-1021
592,6.69722,2,7,9,16,28,-1022
593,6.70876,2,6,8,13,32,-1027
594,6.720313,3,6,9,11,29,-1023
595,6.731852,2,6,9,10,29,-1024
596,6.743462,2,6,9,13,31,-1023
597,6.755094,2,6,9,10,27,-1021
598,6.766779,3,6,9,14,33,-1011
599,6.77846,3,6,9,10,30,-1019
600,6.790138,2,6,9,13,31,-1028
601,6.801811,2,6,9,11,32,-1024
602,6.813502,3,6,9,12,29,-1021
603,6.825152,2,7,10,7,28,-1020
604,6.836822,2,6,9,12,32,-1028
605,6.848493,2,6,9,6,31,-1021
606,6.860148,3,6,9,10,28,-1023
607,6.871816,2,6,9,11,27,-1022
608,6.883477,3,7,9,13,28,-1021
609,6.895126,3,7,10,12,30,-1022
610,6.906812,2,6,10,14,31,-1022
611,6.918507,2,6,9,11,32,-1026
612,6.930131,3,7,9,8,30,-1022
613,6.941801,3,6,8,10,32,-1018
614,6.953519,2,6,8,9,33,-1025
615,6.965169,3,6,8,13,31,-1023
616,6.976843,3,6,9,11,29,-1024
617,6.988485,2,6,8,10,32,-1021
618,7.000133,2,5,9,11,27,-1019
619,7.011799,3,5,9,8,32,-1024
620,7.023469,2,6,9,12,32,-1022
621,7.035122,2,6,10,13,32,-1029
622,7.046783,2,6,8,12,26,-1032
623,7.058479,2,6,9,7,29,-1020
624,7.070133,3,5,8,12,29,-1029
625,7.081781,2,6,9,8,32,-1020
626,7.093433,3,5,9,13,29,-1017
627,7.105102,2,6,9,14,29,-1019
628,7.116752,3,7,9,12,29,-1020
629,7.128404,3,6,9,10,32,-1023
630,7.140084,2,5,9,16,27,-1013
631,7.151736,2,6,9,12,28,-1022
632,7.163399,2,6,8,7,33,-1021
633,7.17507,3,6,9,11,29,-1024
634,7.186668,2,5,9,11,30,-1019
635,7.198231,3,6,8,11,29,-1020
636,7.209817,2,6,9,9,26,-1020
637,7.221338,2,6,8,13,28,-1020
638,7.232883,2,6,9,12,29,-1019
639,7.244426,2,7,9,6,31,-1027
640,7.25603,2,6,9,8,29,-1023
641,7.267734,2,6,9,12,27,-1021
642,7.279359,3,6,10,9,28,-1029
643,7.290911,2,7,9,11,31,-1025
644,7.302471,2,7,9,11,29,-1021
645,7.314078,2,6,10,7,28,-1024
646,7.325684,2,7,8,11,30,-1020
647,7.337238,2,6,9,10,32,-1020
648,7.348803,2,6,8,10,30,-1016
649,7.360349,2,7,9,8,28,-1027
650,7.371917,3,7,8,14,33,-1024
651,7.383611,2,6,9,11,31,-1026
652,7.395282,2,6,9,12,30,-1023
653,7.406952,3,6,9,12,29,-1028
654,7.418661,2,6,9,11,30,-1027
655,7.430317,2,6,8,14,30,-1021
656,7.442001,2,6,10,12,30,-1021
657,7.453669,2,6,9,8,31,-1022
658,7.465356,2,5,9,10,33,-1024
659,7.477085,2,7,9,9,28,-1024
660,7.488747,3,6,9,15,30,-1025
661,7.50031,2,7,10,8,29,-1021
662,7.511891,2,6,9,9,32,-1024
663,7.523446,2,6,10,10,27,-1020
664,7.53501,2,7,9,11,33,-1023
665,7.546558,2,6,10,10,30,-1020
666,7.558121,3,6,8,11,35,-1019
667,7.569712,2,6,9,13,35,-1018
668,7.581303,2,6,8,12,30,-1026
669,7.592926,2,6,9,9,31,-1023
670,7.604593,1,6,10,8,31,-1020
671,7.616251,2,6,9,14,30,-1024
672,7.627908,2,6,9,15,32,-1021
673,7.639577,3,7,8,5,33,-1026
674,7.651257,2,7,9,12,30,-1024
675,7.662913,2,6,8,13,35,-1019
676,7.674588,1,6,8,12,30,-1022
677,7.686275,2,5,9,11,35,-1019
678,7.697954,2,7,9,9,31,-1024
679,7.709532,2,6,9,10,30,-1018
680,7.721084,3,7,9,12,29,-1026
681,7.732629,2,6,10,9,31,-1028
682,7.744213,2,6,9,11,32,-1021
683,7.755795,2,6,9,9,27,-1026
684,7.767345,2,6,10,9,32,-1028
685,7.778922,2,5,9,9,32,-1022
686,7.79049,2,6,9,11,31,-1026
687,7.802138,2,6,9,13,32,-1021
688,7.813821,3,5,9,11,28,-1018
689,7.825508,3,6,9,9,34,-1024
690,7.837158,2,7,9,13,32,-1029
691,7.848832,2,7,9,11,29,-1021
692,7.860483,2,6,8,10,34,-1024
693,7.872133,2,6,8,8,36,-1023
694,7.883779,3,6,9,5,26,-1016
695,7.895461,2,5,10,10,32,-1023
696,7.907139,2,6,9,11,32,-1028
697,7.918817,3,6,9,11,30,-1023
698,7.930506,2,5,9,9,29,-1030
699,7.94212,2,6,9,7,31,-1019
700,7.953776,3,6,8,13,30,-1021
701,7.965463,3,6,9,6,28,-1017
702,7.977117,2,6,9,11,29,-1020
703,7.988766,3,5,9,10,33,-1022
704,8.000453,2,5,8,16,30,-1020
705,8.012113,2,6,9,11,31,-1020
706,8.023777,2,6,8,11,33,-1025
707,8.035447,3,6,9,11,32,-1016
708,8.047097,2,6,8,11,33,-1017
709,8.058756,2,6,9,12,30,-1022
710,8.070379,3,6,8,9,30,-1016
711,8.082047,2,6,9,8,29,-1023
712,8.093736,3,6,9,13,28,-1022
713,8.105365,2,6,9,14,34,-1025
714,8.117039,2,6,8,12,35,-1018
715,8.128599,2,6,8,7,30,-1025
716,8.140175,2,6,9,11,30,-1019
717,8.151721,2,6,9,10,28,-1020
718,8.163272,2,6,8,10,33,-1029
719,8.174824,2,6,9,10,31,-1020
720,8.186375,2,7,9,13,27,-1019
721,8.197948,2,6,10,14,30,-1025
722,8.20955,2,6,10,10,32,-1022
723,8.221188,2,6,9,12,28,-1023
724,8.232867,3,7,9,9,30,-1023
725,8.244514,2,6,9,12,30,-1019
726,8.256168,2,6,9,11,31,-1026
727,8.267842,2,6,9,10,33,-1020
728,8.279492,2,6,9,14,29,-1025
729,8.291142,3,6,9,10,34,-1024
730,8.302823,2,6,9,7,29,-1018
731,8.314494,2,6,9,9,35,-1025
732,8.326138,3,6,8,9,28,-1018
733,8.33773,3,6,8,11,33,-1020
734,8.349363,2,7,9,9,28,-1023
735,8.360953,2,5,9,10,29,-1021
736,8.372529,2,6,8,13,28,-1020
737,8.384085,2,5,9,10,36,-1022
738,8.395713,2,6,10,12,32,-1026
739,8.407256,2,6,9,10,29,-1018
740,8.418828,2,6,9,11,34,-1023
741,8.430523,3,6,9,8,34,-1023
742,8.442186,2,6,9,8,31,-1022
743,8.453887,3,6,8,13,28,-1019
744,8.465556,2,6,9,13,31,-1021
745,8.477214,2,5,8,7,32,-1028
746,8.48888,2,6,9,10,30,-1024
747,8.500538,3,7,9,11,29,-1022
748,8.512195,3,6,9,12,32,-1026
749,8.523886,2,6,9,7,31,-1019
750,8.535546,3,6,9,11,32,-1018
751,8.547103,2,6,9,8,32,-1026
752,8.558684,2,6,9,10,30,-1016
753,8.570271,2,7,9,14,28,-1022
754,8.581836,2,6,9,11,26,-1021
755,8.593423,2,7,8,12,32,-1025
756,8.604966,3,6,8,8,33,-1020
757,8.616505,2,6,9,10,34,-1022
758,8.628071,2,6,9,13,30,-1025
759,8.639685,2,6,10,9,30,-1023
760,8.651345,2,6,9,14,31,-1020
761,8.663147,2,6,10,10,28,-1021
762,8.674807,3,7,9,11,28,-1023
763,8.686467,2,7,9,6,30,-1023
764,8.698135,3,6,8,14,30,-1014
765,8.709785,2,6,9,10,32,-1022
766,8.721434,2,6,9,11,28,-1025
767,8.733115,2,6,9,12,32,-1020
768,8.744773,3,6,10,10,28,-1021
769,8.756351,2,6,9,8,31,-1022
770,8.767961,2,6,9,16,33,-1022
771,8.779523,2,6,10,10,28,-1020
772,8.791076,1,6,9,15,35,-1022
773,8.802629,2,7,9,8,31,-1019
774,8.81419,2,6,8,9,33,-1024
775,8.825741,2,6,9,10,29,-1024
776,8.837314,2,6,8,7,27,-1020
777,8.848992,2,7,9,9,30,-1022
778,8.860654,1,7,9,11,30,-1021
779,8.872313,2,7,10,11,28,-1018
780,8.883998,2,7,9,11,31,-1023
781,8.895671,2,6,9,10,32,-1017
782,8.907352,2,6,9,12,30,-1026
783,8.919007,2,6,9,9,33,-1022
784,8.930646,2,5,9,13,30,-1026
785,8.94232,2,6,9,11,32,-1019
786,8.953991,3,6,9,11,31,-1018
787,8.965586,3,7,9,7,30,-1024
788,8.97713,2,6,9,9,32,-1020
789,8.988685,1,6,9,10,30,-1029
790,9.000254,3,6,9,12,30,-1023
791,9.011805,2,6,9,8,30,-1022
792,9.023376,3,6,9,13,32,-1019
793,9.034952,2,6,9,15,30,-1025
794,9.046517,3,6,9,14,30,-1024
795,9.058204,3,5,9,11,27,-1023
796,9.069863,2,6,9,11,32,-1027
797,9.081521,2,6,8,14,34,-1028
798,9.093168,2,6,9,7,31,-1024
799,9.104849,3,6,9,8,33,-1023
800,9.116504,2,7,10,9,29,-1017
801,9.128172,2,7,9,10,35,-1019
802,9.139848,2,6,9,7,30,-1027
803,9.151516,2,6,9,7,32,-1020
804,9.163164,2,6,9,12,34,-1026
805,9.174733,2,6,9,8,31,-1021
806,9.186312,2,6,9,10,33,-1021
807,9.197918,2,7,10,10,31,-1021
808,9.209478,2,6,9,12,29,-1016
809,9.221028,3,6,9,10,30,-1024
810,9.232573,2,6,9,10,32,-1017
811,9.244118,2,6,10,12,29,-1021
812,9.25568,2,6,9,6,31,-1022
813,9.267374,2,6,9,8,29,-1024
814,9.279031,3,6,9,9,26,-1019
815,9.290703,2,5,8,10,30,-1024
816,9.302384,2,6,8,11,30,-1023
817,9.314054,2,6,9,14,30,-1014
818,9.325745,3,7,8,14,32,-1021
819,9.337404,2,6,9,8,30,-1026
820,9.349062,2,6,10,9,30,-1024
821,9.360724,3,6,9,9,29,-1020
822,9.372382,3,5,9,11,26,-1025
823,9.384028,2,6,8,11,31,-1016
824,9.395717,2,5,9,10,27,-1024
825,9.407372,2,6,9,9,31,-1022
826,9.419015,2,6,8,10,26,-1024
827,9.430647,2,6,9,6,32,-1024
828,9.44232,3,6,9,8,29,-1020
829,9.453999,3,6,9,9,29,-1015
830,9.46565,2,6,10,10,28,-1025
831,9.477351,2,6,9,9,33,-1014
832,9.488999,3,6,9,13,30,-1024
833,9.500665,2,6,9,9,29,-1028
834,9.512336,2,6,9,10,30,-1024
835,9.523984,2,6,9,10,30,-1023
836,9.535635,2,6,9,10,30,-1026
837,9.547285,2,7,10,13,29,-1019
838,9.558954,2,6,9,10,31,-1017
839,9.570657,2,6,8,15,31,-1025
840,9.582332,2,6,9,10,33,-1023
841,9.594012,3,6,8,9,29,-1023
842,9.605678,3,6,9,6,30,-1022
843,9.617352,3,6,8,8,32,-1024
844,9.628998,2,6,9,10,32,-1027
845,9.640649,3,6,9,8,35,-1025
846,9.652296,3,6,9,13,26,-1021
847,9.663942,2,6,10,11,31,-1022
848,9.675618,2,6,9,9,31,-1023
849,9.68727,2,5,9,11,30,-1021
850,9.698914,2,5,9,9,32,-1022
851,9.710588,2,6,9,7,31,-1024
852,9.722254,3,6,9,10,32,-1020
853,9.733876,2,7,9,12,30,-1022
854,9.745527,2,6,10,13,28,-1023
855,9.757195,2,6,10,9,28,-1019
856,9.768841,3,6,9,12,29,-1025
857,9.780497,2,6,9,11,28,-1023
858,9.792209,3,6,9,9,31,-1023
859,9.803867,2,5,9,12,27,-1025
860,9.815529,2,6,9,12,34,-1025
861,9.827185,2,7,9,13,31,-1025
862,9.838846,2,7,9,8,31,-1018
863,9.850528,2,6,9,10,27,-1021
864,9.862221,2,6,10,11,29,-1024
865,9.873904,2,6,9,12,30,-1023
866,9.885691,2,6,9,13,31,-1023
867,9.897355,2,6,9,12,31,-1025
868,9.908917,2,6,10,12,27,-1023
869,9.920476,2,6,9,9,29,-1022
870,9.932051,2,6,9,11,34,-1022
871,9.943608,2,6,10,8,32,-1021
872,9.955263,2,7,9,11,29,-1026
873,9.966871,2,6,9,10,28,-1022
874,9.978442,2,6,9,8,27,-1024
875,9.990016,3,6,9,12,31,-1023
876,10.00171,2,5,9,7,34,-1027
877,10.013366,2,6,9,10,29,-1020
878,10.025021,2,6,9,9,30,-1022
879,10.036694,2,6,9,13,28,-1021
880,10.048354,2,6,9,6,29,-1021
881,10.060004,2,6,9,11,29,-1028
882,10.071665,2,6,9,14,31,-1018
883,10.083346,2,6,9,8,32,-1028
884,10.095013,2,6,9,10,31,-1018
885,10.106663,3,6,9,9,31,-1024
886,10.118236,3,6,9,11,33,-1023
887,10.129826,3,7,9,10,30,-1023
888,10.141414,2,6,9,7,31,-1015
889,10.152961,2,6,9,8,32,-1023
890,10.164498,2,6,10,12,35,-1024
891,10.176042,2,5,9,9,27,-1015
892,10.187585,3,6,8,10,31,-1023
893,10.199127,3,5,9,13,29,-1022
894,10.210776,2,5,9,11,30,-1028
895,10.222432,2,5,8,12,32,-1023
896,10.234127,3,6,9,10,32,-1020
897,10.245818,2,6,9,11,32,-1019
898,10.25749,3,6,9,13,30,-1018
899,10.269142,3,6,8,9,34,-1027
900,10.28078,3,6,8,10,31,-1021
901,10.29242,2,6,9,11,28,-1020
902,10.304105,3,6,8,9,34,-1015
903,10.31576,2,6,9,11,30,-1020
904,10.327413,2,5,10,12,31,-1025
905,10.339089,3,5,9,10,31,-1021
906,10.350758,3,6,9,8,30,-1021
907,10.362394,2,6,9,11,34,-1020
908,10.374067,2,6,8,10,29,-1024
909,10.385743,2,6,8,10,32,-1022
910,10.397412,3,6,9,15,31,-1021
911,10.409112,3,6,9,9,29,-1020
912,10.420772,2,6,9,9,32,-1017
913,10.432458,3,7,9,14,31,-1022
914,10.444114,2,6,9,11,29,-1024
915,10.455769,3,6,9,13,34,-1020
916,10.467438,3,5,9,9,33,-1025
917,10.479094,2,6,8,12,28,-1018
918,10.490776,2,7,9,8,31,-1021
919,10.502458,2,6,9,13,32,-1016
920,10.514215,2,6,10,9,34,-1021
921,10.525877,2,6,9,8,30,-1021
922,10.537462,3,6,9,11,28,-1031
923,10.549046,3,6,9,13,27,-1023
924,10.560598,3,6,8,7,32,-1017
925,10.572167,3,6,8,11,33,-1024
926,10.583707,2,6,9,11,32,-1024
927,10.595249,2,7,9,10,30,-1024
928,10.606798,2,6,9,12,32,-1024
929,10.618356,2,6,9,10,33,-1024
930,10.630004,2,5,10,9,32,-1021
931,10.641683,3,5,8,12,27,-1016
932,10.653355,3,5,9,13,26,-1025
933,10.665006,2,6,9,11,30,-1015
934,10.676662,2,6,9,8,31,-1023
935,10.688306,2,6,9,10,31,-1019
936,10.69997,2,6,9,9,28,-1022
937,10.711621,2,7,9,13,31,-1021
938,10.723278,2,6,10,11,31,-1025
939,10.734932,2,6,9,10,29,-1024
940,10.74663,3,6,8,8,32,-1025
941,10.758285,2,6,9,9,32,-1022
942,10.76994,2,6,9,13,28,-1020
943,10.781625,2,5,9,12,29,-1027
944,10.793265,2,6,9,7,29,-1020
945,10.804924,3,6,10,9,29,-1020
946,10.816601,2,6,9,10,31,-1019
947,10.828314,2,6,9,8,31,-1021
948,10.839973,2,5,9,15,35,-1027
949,10.85155,2,6,8,10,30,-1023
950,10.863103,2,5,9,12,32,-1019
951,10.874722,2,6,9,10,30,-1029
952,10.8863,2,6,9,11,30,-1019
953,10.89784,2,6,9,7,33,-1021
954,10.909458,3,7,8,9,32,-1022
955,10.921039,2,6,8,14,31,-1027
956,10.932593,3,6,8,10,31,-1020
957,10.944213,2,6,9,12,32,-1022
958,10.955854,3,7,9,13,29,-1017
959,10.967507,2,6,9,10,31,-1022
960,10.979174,3,6,9,12,32,-1022
961,10.990864,3,6,9,15,29,-1025
962,11.002519,1,5,9,11,30,-1018
963,11.014203,3,5,9,11,30,-1017
964,11.025869,2,6,9,13,29,-1020
965,11.037539,2,7,9,12,33,-1025
966,11.049204,2,6,9,8,31,-1023
967,11.060753,3,6,9,10,30,-1031
968,11.072305,2,6,9,10,34,-1025
969,11.083852,2,6,9,9,33,-1018
970,11.095397,3,6,8,12,31,-1019
971,11.106947,2,6,9,9,29,-1025
972,11.118537,2,7,9,10,33,-1020
973,11.13008,2,5,9,14,28,-1020
974,11.141604,3,6,9,10,34,-1028
975,11.15322,3,7,8,10,29,-1019
976,11.164871,2,6,9,9,28,-1021
977,11.17652,2,6,9,11,28,-1026
978,11.188184,2,7,9,15,30,-1025
979,11.199848,2,6,9,12,29,-1018
980,11.211493,2,7,9,12,30,-1018
981,11.223139,3,6,9,8,32,-1018
982,11.234818,3,7,9,10,29,-1024
983,11.246534,3,7,9,13,33,-1022
984,11.258265,2,6,9,10,35,-1021
985,11.269836,2,6,8,10,28,-1023
986,11.28139,1,6,8,9,29,-1017
987,11.292945,2,7,9,14,32,-1022
988,11.304491,2,7,9,11,32,-1019
989,11.316044,1,6,8,6,34,-1012
990,11.327601,2,6,9,9,31,-1019
991,11.339193,2,6,10,12,30,-1023
992,11.350819,2,6,9,8,31,-1020
993,11.362511,3,6,9,9,30,-1021
994,11.374252,2,6,9,7,29,-1024
995,11.385883,3,6,9,12,31,-1023
996,11.397539,2,5,9,13,30,-1027
997,11.409195,2,7,9,10,31,-1020
998,11.420866,2,5,9,11,31,-1025
999,11.432507,3,6,8,8,30,-1022
1000,11.444156,2,6,8,10,30,-1027
1001,11.455844,2,6,10,11,31,-1025
1002,11.467497,2,6,10,15,29,-1019
1003,11.479149,2,7,9,8,32,-1018
1004,11.490863,2,7,9,7,32,-1024
1005,11.502526,3,6,9,12,23,-1023
1006,11.514179,3,6,9,12,33,-1024
1007,11.525871,2,6,9,9,30,-1022
1008,11.537522,3,7,9,11,29,-1022
1009,11.54917,3,6,9,8,31,-1022
1010,11.560931,2,5,9,12,30,-1027
1011,11.572561,2,6,9,9,31,-1025
1012,11.584114,2,6,9,10,32,-1025
1013,11.595673,2,6,10,10,29,-1020
1014,11.607216,2,5,8,9,30,-1026
1015,11.618799,2,6,8,16,31,-1022
1016,11.630319,2,6,9,7,29,-1020
1017,11.641908,2,6,9,9,29,-1023
1018,11.653471,2,7,9,14,34,-1020
1019,11.665026,2,6,9,12,30,-1027
1020,11.676636,2,6,10,13,33,-1024
1021,11.68828,3,6,9,11,32,-1020
1022,11.699928,2,7,9,12,31,-1025
1023,11.711602,2,6,9,10,30,-1022
1024,11.723253,3,7,8,8,32,-1030
1025,11.734936,2,7,9,7,32,-1022
1026,11.746631,2,6,9,15,29,-1018
1027,11.758286,2,6,9,7,29,-1028
1028,11.769956,2,7,9,11,31,-1023
1029,11.781623,3,6,9,10,27,-1025
1030,11.793196,3,6,9,9,32,-1026
1031,11.804778,3,6,9,7,32,-1022
1032,11.816321,2,5,10,11,32,-1022
1033,11.827893,2,6,9,10,29,-1022
1034,11.839544,3,6,8,12,31,-1022
1035,11.851104,3,6,9,10,28,-1021
1036,11.862686,3,6,9,7,31,-1020
1037,11.874254,2,6,9,10,33,-1022
1038,11.885881,2,6,9,13,31,-1022
1039,11.897546,2,6,9,12,29,-1021
1040,11.90922,2,5,9,10,31,-1021
1041,11.920863,2,6,8,10,33,-1036
1042,11.932507,2,5,10,13,29,-1025
1043,11.944167,2,6,9,11,31,-1022
1044,11.955833,2,7,9,9,31,-1025
1045,11.967483,2,6,9,9,31,-1021
1046,11.97915,3,6,9,9,31,-1019
1047,11.990807,3,6,9,10,27,-1021
1048,12.002399,1,6,9,6,32,-1017
1049,12.013969,3,5,10,11,29,-1022
1050,12.025531,2,6,8,11,26,-1022
1051,12.037085,2,6,8,10,35,-1026
1052,12.048635,2,6,9,8,27,-1022
1053,12.060181,2,6,9,10,29,-1021
1054,12.071745,2,6,9,9,34,-1021
1055,12.083321,2,7,9,11,32,-1022
1056,12.095048,2,6,9,10,33,-1018
1057,12.106727,2,6,9,11,29,-1025
1058,12.11839,2,5,9,9,31,-1020
1059,12.130068,2,6,8,9,31,-1028
1060,12.14176,3,6,9,9,33,-1023
1061,12.153425,2,7,9,12,32,-1022
1062,12.165084,3,6,9,12,31,-1019
1063,12.17674,2,6,9,8,29,-1021
1064,12.188409,2,7,9,10,30,-1021
1065,12.20007,2,6,9,8,30,-1025
1066,12.21168,3,6,9,8,34,-1022
1067,12.223262,3,6,8,8,35,-1023
1068,12.234806,2,6,9,8,30,-1026
1069,12.246358,2,6,9,8,29,-1025
1070,12.257908,2,6,9,12,31,-1027
1071,12.269472,2,6,9,8,32,-1024
1072,12.28104,2,6,10,15,30,-1028
1073,12.292601,2,6,8,12,34,-1024
1074,12.304234,2,7,9,12,31,-1021
1075,12.315892,2,7,8,9,30,-1024
1076,12.32756,2,6,9,11,32,-1027
1077,12.339211,2,7,9,9,34,-1020
1078,12.350922,2,5,9,11,33,-1023
1079,12.362588,2,6,9,11,31,-1025
1080,12.37426,2,6,9,12,30,-1022
1081,12.385943,2,6,10,11,33,-1014
1082,12.397631,2,6,10,10,32,-1023
1083,12.409286,3,6,9,10,29,-1022
1084,12.420852,3,5,9,10,31,-1023
1085,12.432424,2,6,9,7,26,-1019
1086,12.443971,2,6,9,10,30,-1023
1087,12.455536,2,7,9,11,34,-1023
1088,12.467106,2,6,9,11,30,-1025
1089,12.478682,2,6,8,6,28,-1023
1090,12.490269,2,6,9,13,32,-1020
1091,12.501848,3,6,9,9,32,-1022
1092,12.513493,2,6,9,9,29,-1019
1093,12.525154,2,6,9,13,32,-1026
1094,12.536804,2,6,9,10,30,-1021
1095,12.548461,2,6,9,16,30,-1016
1096,12.56012,2,6,9,9,29,-1018
1097,12.571768,2,6,8,10,30,-1022
1098,12.583422,2,6,8,13,27,-1017
1099,12.595097,2,6,9,14,29,-1027
1100,12.606781,2,6,9,5,30,-1025
1101,12.618453,3,6,10,11,28,-1027
1102,12.630057,3,7,9,9,31,-1021
1103,12.641593,2,6,9,8,28,-1019
1104,12.653142,3,6,9,10,34,-1021
1105,12.664693,3,7,9,14,29,-1021
1106,12.676241,2,6,10,13,30,-1023
1107,12.687802,2,6,9,12,28,-1018
1108,12.699342,2,6,9,12,26,-1020
1109,12.710893,3,6,9,15,34,-1024
1110,12.722527,2,6,9,10,28,-1021
1111,12.734185,2,6,9,16,31,-1026
1112,12.745878,2,6,9,9,27,-1020
1113,12.757545,3,6,9,12,32,-1024
1114,12.7692,2,6,9,13,31,-1019
1115,12.780864,3,6,9,14,32,-1020
1116,12.79252,2,6,9,8,29,-1031
1117,12.804169,2,6,9,8,28,-1022
1118,12.81586,2,7,8,12,29,-1026
1119,12.827516,3,6,9,10,31,-1019
1120,12.839099,3,6,9,10,31,-1026
1121,12.850687,2,6,10,10,31,-1024
1122,12.862325,2,6,9,5,28,-1023
1123,12.873923,2,6,10,12,35,-1027
1124,12.885484,2,6,9,6,31,-1024
1125,12.897046,2,7,10,13,30,-1024
1126,12.90859,3,6,10,10,32,-1021
1127,12.920174,2,6,9,4,31,-1024
1128,12.931785,2,7,8,9,28,-1026
1129,12.943453,2,6,9,12,30,-1021
1130,12.955104,2,6,9,11,28,-1024
1131,12.966776,2,6,9,10,31,-1027
1132,12.978452,2,5,9,10,29,-1022
1133,12.990126,3,6,9,12,34,-1023
1134,13.001776,2,6,9,4,29,-1026
1135,13.013475,2,6,9,8,30,-1023
1136,13.025124,2,6,9,10,30,-1023
1137,13.036769,2,6,10,7,27,-1019
1138,13.048428,2,6,9,12,30,-1022
1139,13.060093,2,6,9,12,30,-1024
1140,13.071742,2,6,9,9,28,-1024
1141,13.083394,2,6,9,12,31,-1021
1142,13.095037,2,6,8,17,34,-1021
1143,13.106691,2,6,9,11,30,-1023
1144,13.118382,3,6,9,8,28,-1019
1145,13.130043,3,6,8,9,34,-1021
1146,13.141695,2,6,9,11,30,-1020
1147,13.15335,2,6,9,9,33,-1024
1148,13.164993,3,5,9,11,31,-1017
1149,13.176645,2,6,8,13,30,-1025
1150,13.188289,3,6,9,7,31,-1023
1151,13.199937,2,6,9,11,29,-1031
1152,13.211633,3,6,9,11,32,-1015
1153,13.223277,2,6,9,8,29,-1019
1154,13.234958,2,6,9,11,30,-1025
1155,13.246717,2,7,9,10,31,-1023
1156,13.25842,2,6,9,13,30,-1031
1157,13.270225,2,6,10,14,29,-1018
1158,13.281882,3,6,8,7,25,-1021
1159,13.293539,2,6,10,13,33,-1028
1160,13.305204,2,6,9,10,31,-1019
1161,13.316864,3,6,9,11,31,-1028
1162,13.328503,2,5,9,11,31,-1022
1163,13.340169,2,5,9,9,33,-1022
1164,13.351889,2,5,9,11,32,-1020
1165,13.363457,3,5,9,13,31,-1026
1166,13.375039,2,6,9,10,33,-1018
1167,13.386564,2,7,9,8,30,-1021
1168,13.398127,2,6,8,11,33,-1022
1169,13.409717,2,6,8,15,34,-1023
1170,13.421293,2,6,9,11,32,-1019
1171,13.432843,2,6,9,10,31,-1020
1172,13.4444,2,6,8,11,32,-1020
1173,13.456037,3,7,9,14,33,-1023
1174,13.46771,2,6,9,12,35,-1026
1175,13.479369,2,6,8,8,32,-1023
1176,13.49102,3,6,9,7,30,-1026
1177,13.502654,2,6,9,11,30,-1017
1178,13.514308,2,6,9,10,30,-1033
1179,13.525996,2,6,9,11,30,-1024
1180,13.537622,3,7,9,12,33,-1028
1181,13.549273,3,6,8,6,28,-1022
1182,13.560922,2,7,9,8,28,-1021
1183,13.572592,2,6,9,10,37,-1018
1184,13.584261,2,6,8,8,30,-1023
1185,13.59591,2,6,8,10,32,-1024
1186,13.607584,2,6,8,8,29,-1022
1187,13.619263,2,6,9,8,27,-1021
1188,13.630911,2,7,9,11,33,-1030
1189,13.642589,2,6,9,14,33,-1021
1190,13.654286,2,5,9,7,28,-1027
1191,13.665942,2,6,9,8,28,-1023
1192,13.677624,2,6,9,12,30,-1023
1193,13.689268,3,6,9,10,32,-1019
1194,13.700937,2,5,8,11,29,-1019
1195,13.712585,3,5,9,8,31,-1021
1196,13.724242,2,5,10,12,33,-1024
1197,13.735893,2,7,9,13,24,-1027
1198,13.747537,2,6,9,17,30,-1021
1199,13.759221,3,6,8,13,30,-1023
1200,13.770905,3,6,9,12,31,-1024
1201,13.782559,3,6,9,10,30,-1030
1202,13.794217,2,7,10,12,33,-1020
1203,13.805884,3,6,9,13,29,-1026
1204,13.817538,3,6,9,9,32,-1027
1205,13.829194,2,6,9,8,33,-1014
1206,13.840875,2,6,9,8,32,-1022
1207,13.852517,2,6,9,11,32,-1023
1208,13.864175,2,6,9,10,34,-1024
1209,13.875886,2,6,9,10,30,-1022
1210,13.887633,2,6,8,8,30,-1016
1211,13.899187,2,6,8,9,30,-1020
1212,13.910773,2,6,9,13,27,-1026
1213,13.922319,3,6,9,10,38,-1018
1214,13.933908,2,6,9,7,34,-1025
1215,13.945475,2,6,9,8,36,-1028
1216,13.957065,2,7,8,9,30,-1028
1217,13.968634,2,6,8,8,30,-1022
1218,13.980334,2,6,9,13,34,-1014
1219,13.991995,2,6,9,12,34,-1025
1220,14.00365,2,6,9,13,30,-1021
1221,14.015279,3,7,9,5,33,-1023
1222,14.026938,2,7,10,15,32,-1023
1223,14.038641,2,7,9,10,29,-1019
1224,14.050297,2,6,9,11,27,-1025
1225,14.061958,2,6,9,10,32,-1026
1226,14.073615,2,6,9,12,29,-1021
1227,14.085171,4,6,9,11,32,-1015
1228,14.096721,2,6,9,12,32,-1020
1229,14.108289,2,6,9,12,30,-1027
1230,14.119837,2,6,9,9,33,-1022
1231,14.131416,2,6,8,11,33,-1021
1232,14.142958,2,6,8,13,29,-1019
1233,14.154501,3,6,9,12,30,-1015
1234,14.166067,3,6,9,14,34,-1024
1235,14.177601,2,7,9,8,30,-1023
1236,14.189231,3,6,9,14,30,-1016
1237,14.200887,2,7,9,7,29,-1020
1238,14.212532,2,6,9,13,32,-1021
1239,14.22418,2,6,9,11,32,-1028
1240,14.235846,2,7,9,7,33,-1017
1241,14.247492,2,6,9,12,32,-1023
1242,14.259138,2,6,9,7,29,-1020
1243,14.270819,2,6,9,13,27,-1021
1244,14.282527,2,6,10,16,31,-1022
1245,14.294213,2,7,9,11,31,-1021
1246,14.305812,3,6,9,12,29,-1021
1247,14.31735,3,6,8,10,29,-1022
1248,14.328944,2,6,9,12,32,-1027
1249,14.340493,2,6,9,8,26,-1024
1250,14.352043,3,6,9,13,32,-1021
1251,14.363603,2,6,9,12,25,-1017
1252,14.37519,2,6,9,14,33,-1022
1253,14.386767,2,6,9,13,30,-1026
1254,14.398391,2,6,10,12,28,-1023
1255,14.410078,3,6,8,9,27,-1017
1256,14.421755,2,6,8,9,34,-1018
1257,14.433439,2,7,10,14,30,-1027
1258,14.4451,2,7,9,10,29,-1021
1259,14.456758,3,7,9,12,33,-1021
1260,14.468401,3,6,9,10,29,-1020
1261,14.480073,2,6,9,10,31,-1019
1262,14.491813,3,6,9,11,33,-1025
1263,14.503482,2,5,9,10,35,-1024
1264,14.515054,2,7,9,10,30,-1018
1265,14.526605,2,6,8,9,30,-1020
1266,14.538193,2,6,9,14,31,-1026
1267,14.549768,2,6,9,7,33,-1030
1268,14.561344,2,6,9,12,29,-1024
1269,14.572939,2,6,9,10,30,-1027
1270,14.584499,3,6,9,12,25,-1020
1271,14.596066,3,6,9,9,31,-1016
1272,14.60769,3,6,9,11,32,-1021
1273,14.619346,2,6,9,10,32,-1021
1274,14.630996,2,6,9,9,33,-1028
1275,14.642652,2,5,9,10,27,-1026
1276,14.654324,3,5,9,8,31,-1024
1277,14.665995,2,6,9,15,31,-1023
1278,14.67762,2,6,9,11,28,-1022
1279,14.68927,2,7,9,11,29,-1020
1280,14.700972,2,7,9,10,28,-1024
1281,14.712636,2,6,9,5,29,-1028
1282,14.724192,2,6,9,8,33,-1024
1283,14.735739,2,6,9,10,31,-1028
1284,14.747304,3,7,10,12,32,-1023
1285,14.758855,2,7,8,14,30,-1014
1286,14.770435,2,5,9,11,27,-1028
1287,14.782033,3,5,9,11,36,-1027
1288,14.793593,2,6,9,8,30,-1018
1289,14.805184,3,6,9,10,30,-1027
1290,14.81681,2,6,9,10,30,-1025
1291,14.828501,2,6,9,12,31,-1020
1292,14.840156,2,7,9,9,32,-1021
1293,14.851828,2,6,9,11,36,-1024
1294,14.863482,2,6,8,10,30,-1027
1295,14.875131,2,6,9,9,32,-1025
1296,14.886816,2,5,9,10,29,-1028
1297,14.898505,3,7,9,12,30,-1022
1298,14.910319,2,7,9,11,29,-1020
1299,14.921996,2,7,9,10,30,-1029
1300,14.933581,3,6,9,8,30,-1018
1301,14.945182,2,5,8,13,28,-1022
1302,14.956739,2,6,9,8,35,-1026
1303,14.968287,2,7,9,9,31,-1024
1304,14.97984,2,6,9,8,32,-1020
1305,14.991433,2,6,8,11,29,-1017
1306,15.002985,3,6,9,10,33,-1017
1307,15.014568,2,5,8,10,26,-1017
1308,15.026201,2,6,9,6,30,-1026
1309,15.037871,2,7,9,13,33,-1019
1310,15.049527,2,6,9,14,34,-1025
1311,15.061243,2,6,9,9,31,-1022
1312,15.072888,3,6,9,9,30,-1018
1313,15.084533,2,6,9,11,33,-1026
1314,15.096207,2,6,9,10,29,-1028
1315,15.107846,2,6,9,12,30,-1019
1316,15.11951,2,6,9,10,30,-1021
1317,15.131197,2,6,8,9,33,-1020
1318,15.142787,2,6,9,13,29,-1021
1319,15.154316,2,6,9,9,30,-1018
1320,15.165827,2,6,9,11,28,-1020
1321,15.177342,2,6,9,11,33,-1019
1322,15.188885,2,6,9,8,31,-1022
1323,15.200429,2,7,9,10,31,-1026
1324,15.211988,2,7,9,12,31,-1027
1325,15.223556,2,6,9,8,30,-1020
1326,15.235205,2,6,9,10,31,-1029
1327,15.246889,1,6,9,11,34,-1020
1328,15.258608,2,6,9,11,28,-1026
1329,15.270311,2,6,9,12,31,-1014
1330,15.281999,2,6,9,10,28,-1021
1331,15.293681,2,6,9,6,29,-1023
1332,15.305363,3,6,9,9,33,-1023
1333,15.31702,3,7,9,7,32,-1026
1334,15.328745,3,6,9,10,28,-1025
1335,15.340395,2,7,9,11,29,-1018
1336,15.35205,2,6,9,10,31,-1020
1337,15.363736,2,7,9,12,34,-1023
1338,15.375381,2,6,9,13,34,-1024
1339,15.38703,2,6,9,9,32,-1022
1340,15.398653,2,6,9,12,31,-1025
1341,15.410329,3,6,9,8,30,-1025
1342,15.42201,2,6,8,9,30,-1021
1343,15.433744,2,6,10,12,29,-1022
1344,15.445362,2,6,9,11,28,-1028
1345,15.457013,2,6,9,13,33,-1024
1346,15.468685,2,6,9,11,32,-1026
1347,15.48036,2,7,8,11,27,-1022
1348,15.49202,2,6,8,11,30,-1018
1349,15.503673,2,5,8,10,32,-1023
1350,15.515357,2,5,8,10,32,-1018
1351,15.527017,2,6,9,10,34,-1018
1352,15.538739,2,7,9,10,28,-1020
1353,15.550402,2,5,9,9,31,-1016
1354,15.561979,2,6,8,9,30,-1021
1355,15.573565,2,6,9,14,30,-1028
1356,15.585136,2,6,10,8,34,-1019
1357,15.596682,2,5,9,9,30,-1022
1358,15.608226,2,5,9,10,30,-1022
1359,15.61978,2,6,8,8,34,-1021
1360,15.631332,2,6,9,11,32,-1019
1361,15.642891,2,7,9,11,31,-1018
1362,15.654512,2,6,10,11,25,-1029
1363,15.666175,2,6,9,13,32,-1019
1364,15.677871,2,7,9,8,29,-1025
1365,15.689521,2,6,9,11,33,-1023
1366,15.701167,2,6,9,10,28,-1021
1367,15.712841,2,6,10,11,33,-1018
1368,15.724483,2,5,9,10,27,-1019
1369,15.736134,2,5,9,13,33,-1020
1370,15.747793,3,6,9,9,34,-1025
1371,15.75946,3,6,10,13,30,-1023
1372,15.771115,2,6,10,9,31,-1024
1373,15.782778,2,6,9,12,29,-1026
1374,15.794433,3,6,9,13,31,-1028
1375,15.80615,2,6,9,11,31,-1023
1376,15.817849,2,6,9,8,32,-1024
1377,15.829509,2,6,10,12,29,-1023
1378,15.841175,3,6,10,10,30,-1021
1379,15.852842,3,6,9,9,31,-1020
1380,15.86451,3,6,9,10,31,-1019
1381,15.876062,2,7,9,9,34,-1024
1382,15.887615,2,6,9,14,31,-1024
1383,15.899176,2,6,8,9,28,-1024
1384,15.910724,3,6,9,8,31,-1026
1385,15.922308,2,6,9,13,31,-1027
1386,15.933898,2,6,8,9,26,-1022
1387,15.945473,3,5,9,12,33,-1018
1388,15.957054,3,6,9,8,30,-1022
1389,15.968722,2,6,9,7,28,-1016
1390,15.980382,3,7,9,11,29,-1020
1391,15.992037,2,6,9,11,30,-1020
1392,16.003732,2,7,10,13,34,-1018
1393,16.015372,3,6,9,10,24,-1029
1394,16.027018,3,7,9,4,33,-1023
1395,16.038649,2,6,9,10,28,-1025
1396,16.050321,2,6,8,8,29,-1021
1397,16.062066,2,6,9,9,29,-1021
1398,16.073767,2,7,9,10,32,-1017
1399,16.085346,2,6,8,13,28,-1023
1400,16.096896,2,6,9,10,32,-1015
1401,16.108446,3,6,9,11,33,-1020
1402,16.120023,2,6,9,10,31,-1023
1403,16.131575,2,6,9,9,30,-1018
1404,16.143157,2,6,9,14,31,-1024
1405,16.154703,2,6,9,12,29,-1022
1406,16.166269,2,6,9,6,31,-1022
1407,16.1779,2,5,9,11,33,-1019
1408,16.189547,2,6,10,12,32,-1017
1409,16.201205,2,6,9,8,31,-1020
1410,16.212863,2,5,9,13,31,-1024
1411,16.224508,3,6,9,10,29,-1020
1412,16.23616,3,7,9,8,31,-1024
1413,16.247814,2,7,8,12,33,-1024
1414,16.259477,2,6,9,13,26,-1020
1415,16.271139,2,6,9,10,30,-1015
1416,16.282808,2,6,9,7,30,-1022
1417,16.294364,2,6,9,8,29,-1023
1418,16.305933,2,6,9,10,31,-1016
1419,16.317489,2,6,9,12,31,-1021
1420,16.329053,2,6,9,16,29,-1024
1421,16.340615,3,6,9,11,30,-1021
1422,16.352175,3,6,9,8,31,-1022
1423,16.363722,2,6,8,10,31,-1019
1424,16.375308,2,6,9,12,28,-1027
1425,16.386928,2,6,9,9,31,-1020
1426,16.398613,3,6,9,7,32,-1023
1427,16.410279,3,6,9,10,28,-1025
1428,16.421961,2,6,9,7,28,-1022
1429,16.433622,2,5,8,9,29,-1022
1430,16.445277,3,7,10,12,33,-1031
1431,16.456959,2,6,8,8,34,-1020
1432,16.468606,3,6,8,10,30,-1025
1433,16.480272,2,7,9,9,30,-1017
1434,16.491941,2,6,9,6,30,-1020
1435,16.503538,2,5,9,10,30,-1022
1436,16.515093,2,6,10,12,33,-1020
1437,16.526677,2,6,9,11,28,-1018
1438,16.538227,2,6,8,8,32,-1023
1439,16.549833,2,6,8,10,28,-1022
1440,16.561342,2,6,9,8,36,-1019
1441,16.572889,2,6,9,10,26,-1020
1442,16.584453,2,6,9,6,31,-1023
1443,16.596096,2,6,9,8,25,-1018
1444,16.607785,2,6,9,10,31,-1019
1445,16.619467,2,5,9,13,29,-1020
1446,16.631134,2,6,9,10,30,-1018
1447,16.642782,2,6,9,12,32,-1023
1448,16.654464,3,5,10,12,32,-1021
1449,16.666125,2,6,9,13,34,-1026
1450,16.677779,2,6,9,13,30,-1019
1451,16.689457,2,7,9,10,30,-1028
1452,16.701125,3,7,10,13,26,-1027
1453,16.712684,2,7,10,11,28,-1024
1454,16.724238,2,6,9,12,31,-1025
1455,16.735799,1,7,9,14,33,-1016
1456,16.747345,2,6,9,10,31,-1018
1457,16.758941,3,5,9,11,30,-1020
1458,16.770515,3,5,9,10,32,-1022
1459,16.782074,2,6,10,8,27,-1022
1460,16.793602,2,5,8,12,32,-1023
1461,16.805258,3,6,9,14,24,-1025
1462,16.81691,2,6,9,9,32,-1021
1463,16.828555,3,6,9,10,31,-1023
1464,16.840247,2,7,9,6,30,-1018
1465,16.851885,2,6,9,10,27,-1022
1466,16.863538,2,6,9,12,30,-1022
1467,16.875217,2,6,8,8,29,-1028
1468,16.886891,2,6,10,9,33,-1018
1469,16.898555,2,7,9,14,27,-1020
1470,16.910243,2,6,9,13,34,-1017
1471,16.921842,2,6,9,10,29,-1018
1472,16.933435,2,6,9,11,33,-1021
1473,16.944991,3,5,9,6,30,-1017
1474,16.956548,2,7,9,10,33,-1023
1475,16.968111,2,7,8,9,32,-1017
1476,16.979676,2,6,9,10,33,-1017
1477,16.991217,2,6,9,11,31,-1023
1478,17.002817,2,6,8,14,30,-1024
1479,17.014466,2,6,8,12,28,-1023
1480,17.026136,3,6,9,13,32,-1031
1481,17.037788,2,6,8,7,29,-1028
1482,17.049436,2,7,9,10,25,-1018
1483,17.061098,2,6,8,10,27,-1021
1484,17.07274,2,5,9,8,30,-1024
1485,17.084389,3,6,8,10,33,-1018
1486,17.096055,3,6,9,9,32,-1017
1487,17.107729,2,6,9,10,34,-1016
1488,17.119381,2,6,9,8,30,-1026
1489,17.131044,3,7,10,12,28,-1015
1490,17.142708,2,6,8,9,33,-1023
1491,17.154383,2,6,9,11,29,-1025
1492,17.166055,2,6,8,8,28,-1023
1493,17.177735,3,6,10,10,27,-1014
1494,17.189364,2,6,9,8,32,-1026
1495,17.201011,2,6,9,10,29,-1020
1496,17.212701,2,5,9,9,29,-1025
1497,17.224366,2,6,9,7,31,-1024
1498,17.236013,3,6,9,12,31,-1025
1499,17.247675,3,6,9,12,27,-1017
1500,17.259331,2,6,9,14,32,-1027
1501,17.270973,3,6,9,9,30,-1020
1502,17.282649,3,6,10,11,29,-1021
1503,17.29435,3,6,9,8,34,-1025
1504,17.306036,2,7,9,14,29,-1023
1505,17.317754,3,6,9,16,28,-1025
1506,17.329384,3,7,9,6,28,-1021
1507,17.340947,2,6,9,14,34,-1016
1508,17.352516,2,6,9,9,30,-1027
1509,17.364055,2,6,9,12,28,-1021
1510,17.375595,3,6,8,10,33,-1026
1511,17.387144,2,6,9,9,30,-1027
1512,17.398698,2,6,8,10,31,-1021
1513,17.410266,2,6,8,6,29,-1021
1514,17.421847,2,5,9,9,28,-1021
1515,17.433489,2,7,9,10,31,-1025
1516,17.445149,3,6,9,11,31,-1023
1517,17.456817,2,6,10,8,33,-1019
1518,17.468477,2,6,9,11,29,-1022
1519,17.480131,2,6,9,8,33,-1029
1520,17.491783,3,6,9,12,31,-1024
1521,17.503431,2,6,9,13,29,-1023
1522,17.515089,3,7,9,8,29,-1024
1523,17.52678,2,5,9,7,28,-1019
1524,17.538451,3,7,10,6,31,-1018
1525,17.550022,2,6,9,10,32,-1014
1526,17.561592,2,6,9,8,36,-1025
1527,17.573145,2,6,9,12,30,-1025
1528,17.584696,2,6,9,8,30,-1021
1529,17.596281,2,6,8,12,28,-1023
1530,17.607832,3,7,9,11,32,-1022
1531,17.619412,2,6,8,13,34,-1016
1532,17.630967,3,6,8,10,28,-1023
1533,17.642616,2,7,10,10,28,-1020
1534,17.654274,2,7,9,9,30,-1019
1535,17.665958,3,6,8,12,33,-1027
1536,17.677614,4,7,9,8,30,-1023
1537,17.689256,3,6,9,6,31,-1022
1538,17.700905,2,5,9,13,29,-1027
1539,17.712576,2,6,9,12,31,-1021
1540,17.724227,2,6,9,11,32,-1016
1541,17.735879,2,6,9,11,30,-1019
1542,17.747537,3,6,9,11,30,-1019
1543,17.759201,2,7,9,13,31,-1018
1544,17.770876,2,6,9,10,33,-1022
1545,17.782529,2,7,9,10,29,-1027
1546,17.794209,3,6,9,9,31,-1021
1547,17.805867,2,6,9,11,32,-1024
1548,17.817516,2,5,9,10,33,-1024
1549,17.829165,2,6,9,8,29,-1030
1550,17.840849,2,7,9,11,32,-1020
1551,17.852494,2,6,9,14,28,-1018
1552,17.864143,2,6,8,11,27,-1024
1553,17.875805,2,6,9,9,33,-1023
1554,17.887466,2,6,9,11,35,-1023
1555,17.899118,2,5,8,12,28,-1027
1556,17.910777,3,6,9,9,29,-1027
1557,17.922447,3,6,9,12,33,-1023
1558,17.93412,2,7,8,9,29,-1023
1559,17.94577,2,6,9,8,32,-1019
1560,17.95747,2,6,9,8,35,-1026
1561,17.96912,3,6,8,10,31,-1023
1562,17.980769,3,6,9,8,31,-1019
1563,17.992422,2,5,9,8,29,-1022
1564,18.004102,3,5,9,13,30,-1019
1565,18.015758,2,6,9,10,30,-1019
1566,18.027423,3,6,8,5,30,-1017
1567,18.039085,3,6,9,13,28,-1020
1568,18.050759,2,6,9,9,31,-1018
1569,18.062309,3,5,9,11,31,-1016
1570,18.07382,2,7,9,7,30,-1024
1571,18.08534,3,6,9,8,34,-1017
1572,18.096879,3,6,9,16,28,-1025
1573,18.108424,2,6,8,12,32,-1021
1574,18.11997,3,6,9,9,27,-1025
1575,18.131533,2,6,9,13,32,-1024
1576,18.143084,2,6,9,9,29,-1020
1577,18.154673,3,6,9,7,29,-1028
1578,18.16631,3,6,9,12,33,-1020
1579,18.178003,3,7,9,9,32,-1013
1580,18.189612,2,6,9,12,32,-1026
1581,18.201269,2,7,9,10,33,-1025
1582,18.212957,2,6,10,9,33,-1020
1583,18.224602,2,7,9,7,33,-1024
1584,18.236253,3,6,8,9,30,-1025
1585,18.247927,3,6,9,9,31,-1029
1586,18.259587,2,6,9,12,28,-1023
1587,18.271207,3,5,9,11,28,-1022
1588,18.282819,2,5,10,8,34,-1018
1589,18.294418,3,4,9,11,29,-1025
1590,18.305981,3,6,10,11,30,-1025
1591,18.317564,2,7,9,13,33,-1025
1592,18.329109,2,7,8,9,29,-1024
1593,18.340658,3,6,8,13,30,-1024
1594,18.35221,3,6,9,11,32,-1016
1595,18.363789,2,6,8,10,28,-1023
1596,18.37543,2,6,9,10,31,-1020
1597,18.387094,2,6,9,10,33,-1019
1598,18.398818,2,6,9,10,31,-1022
1599,18.41051,3,6,9,7,31,-1023
1600,18.42219,3,6,8,14,31,-1020
1601,18.433872,2,6,9,11,28,-1024
1602,18.445532,3,6,9,12,31,-1024
1603,18.457218,2,6,9,9,32,-1021
1604,18.468872,2,6,9,11,32,-1023
1605,18.480533,3,7,9,12,31,-1023
1606,18.492088,3,6,9,10,32,-1021
1607,18.503636,3,6,9,14,29,-1024
1608,18.515182,2,7,9,10,29,-1013
1609,18.526756,2,6,8,16,28,-1022
1610,18.538317,2,6,9,12,28,-1015
1611,18.549833,2,5,9,9,30,-1021
1612,18.56135,2,5,10,11,30,-1025
1613,18.575387,2,6,9,11,33,-1026
1614,18.586978,2,6,9,9,30,-1020
1615,18.598558,3,6,8,11,32,-1025
1616,18.610119,2,6,10,10,32,-1023
1617,18.621678,2,6,9,11,31,-1021
1618,18.63322,2,5,9,10,28,-1024
1619,18.644762,2,6,9,9,31,-1021
1620,18.656313,3,6,9,10,29,-1025
1621,18.667859,3,6,9,10,27,-1019
1622,18.679494,3,6,9,8,28,-1016
1623,18.69114,2,7,9,8,26,-1027
1624,18.702827,2,6,8,13,30,-1024
1625,18.714522,2,6,9,10,27,-1023
1626,18.726176,2,6,9,10,28,-1021
1627,18.737874,3,6,9,12,28,-1026
1628,18.749543,2,6,8,10,33,-1024
1629,18.761201,2,6,9,15,31,-1022
1630,18.772867,2,6,9,9,30,-1021
1631,18.784588,2,6,9,8,30,-1023
1632,18.796272,2,6,10,12,29,-1020
1633,18.807829,3,6,9,12,33,-1025
1634,18.819413,2,7,9,9,29,-1023
1635,18.830955,3,6,10,12,33,-1019
1636,18.842494,3,6,10,11,31,-1020
1637,18.854072,3,6,9,12,27,-1025
1638,18.865593,2,7,9,10,29,-1020
1639,18.877139,3,5,9,15,30,-1023
1640,18.888695,2,6,9,13,29,-1023
1641,18.900342,2,7,9,12,30,-1020
1642,18.91199,3,7,9,5,30,-1017
1643,18.923644,2,6,9,12,29,-1023
1644,18.935289,2,6,9,14,27,-1026
1645,18.946941,2,6,9,10,32,-1025
1646,18.958635,2,5,8,9,29,-1016
1647,18.970287,3,6,9,14,31,-1021
1648,18.981933,2,6,9,9,34,-1020
1649,18.993628,2,6,9,11,32,-1019
1650,19.005282,2,6,9,11,29,-1024
1651,19.016845,2,6,8,8,32,-1023
1652,19.028393,2,7,10,11,27,-1021
1653,19.039948,2,7,10,11,30,-1015
1654,19.051519,2,6,9,12,28,-1020
1655,19.06307,2,7,9,14,32,-1019
1656,19.074621,2,6,8,10,30,-1022
1657,19.086194,2,6,9,11,31,-1018
1658,19.097777,2,6,9,10,30,-1018
1659,19.109428,2,6,9,12,28,-1018
1660,19.121093,2,6,9,8,28,-1028
1661,19.132746,1,6,9,10,28,-1017
1662,19.144386,2,7,9,10,29,-1020
1663,19.156041,2,6,8,14,29,-1021
1664,19.167758,2,6,9,13,30,-1028
1665,19.179406,3,6,9,11,32,-1027
1666,19.191077,2,7,9,7,30,-1016
1667,19.202754,2,6,9,8,34,-1022
1668,19.214433,2,7,9,10,29,-1023
1669,19.225987,2,7,9,9,31,-1023
1670,19.237562,3,6,9,10,29,-1027
1671,19.249123,3,6,9,9,28,-1023
1672,19.26077,2,6,9,15,32,-1023
1673,19.272463,3,6,9,11,31,-1019
1674,19.284096,2,6,8,14,32,-1021
1675,19.295655,2,5,10,10,29,-1025
1676,19.307277,2,6,10,9,31,-1019
1677,19.318842,3,6,8,10,31,-1021
1678,19.330414,2,7,9,9,32,-1022
1679,19.341967,2,6,9,10,33,-1026
1680,19.35353,3,5,9,10,33,-1025
1681,19.36508,3,7,9,8,32,-1018
1682,19.376628,2,6,9,10,29,-1021
1683,19.388173,3,6,8,11,27,-1022
1684,19.399729,3,6,9,11,32,-1021
1685,19.411282,3,6,9,9,29,-1026
1686,19.422969,2,6,9,9,28,-1025
1687,19.434648,2,6,9,10,31,-1024
1688,19.446327,3,6,9,11,30,-1013
1689,19.45801,3,6,9,7,31,-1021
1690,19.469667,3,6,9,11,32,-1020
1691,19.481364,3,6,9,7,29,-1024
1692,19.493026,2,6,9,12,31,-1019
1693,19.504674,2,6,9,11,30,-1023
1694,19.516374,2,6,9,14,29,-1017
1695,19.52807,2,6,9,10,34,-1013
1696,19.539696,2,6,9,11,33,-1021
1697,19.551269,2,5,9,7,31,-1021
1698,19.562818,3,6,9,14,29,-1022
1699,19.574409,3,6,9,13,28,-1027
1700,19.58597,3,6,8,7,30,-1021
1701,19.597538,3,6,9,11,34,-1022
1702,19.609086,3,6,9,9,30,-1018
1703,19.620646,2,6,9,10,33,-1017
1704,19.632274,2,6,9,11,30,-1019
1705,19.643921,3,7,9,10,32,-1023
1706,19.655592,3,6,9,10,29,-1019
1707,19.667267,3,5,9,11,31,-1027
1708,19.678916,2,6,10,11,33,-1021
1709,19.690591,2,7,9,16,31,-1019
1710,19.702268,2,6,9,10,29,-1020
1711,19.713921,2,6,9,9,32,-1020
1712,19.725626,2,6,9,10,31,-1028
1713,19.737295,2,6,10,12,32,-1018
1714,19.748856,2,7,10,9,32,-1027
1715,19.760407,3,6,9,11,31,-1019
1716,19.771999,2,5,10,11,30,-1020
1717,19.783552,2,6,10,8,34,-1022
1718,19.795119,2,6,9,10,31,-1026
1719,19.806684,2,6,9,8,32,-1024
1720,19.818245,2,6,9,12,28,-1019
1721,19.829837,2,6,10,7,27,-1020
1722,19.841487,3,6,9,10,32,-1017
1723,19.853146,2,6,9,8,31,-1020
1724,19.864814,2,6,9,10,31,-1018
1725,19.876469,2,6,9,11,28,-1020
1726,19.88812,2,6,9,14,32,-1024
1727,19.899777,3,6,9,10,31,-1016
1728,19.911451,3,6,9,8,27,-1019
1729,19.923106,2,6,9,8,26,-1020
1730,19.934787,2,5,9,14,31,-1020
1731,19.946438,3,6,9,12,26,-1019
1732,19.958125,2,5,9,11,29,-1019
1733,19.969789,2,6,10,8,31,-1021
1734,19.98144,3,6,9,10,29,-1021
1735,19.9931,2,6,9,11,35,-1017
1736,20.004752,3,6,9,10,29,-1027
1737,20.016392,2,6,8,12,30,-1021
1738,20.028047,2,5,8,10,31,-1026
1739,20.039784,2,5,9,11,31,-1028
1740,20.051475,3,6,9,8,30,-1033
1741,20.063045,2,6,10,7,29,-1019
1742,20.074602,3,5,9,9,28,-1016
1743,20.08617,3,6,9,11,34,-1025
1744,20.097749,2,6,9,10,31,-1019
1745,20.109344,2,6,9,7,29,-1016
1746,20.120892,2,6,9,11,31,-1022
1747,20.132435,2,7,9,6,32,-1022
1748,20.144018,3,6,9,12,30,-1014
1749,20.155642,2,6,9,11,31,-1022
1750,20.167317,3,6,9,11,29,-1016
1751,20.178975,2,7,9,9,29,-1024
1752,20.190682,2,6,9,14,32,-1027
1753,20.202411,3,6,9,11,33,-1024
1754,20.214128,3,6,10,14,32,-1020
1755,20.225786,3,6,9,13,29,-1028
1756,20.23744,2,7,9,10,31,-1024
1757,20.249125,3,6,9,11,32,-1017
1758,20.260859,2,6,9,14,30,-1022
1759,20.272419,2,6,9,10,32,-1029
1760,20.283985,2,6,9,10,34,-1025
1761,20.295549,2,5,9,11,32,-1019
1762,20.307118,2,6,9,11,32,-1024
1763,20.318691,2,6,9,10,34,-1020
1764,20.330283,2,6,9,7,31,-1024
1765,20.34184,2,6,10,7,28,-1021
1766,20.353444,2,6,9,12,30,-1018
1767,20.365087,2,7,9,16,29,-1023
1768,20.376745,2,6,10,10,32,-1022
1769,20.388388,3,7,9,10,28,-1020
1770,20.400041,2,5,9,10,32,-1020
1771,20.41173,2,6,8,12,30,-1029
1772,20.423371,2,6,9,9,30,-1019
1773,20.43502,2,6,9,10,31,-1021
1774,20.446687,3,6,8,12,29,-1026
1775,20.458401,2,6,8,8,28,-1021
1776,20.47006,2,5,8,13,36,-1025
1777,20.481752,3,6,8,11,34,-1019
1778,20.493399,2,6,9,7,31,-1024
1779,20.505069,2,6,9,8,30,-1032
1780,20.516729,2,6,9,14,31,-1015
1781,20.528364,2,6,9,13,29,-1020
1782,20.54001,2,6,9,10,29,-1019
1783,20.551685,2,6,8,10,30,-1020
1784,20.563351,2,6,9,9,27,-1024
1785,20.575009,2,6,9,8,27,-1018
1786,20.586568,2,6,9,13,31,-1021
1787,20.598121,2,6,9,10,29,-1021
1788,20.609669,2,6,9,11,31,-1018
1789,20.621245,2,6,10,7,31,-1020
1790,20.632804,2,7,9,14,28,-1025
1791,20.644363,3,6,9,8,31,-1026
1792,20.655937,3,7,9,11,30,-1022
1793,20.667489,2,6,9,10,29,-1019
1794,20.67911,2,6,9,10,36,-1023
1795,20.690782,2,6,9,13,27,-1023
1796,20.70244,2,5,9,11,25,-1023
1797,20.714128,2,6,9,13,27,-1022
1798,20.725781,2,7,10,11,28,-1022
1799,20.737433,2,6,8,9,27,-1017
1800,20.749096,3,7,9,9,30,-1022
1801,20.760756,2,6,9,11,27,-1024
1802,20.772415,2,6,7,13,31,-1021
1803,20.784085,3,6,9,9,31,-1026
1804,20.795678,3,5,9,8,32,-1025
1805,20.807253,3,6,9,15,27,-1019
1806,20.8188,3,7,9,9,36,-1016
1807,20.830313,2,6,9,11,27,-1019
1808,20.841829,2,5,9,3,28,-1015
1809,20.853434,2,5,8,11,32,-1028
1810,20.864983,3,7,9,9,31,-1021
1811,20.876556,2,6,9,12,28,-1021
1812,20.888178,2,5,10,11,29,-1023
1813,20.899852,3,6,9,11,32,-1017
1814,20.911504,2,6,9,9,29,-1022
1815,20.923169,2,7,9,11,30,-1023
1816,20.934843,3,7,9,11,31,-1020
1817,20.94651,3,6,9,9,32,-1023
1818,20.958143,3,6,9,11,32,-1021
1819,20.969814,2,6,8,12,31,-1021
1820,20.98148,2,6,9,12,30,-1029
1821,20.993049,2,6,9,10,33,-1029
1822,21.00459,2,6,8,12,32,-1022
1823,21.01615,2,7,9,11,29,-1028
1824,21.027706,2,6,8,10,29,-1023
1825,21.039276,2,6,9,13,30,-1018
1826,21.050842,2,7,9,8,29,-1025
1827,21.062432,2,6,9,11,29,-1018
1828,21.073994,2,6,9,10,34,-1023
1829,21.085576,2,5,9,8,32,-1022
1830,21.097204,2,6,9,12,31,-1026
1831,21.108873,3,6,8,8,27,-1022
1832,21.12054,3,6,8,8,33,-1024
1833,21.132199,2,7,9,12,32,-1028
1834,21.14386,3,6,9,12,27,-1029
1835,21.155518,2,6,9,10,32,-1020
1836,21.167172,2,6,9,9,27,-1014
1837,21.178844,3,6,9,11,29,-1022
1838,21.190534,2,6,9,7,34,-1018
1839,21.202205,2,6,8,7,35,-1019
1840,21.213794,2,6,9,14,32,-1023
1841,21.225351,3,6,9,8,31,-1019
1842,21.236918,2,6,9,11,28,-1019
1843,21.248457,2,6,9,7,28,-1023
1844,21.260028,1,6,9,7,29,-1021
1845,21.271576,2,6,8,12,25,-1028
1846,21.283121,2,6,9,11,32,-1030
1847,21.294694,2,6,9,8,25,-1018
1848,21.306388,4,6,9,14,33,-1029
1849,21.318055,3,6,9,11,27,-1026
1850,21.32974,2,5,9,11,30,-1016
1851,21.341403,2,6,10,13,30,-1020
1852,21.353065,3,6,9,15,33,-1025
1853,21.364721,2,6,9,9,31,-1028
1854,21.376376,2,6,8,4,30,-1020
1855,21.388056,2,6,8,11,32,-1014
1856,21.399724,2,7,9,11,29,-1022
1857,21.411378,2,7,9,14,30,-1020
1858,21.423042,3,6,9,8,35,-1019
1859,21.434705,3,6,9,11,33,-1022
1860,21.446384,2,5,9,12,26,-1028
1861,21.458057,3,7,9,15,26,-1023
1862,21.469787,2,6,8,9,27,-1024
1863,21.481476,3,5,8,12,29,-1028
1864,21.493128,2,6,10,11,27,-1020
1865,21.504794,2,6,9,10,29,-1019
1866,21.516443,2,6,10,9,30,-1016
1867,21.528107,3,5,9,11,32,-1025
1868,21.539754,3,6,9,9,32,-1033
1869,21.551402,2,7,9,10,33,-1024
1870,21.563077,2,7,9,14,30,-1023
1871,21.574747,2,6,9,10,29,-1014
1872,21.586392,2,6,10,10,30,-1025
1873,21.598063,2,6,9,10,29,-1021
1874,21.609744,2,6,10,12,28,-1017
1875,21.621357,1,6,9,17,34,-1022
1876,21.632908,3,6,9,13,33,-1027
1877,21.644455,2,6,8,12,29,-1021
1878,21.656033,2,5,9,12,31,-1016
1879,21.667581,3,6,9,10,29,-1024
1880,21.679164,2,5,9,9,33,-1030
1881,21.690714,3,6,8,8,26,-1024
1882,21.70228,2,6,9,7,28,-1025
1883,21.713835,2,6,9,9,31,-1021
1884,21.725517,2,7,9,9,31,-1021
1885,21.737165,2,6,9,8,31,-1024
1886,21.748858,2,6,9,10,32,-1022
1887,21.76051,2,6,9,14,31,-1020
1888,21.772155,2,7,9,14,30,-1024
1889,21.783821,2,6,9,9,30,-1020
1890,21.795475,2,6,9,11,32,-1013
1891,21.807122,2,6,8,9,30,-1022
1892,21.818804,3,6,9,10,31,-1026
1893,21.830498,2,6,9,12,33,-1021
1894,21.842125,3,5,9,8,32,-1023
1895,21.853793,2,6,8,9,31,-1023
1896,21.86548,2,5,9,8,28,-1019
1897,21.877131,2,6,10,7,28,-1025
1898,21.888774,1,6,10,10,32,-1019
1899,21.900423,3,6,9,7,32,-1025
1900,21.912091,2,6,8,8,32,-1025
1901,21.92377,2,5,9,11,28,-1026
1902,21.935422,2,6,9,9,30,-1024
1903,21.947092,2,6,10,12,33,-1020
1904,21.958764,2,7,9,12,30,-1023
1905,21.970379,2,6,10,12,29,-1022
1906,21.982052,2,6,9,10,30,-1028
1907,21.993733,3,6,9,10,30,-1018
1908,22.005352,2,5,9,11,31,-1022
1909,22.016996,2,5,9,13,27,-1022
1910,22.028677,2,6,9,11,31,-1021
1911,22.040337,2,6,9,7,28,-1024
1912,22.051985,2,6,9,6,27,-1019
1913,22.063635,2,7,9,9,30,-1021
1914,22.075282,3,7,9,9,31,-1024
1915,22.086953,3,6,9,12,30,-1024
1916,22.098645,2,6,10,12,32,-1024
1917,22.110302,2,6,9,11,32,-1023
1918,22.121989,2,7,9,9,28,-1020
1919,22.133646,2,6,9,12,31,-1020
1920,22.145345,2,6,9,9,34,-1020
1921,22.156926,3,5,9,12,33,-1023
1922,22.168474,3,6,9,10,30,-1024
1923,22.18003,3,5,8,11,30,-1025
1924,22.191583,2,6,9,10,30,-1028
1925,22.203131,2,6,10,11,33,-1023
1926,22.214686,3,6,9,12,32,-1024
1927,22.226281,2,6,9,12,34,-1025
1928,22.23787,2,6,9,10,29,-1022
1929,22.249504,2,6,9,12,30,-1020
1930,22.261185,2,7,9,14,26,-1015
1931,22.27284,2,6,9,14,31,-1024
1932,22.284491,2,6,9,9,32,-1029
1933,22.296146,2,6,9,11,32,-1025
1934,22.307795,3,5,9,10,32,-1020
1935,22.31946,3,6,9,14,31,-1023
1936,22.331115,2,6,10,13,31,-1021
1937,22.342797,2,6,9,13,29,-1023
1938,22.354465,2,6,9,17,28,-1024
1939,22.366065,2,6,9,10,26,-1022
1940,22.37768,2,6,9,13,30,-1020
1941,22.389234,3,7,9,13,28,-1024
1942,22.400796,2,6,9,12,32,-1026
1943,22.412352,3,6,8,14,32,-1026
1944,22.423928,3,6,9,7,27,-1026
1945,22.435482,2,5,9,12,30,-1020
1946,22.447064,2,6,9,12,33,-1023
1947,22.458687,2,6,9,9,34,-1022
1948,22.470377,2,7,9,9,29,-1021
1949,22.482044,3,6,9,9,32,-1024
1950,22.493755,2,6,8,8,29,-1028
1951,22.505428,2,6,8,11,34,-1024
1952,22.517093,2,6,9,10,34,-1017
1953,22.528744,2,6,8,13,32,-1024
1954,22.540386,2,6,9,5,32,-1018
1955,22.55205,2,7,10,10,30,-1015
1956,22.563724,2,6,9,11,31,-1020
1957,22.575302,2,6,8,8,28,-1020
1958,22.586854,2,6,9,10,32,-1023
1959,22.598433,2,6,9,13,34,-1019
1960,22.61003,2,6,9,11,33,-1025
1961,22.621596,2,6,10,10,29,-1025
1962,22.633173,2,6,8,10,29,-1022
1963,22.64474,2,6,9,12,30,-1019
1964,22.656313,2,6,10,8,28,-1026
1965,22.668011,2,6,9,12,32,-1021
1966,22.679682,2,5,8,8,32,-1018
1967,22.691347,2,5,9,10,30,-1020
1968,22.702997,2,6,10,7,28,-1022
1969,22.714657,2,6,9,13,33,-1022
1970,22.726312,2,6,9,14,30,-1020
1971,22.738007,2,6,9,11,31,-1022
1972,22.749676,3,5,9,7,30,-1018
1973,22.761366,2,6,9,10,31,-1024
1974,22.773031,3,6,9,11,31,-1024
1975,22.784588,2,6,9,9,29,-1018
1976,22.796164,2,6,9,11,28,-1022
1977,22.807711,2,7,8,9,31,-1024
1978,22.819253,2,6,9,9,32,-1027
1979,22.830805,2,6,9,11,31,-1029
1980,22.842354,3,6,9,12,28,-1022
1981,22.853908,3,6,9,10,29,-1023
1982,22.865486,2,6,8,8,30,-1020
1983,22.877128,2,6,9,11,29,-1016
1984,22.888794,2,6,10,11,30,-1025
1985,22.90045,2,6,9,11,34,-1023
1986,22.912102,3,6,8,8,32,-1020
1987,22.923746,3,6,9,10,33,-1018
1988,22.935394,2,7,9,9,29,-1021
1989,22.947063,3,6,10,10,31,-1024
1990,22.958719,3,6,8,8,28,-1028
1991,22.970404,3,6,9,8,27,-1018
1992,22.982103,3,6,9,12,30,-1020
1993,22.993763,3,6,10,13,29,-1017
1994,23.005411,2,6,9,10,33,-1019
1995,23.017079,2,6,9,10,31,-1021
1996,23.02873,2,6,10,8,30,-1018
1997,23.040381,2,6,9,12,30,-1018
1998,23.052046,2,6,9,9,28,-1018
1999,23.063714,3,5,9,13,30,-1022
