sample,t_s,gyro_x,gyro_y,gyro_z,accel_x,accel_y,accel_z
0,1.3e-05,0,0,1,1032,2,-1540
1,0.011249,0,1,1,1034,3,-1547
2,0.022437,0,0,1,1033,-2,-1545
3,0.033619,0,-1,1,1031,1,-1544
4,0.044813,0,-2,1,1031,0,-1539
5,0.055969,0,-1,1,1030,-2,-1549
6,0.067153,0,0,1,1034,3,-1540
7,0.078348,1,1,1,1036,0,-1549
8,0.089538,1,1,1,1033,-1,-1546
9,0.10071,1,0,0,1030,0,-1538
10,0.111897,0,-1,1,1034,-1,-1536
11,0.123083,0,1,0,1036,-1,-1544
12,0.134266,1,0,0,1034,2,-1543
13,0.14545,0,0,0,1030,3,-1537
14,0.156641,1,0,1,1031,1,-1548
15,0.167779,1,0,1,1030,-1,-1558
16,0.178967,0,-2,1,1036,1,-1543
17,0.190159,0,-1,0,1029,0,-1543
18,0.201354,1,0,1,1031,-1,-1538
19,0.212523,1,1,0,1031,-1,-1543
20,0.223707,0,0,1,1035,-2,-1544
21,0.234888,0,-1,2,1032,1,-1543
22,0.246069,0,0,1,1031,2,-1543
23,0.257252,0,0,1,1034,-3,-1545
24,0.268444,1,1,1,1035,-1,-1543
25,0.279627,0,0,1,1033,1,-1542
26,0.29081,0,1,2,1035,0,-1545
27,0.301992,1,1,1,1034,-2,-1541
28,0.313174,0,0,1,1035,-4,-1540
29,0.324334,0,1,0,1031,2,-1542
30,0.335517,0,1,1,1030,-1,-1546
31,0.346703,1,1,1,1035,-3,-1542
32,0.357886,1,1,1,1033,0,-1538
33,0.36907,1,1,1,1032,-1,-1547
34,0.380264,0,1,1,1032,-2,-1543
35,0.391448,1,0,2,1030,-1,-1542
36,0.402633,0,2,2,1032,-3,-1548
37,0.413817,1,1,1,1032,1,-1544
38,0.425,0,0,0,1030,0,-1537
39,0.436147,0,1,1,1031,-3,-1544
40,0.447332,1,0,0,1033,-2,-1546
41,0.458517,0,2,0,1032,-1,-1543
42,0.469712,0,1,0,1029,-2,-1544
43,0.480896,0,1,1,1029,-2,-1546
44,0.492083,0,-1,1,1033,0,-1540
45,0.503269,0,1,1,1033,-2,-1542
46,0.514449,0,1,0,1027,0,-1545
47,0.52563,1,0,0,1036,-1,-1547
48,0.536822,1,1,1,1031,0,-1543
49,0.547964,0,0,1,1030,5,-1542
50,0.559147,0,1,1,1035,-2,-1546
51,0.570331,0,0,0,1033,-2,-1548
52,0.581513,0,0,0,1033,0,-1544
53,0.592707,1,-1,1,1032,0,-1543
54,0.603896,1,0,1,1031,1,-1541
55,0.615081,1,1,0,1030,0,-1541
56,0.626265,1,0,1,1030,0,-1539
57,0.637451,1,0,0,1032,0,-1551
58,0.648636,1,0,0,1031,0,-1545
59,0.659779,0,0,1,1032,0,-1544
60,0.670968,0,-1,0,1027,0,-1544
61,0.682158,0,0,1,1032,2,-1543
62,0.693351,0,0,2,1028,2,-1542
63,0.704524,1,0,0,1030,0,-1541
64,0.715711,0,-1,0,1037,0,-1541
65,0.726901,0,0,0,1032,1,-1544
66,0.738088,2,1,0,1033,-5,-1543
67,0.749272,2,0,0,1030,1,-1540
68,0.760457,1,1,0,1034,-2,-1547
69,0.77164,1,0,0,1033,0,-1542
70,0.782822,0,0,1,1030,0,-1546
71,0.794003,0,0,2,1034,-2,-1547
72,0.805186,0,-1,2,1035,-3,-1547
73,0.816337,-1,-1,2,1032,-5,-1549
74,0.827521,-1,-1,1,1031,1,-1543
75,0.838708,0,0,2,1035,-1,-1547
76,0.84989,0,-1,2,1034,-1,-1548
77,0.861079,1,0,2,1034,1,-1542
78,0.872273,0,-1,1,1032,-2,-1548
79,0.883457,0,-1,1,1033,1,-1537
80,0.89464,0,-1,1,1032,3,-1547
81,0.90582,0,-1,2,1033,2,-1547
82,0.917004,1,-1,2,1029,-2,-1552
83,0.928176,0,-1,1,1032,-1,-1545
84,0.939366,0,0,1,1031,-3,-1547
85,0.950548,1,0,0,1031,0,-1541
86,0.961739,1,1,1,1033,0,-1546
87,0.972921,0,1,1,1033,0,-1543
88,0.984116,1,0,1,1032,0,-1546
89,0.995307,1,0,1,1029,-2,-1546
90,1.006489,0,0,0,1030,3,-1548
91,1.017675,0,1,0,1031,2,-1545
92,1.028871,0,1,1,1032,3,-1546
93,1.040131,1,0,0,1032,1,-1546
94,1.051432,0,2,1,1036,-2,-1542
95,1.062628,0,-1,2,1028,3,-1547
96,1.073818,0,-1,1,1032,-4,-1545
97,1.085004,1,0,1,1034,-4,-1540
98,1.09615,1,2,1,1031,-2,-1546
99,1.107335,0,1,1,1033,-1,-1546
100,1.11852,1,1,0,1030,3,-1546
101,1.129724,1,1,1,1032,0,-1545
102,1.140912,0,-1,1,1032,1,-1550
103,1.15211,0,-1,1,1032,-3,-1543
104,1.163303,1,0,1,1033,0,-1550
105,1.174487,0,1,0,1028,5,-1546
106,1.185673,0,1,0,1034,-3,-1546
107,1.19686,1,0,0,1035,0,-1549
108,1.208047,1,0,1,1032,0,-1546
109,1.219245,1,1,1,1033,0,-1547
110,1.230432,0,-1,2,1035,1,-1550
111,1.241618,0,0,2,1032,2,-1548
112,1.25282,0,0,0,1029,-4,-1548
113,1.26397,0,-1,0,1028,-3,-1549
114,1.275155,0,0,1,1031,0,-1539
115,1.28634,0,0,1,1030,1,-1547
116,1.297522,0,0,1,1033,0,-1549
117,1.308707,1,-1,1,1035,-1,-1543
118,1.319891,1,-1,1,1035,-1,-1540
119,1.331073,0,-1,1,1033,0,-1545
120,1.342254,0,0,1,1033,-1,-1547
121,1.35344,0,0,1,1031,0,-1548
122,1.364636,0,-1,1,1030,0,-1546
123,1.375779,0,0,1,1035,0,-1536
124,1.386968,1,0,1,1030,1,-1542
125,1.398157,0,0,1,1034,-2,-1550
126,1.40935,0,-1,1,1031,-2,-1544
127,1.420517,1,0,1,1031,-1,-1544
128,1.431705,0,0,1,1030,0,-1538
129,1.442891,0,0,2,1032,0,-1546
130,1.454077,0,0,1,1033,-2,-1542
131,1.465262,0,0,1,1035,-1,-1547
132,1.476449,0,1,1,1031,0,-1543
133,1.487635,0,0,1,1031,-1,-1541
134,1.498819,0,0,1,1036,0,-1552
135,1.510002,1,0,1,1032,0,-1539
136,1.521229,1,1,1,1034,0,-1543
137,1.532558,0,-1,1,1035,2,-1539
138,1.543751,0,-1,2,1034,-2,-1547
139,1.554937,0,0,1,1032,0,-1545
140,1.566125,0,-1,1,1034,1,-1544
141,1.577312,1,0,2,1032,2,-1544
142,1.5885,0,0,1,1029,2,-1543
143,1.599687,0,0,1,1033,-1,-1550
144,1.61087,0,0,0,1034,-2,-1542
145,1.622052,0,-1,2,1034,-2,-1552
146,1.633237,0,0,2,1033,0,-1544
147,1.644422,0,0,1,1032,2,-1544
148,1.655605,0,0,1,1039,1,-1542
149,1.666792,0,0,1,1035,2,-1546
150,1.677975,0,1,2,1033,-4,-1538
151,1.68916,0,1,1,1031,3,-1543
152,1.700338,1,1,1,1034,0,-1549
153,1.711524,0,0,1,1033,-1,-1548
154,1.722703,0,0,0,1033,0,-1544
155,1.733886,0,-1,0,1032,-1,-1548
156,1.745069,0,-1,1,1034,2,-1549
157,1.756261,0,0,2,1037,-3,-1541
158,1.767444,1,0,0,1036,-1,-1541
159,1.778628,0,0,1,1035,1,-1541
160,1.789813,0,-1,0,1036,0,-1546
161,1.800997,-1,-2,2,1031,-4,-1544
162,1.812154,0,-1,1,1031,6,-1543
163,1.82334,0,-1,0,1033,-1,-1549
164,1.83453,1,0,1,1030,0,-1546
165,1.845746,1,1,1,1034,-1,-1543
166,1.856948,1,1,0,1032,3,-1547
167,1.86815,1,0,2,1027,2,-1545
168,1.879365,1,0,1,1031,2,-1544
169,1.890551,0,0,2,1037,0,-1548
170,1.901737,0,0,2,1031,-5,-1540
171,1.912927,0,0,1,1034,0,-1545
172,1.924111,0,-1,1,1036,0,-1550
173,1.9353,0,0,2,1031,1,-1541
174,1.946488,0,-1,1,1034,0,-1545
175,1.957684,0,0,0,1030,-1,-1544
176,1.968886,0,0,1,1034,-2,-1541
177,1.980089,0,0,2,1034,0,-1545
178,1.991278,1,0,-1,1031,3,-1544
179,2.002463,0,-2,1,1030,0,-1539
180,2.013648,0,0,1,1036,-1,-1540
181,2.024834,-1,-1,1,1029,0,-1541
182,2.036023,0,0,1,1032,-5,-1545
183,2.047207,0,-1,0,1034,0,-1541
184,2.058391,0,-1,0,1032,-1,-1543
185,2.069575,0,-1,1,1031,-2,-1548
186,2.080763,0,0,0,1037,0,-1546
187,2.091962,0,0,0,1035,0,-1541
188,2.103146,1,1,0,1029,0,-1545
189,2.11433,1,1,1,1031,0,-1543
190,2.125512,1,0,1,1033,-2,-1546
191,2.136705,0,0,1,1031,3,-1553
192,2.147896,0,0,1,1028,-2,-1548
193,2.15908,0,0,2,1035,0,-1545
194,2.170268,1,1,2,1035,-3,-1547
195,2.181449,1,0,1,1035,3,-1545
196,2.192636,1,0,1,1029,2,-1550
197,2.203785,0,1,1,1034,0,-1545
198,2.214971,1,1,1,1033,0,-1545
199,2.226168,1,1,1,1036,0,-1546
200,2.237357,1,-1,1,1029,2,-1542
201,2.248529,0,-1,2,1031,0,-1549
202,2.259715,1,1,1,1031,0,-1542
203,2.270906,0,0,2,1028,3,-1552
204,2.282096,1,1,1,1033,1,-1552
205,2.293281,1,0,1,1035,0,-1548
206,2.304475,1,-1,1,1027,-1,-1549
207,2.315664,0,-1,1,1035,0,-1548
208,2.326851,0,-1,1,1032,0,-1546
209,2.338046,0,-1,1,1033,1,-1547
210,2.349231,1,0,1,1033,1,-1538
211,2.360421,1,0,1,1036,1,-1544
212,2.371607,0,1,1,1032,-3,-1546
213,2.382795,1,1,1,1034,1,-1543
214,2.393985,0,1,1,1035,0,-1546
215,2.405167,0,0,0,1030,0,-1545
216,2.416338,0,0,1,1031,-1,-1545
217,2.427521,0,-2,1,1036,2,-1541
218,2.438705,0,0,1,1030,0,-1543
219,2.449899,0,0,1,1030,0,-1537
220,2.461084,0,-1,1,1032,0,-1549
221,2.472276,0,0,1,1031,-1,-1542
222,2.483462,1,1,0,1036,-1,-1544
223,2.494645,1,1,0,1032,-2,-1547
224,2.50583,1,0,0,1034,0,-1538
225,2.517016,0,0,1,1030,1,-1548
226,2.528205,0,0,1,1029,0,-1538
227,2.539392,1,1,0,1027,2,-1548
228,2.550576,0,0,1,1036,3,-1539
229,2.561761,0,0,1,1033,-1,-1552
230,2.572944,0,1,0,1031,0,-1548
231,2.584153,1,0,0,1032,0,-1545
232,2.59534,0,-2,1,1033,2,-1546
233,2.606527,0,-1,2,1033,1,-1543
234,2.617714,0,0,1,1033,0,-1539
235,2.628902,0,-2,1,1036,-2,-1540
236,2.640097,0,-1,1,1032,3,-1544
237,2.651284,0,-1,0,1033,2,-1550
238,2.66247,0,-1,1,1033,0,-1544
239,2.673659,0,0,0,1036,1,-1541
240,2.68485,1,2,1,1034,1,-1546
241,2.696039,0,1,1,1033,3,-1543
242,2.707227,1,1,2,1035,0,-1544
243,2.718417,1,0,1,1030,-2,-1548
244,2.729605,1,1,1,1030,-1,-1544
245,2.740795,0,0,1,1034,0,-1544
246,2.751968,0,0,1,1030,0,-1550
247,2.763152,0,0,0,1034,-2,-1544
248,2.774339,0,0,1,1030,0,-1551
249,2.785533,0,1,1,1034,-2,-1544
250,2.796707,0,2,2,1034,0,-1543
251,2.807896,0,1,1,1033,2,-1549
252,2.81908,1,0,2,1032,2,-1537
253,2.830263,0,1,1,1031,-2,-1547
254,2.841449,0,0,1,1034,-6,-1545
255,2.852656,0,0,1,1030,0,-1543
256,2.86385,0,-2,1,1030,-1,-1543
257,2.875037,0,0,1,1033,3,-1542
258,2.886226,0,0,1,1034,1,-1546
259,2.897414,1,0,1,1033,0,-1545
260,2.908618,1,1,0,1031,-1,-1552
261,2.919783,1,0,2,1032,1,-1544
262,2.930975,0,0,1,1029,2,-1541
263,2.942171,1,0,1,1032,3,-1543
264,2.953366,0,1,2,1032,0,-1541
265,2.964524,0,-1,0,1033,-1,-1542
266,2.975721,0,-1,0,1031,0,-1555
267,2.986914,0,0,1,1037,2,-1546
268,2.998108,0,1,2,1033,0,-1541
269,3.009305,0,-1,1,1033,-3,-1544
270,3.02049,1,-1,1,1030,0,-1545
271,3.031682,0,-1,1,1033,0,-1549
272,3.042897,1,0,2,1033,-1,-1545
273,3.054094,1,0,1,1034,1,-1539
274,3.065284,1,1,1,1034,-2,-1547
275,3.076474,1,2,1,1032,0,-1543
276,3.087664,1,1,1,1032,0,-1545
277,3.098853,0,1,0,1036,0,-1545
278,3.11004,1,0,1,1035,-3,-1543
279,3.121227,0,0,2,1033,0,-1540
280,3.132417,0,0,2,1033,0,-1545
281,3.143616,0,-1,2,1027,0,-1545
282,3.154801,0,-1,0,1029,1,-1546
283,3.165986,0,-1,0,1031,0,-1541
284,3.177175,0,-1,0,1029,-3,-1543
285,3.188337,0,1,1,1029,0,-1543
286,3.199526,0,0,1,1035,-1,-1539
287,3.210712,0,0,1,1033,5,-1545
288,3.221896,1,0,1,1035,2,-1545
289,3.233084,1,0,2,1035,0,-1543
290,3.244272,0,0,1,1034,1,-1542
291,3.255455,0,1,1,1031,0,-1547
292,3.26666,1,0,1,1033,-3,-1544
293,3.277854,1,0,1,1034,2,-1537
294,3.289043,1,1,1,1034,0,-1548
295,3.300246,0,1,1,1034,0,-1546
296,3.311432,0,1,2,1034,1,-1542
297,3.322619,0,-2,1,1036,1,-1544
298,3.333805,0,-2,1,1032,0,-1546
299,3.344989,0,-2,0,1035,0,-1545
300,3.356154,0,-1,1,1034,3,-1552
301,3.367348,0,2,1,1030,-1,-1543
302,3.378536,1,1,2,1033,0,-1547
303,3.389736,0,0,2,1029,-1,-1543
304,3.400924,0,-1,1,1032,-1,-1548
305,3.412113,0,-1,0,1035,0,-1547
306,3.423298,0,-1,1,1033,2,-1543
307,3.434484,0,-1,0,1033,3,-1541
308,3.445677,0,0,1,1035,-1,-1549
309,3.456864,0,1,0,1034,0,-1549
310,3.468051,0,0,1,1030,-1,-1540
311,3.479237,0,1,0,1031,-1,-1547
312,3.490423,1,1,1,1033,-4,-1545
313,3.501606,1,1,1,1034,-1,-1537
314,3.512793,1,1,0,1035,0,-1543
315,3.523969,0,0,1,1031,1,-1537
316,3.535155,0,0,1,1032,0,-1541
317,3.546349,1,1,0,1031,0,-1548
318,3.557541,1,1,1,1030,1,-1541
319,3.568713,0,1,1,1032,-1,-1542
320,3.579903,0,0,1,1032,1,-1547
321,3.591092,0,1,0,1032,-1,-1541
322,3.602286,0,1,0,1035,0,-1540
323,3.61348,0,1,1,1032,-2,-1548
324,3.62468,0,0,1,1028,0,-1544
325,3.635869,0,-1,0,1034,4,-1550
326,3.647056,0,0,1,1032,2,-1544
327,3.65825,0,0,0,1030,-1,-1541
328,3.669436,0,2,0,1032,0,-1540
329,3.680637,0,0,1,1031,0,-1535
330,3.691784,1,0,1,1031,0,-1541
331,3.702972,0,-1,1,1030,0,-1549
332,3.714166,0,-2,1,1034,1,-1545
333,3.725352,0,-1,0,1034,0,-1539
334,3.736523,0,0,1,1033,1,-1544
335,3.747707,1,1,1,1032,-2,-1547
336,3.75889,0,0,2,1035,0,-1544
337,3.770074,0,1,1,1035,-1,-1545
338,3.781258,0,2,1,1033,0,-1544
339,3.792449,1,0,1,1035,-1,-1542
340,3.803638,1,1,2,1031,0,-1547
341,3.814825,0,1,1,1028,0,-1549
342,3.826012,0,0,1,1029,-2,-1543
343,3.837199,0,0,1,1031,0,-1546
344,3.848389,0,0,2,1027,1,-1553
345,3.859576,0,0,1,1032,1,-1544
346,3.870762,0,-1,1,1030,3,-1539
347,3.881949,0,-1,1,1033,4,-1548
348,3.893134,0,-1,1,1035,-1,-1544
349,3.904332,0,-1,1,1033,0,-1543
350,3.915518,0,-1,1,1030,0,-1544
351,3.926702,0,0,1,1030,-2,-1544
352,3.93789,1,0,1,1031,-2,-1541
353,3.949075,1,0,0,1028,-1,-1549
354,3.960272,0,1,1,1033,-2,-1547
355,3.971849,1,1,1,1033,2,-1539
356,3.983544,0,0,1,1033,2,-1543
357,3.995212,0,0,1,1034,-1,-1547
358,4.006888,0,0,1,1031,-1,-1540
359,4.01858,0,0,1,1034,0,-1545
360,4.030236,1,0,1,1031,-1,-1546
361,4.041925,0,0,0,1031,0,-1540
362,4.05358,1,-1,1,1036,0,-1543
363,4.06534,0,1,2,1030,3,-1545
364,4.077019,0,0,1,1034,3,-1549
365,4.088638,0,0,0,1031,1,-1546
366,4.100199,0,0,1,1033,4,-1548
367,4.111765,1,1,1,1031,0,-1548
368,4.12331,1,1,0,1035,0,-1547
369,4.134852,0,0,1,1031,1,-1542
370,4.146399,0,1,2,1027,0,-1543
371,4.157943,1,0,1,1028,1,-1545
372,4.169528,0,0,2,1033,0,-1543
373,4.181194,0,0,1,1030,12,-1544
374,4.192857,0,1,0,1035,0,-1547
375,4.204539,0,0,1,1030,0,-1545
376,4.216219,0,1,1,1030,-2,-1544
377,4.227893,0,1,0,1036,0,-1549
378,4.239554,1,0,2,1031,0,-1549
379,4.251208,1,0,2,1031,-5,-1547
380,4.262858,0,1,1,1031,2,-1544
381,4.274542,0,0,2,1024,1,-1549
382,4.286198,-1,0,1,1034,0,-1552
383,4.297779,0,0,0,1034,-1,-1545
384,4.309339,1,0,0,1031,3,-1543
385,4.320904,0,0,1,1032,-3,-1548
386,4.332465,0,0,1,1035,0,-1539
387,4.34405,0,0,0,1034,0,-1546
388,4.355627,0,0,1,1030,0,-1542
389,4.367185,0,1,1,1034,3,-1545
390,4.378774,1,0,1,1035,-1,-1544
391,4.390444,0,0,1,1034,-2,-1544
392,4.402106,0,0,1,1035,0,-1548
393,4.413764,1,1,2,1025,-3,-1545
394,4.425426,0,0,1,1035,0,-1542
395,4.437118,1,0,0,1030,0,-1549
396,4.448773,1,0,1,1032,-1,-1544
397,4.460464,0,0,1,1033,0,-1541
398,4.472136,0,0,2,1033,0,-1538
399,4.483834,0,0,1,1030,0,-1543
400,4.495505,0,0,1,1033,-3,-1543
401,4.507061,0,0,1,1031,1,-1548
402,4.518614,0,0,1,1030,-2,-1546
403,4.530167,0,1,1,1031,-1,-1541
404,4.541718,1,1,0,1035,2,-1550
405,4.553278,0,0,1,1030,1,-1549
406,4.56487,1,0,1,1031,1,-1546
407,4.576427,0,0,1,1031,0,-1544
408,4.588005,0,0,1,1033,0,-1544
409,4.599638,0,-1,1,1033,-1,-1548
410,4.611309,0,-1,1,1030,-1,-1547
411,4.622966,1,-1,1,1034,0,-1540
412,4.63461,0,0,0,1033,0,-1543
413,4.646264,0,0,1,1033,-1,-1544
414,4.657939,0,0,1,1033,1,-1550
415,4.669581,0,0,1,1031,-3,-1540
416,4.681242,0,-1,1,1030,3,-1546
417,4.692933,0,0,1,1034,0,-1539
418,4.704587,-1,1,1,1029,0,-1544
419,4.716173,0,0,0,1032,-3,-1547
420,4.727759,0,0,1,1030,0,-1542
421,4.739307,1,0,1,1032,-1,-1545
422,4.750858,0,0,0,1030,0,-1547
423,4.762424,0,0,1,1033,0,-1545
424,4.774004,0,0,1,1031,1,-1546
425,4.785554,1,0,0,1029,1,-1542
426,4.797144,1,0,1,1034,0,-1543
427,4.808765,1,0,1,1032,4,-1541
428,4.82047,0,0,1,1033,6,-1543
429,4.83214,1,0,1,1031,4,-1545
430,4.843821,0,1,1,1033,0,-1545
431,4.855472,0,0,1,1035,-4,-1540
432,4.867133,-1,1,1,1030,-2,-1546
433,4.87878,1,-1,2,1031,0,-1544
434,4.89044,0,0,1,1028,0,-1544
435,4.902088,0,0,0,1032,0,-1543
436,4.913651,0,0,1,1031,-5,-1542
437,4.925238,0,0,1,1031,-2,-1542
438,4.936779,1,0,1,1031,1,-1546
439,4.948375,1,-1,1,1030,3,-1539
440,4.959941,0,0,1,1032,-3,-1545
441,4.971503,0,-1,1,1035,1,-1543
442,4.98305,0,0,1,1035,0,-1540
443,4.994605,0,0,1,1033,1,-1546
444,5.006168,1,0,0,1033,0,-1549
445,5.017859,0,0,1,1033,-4,-1541
446,5.029548,0,0,2,1036,0,-1544
447,5.041241,0,0,1,1035,2,-1545
448,5.052925,0,0,1,1033,0,-1544
449,5.0646,0,0,1,1030,1,-1548
450,5.076282,-1,0,1,1037,0,-1544
451,5.087959,0,-1,1,1036,-1,-1549
452,5.099682,1,0,1,1031,2,-1548
453,5.111344,0,0,1,1030,1,-1543
454,5.123024,0,0,1,1032,-2,-1544
455,5.134605,1,0,1,1029,1,-1542
456,5.146151,0,0,1,1035,-2,-1541
457,5.157736,0,-1,1,1031,2,-1541
458,5.16929,0,0,0,1030,2,-1546
459,5.180883,0,0,0,1035,3,-1546
460,5.192445,0,0,1,1032,-1,-1549
461,5.20403,0,0,1,1033,0,-1543
462,5.215581,0,1,1,1027,1,-1543
463,5.227205,1,0,1,1031,1,-1544
464,5.238848,0,0,1,1032,0,-1543
465,5.250498,1,0,1,1032,0,-1544
466,5.262193,1,0,1,1031,3,-1546
467,5.273833,1,0,1,1033,2,-1542
468,5.285484,1,0,1,1025,3,-1549
469,5.297132,0,0,0,1032,0,-1540
470,5.308799,0,0,0,1033,-3,-1541
471,5.320485,0,0,1,1031,-1,-1542
472,5.332172,0,1,0,1031,1,-1546
473,5.343761,0,0,0,1031,1,-1541
474,5.355318,0,0,2,1033,-3,-1545
475,5.366883,0,0,1,1032,-2,-1544
476,5.378425,0,-1,1,1034,0,-1538
477,5.389965,-1,-1,1,1030,-2,-1542
478,5.401517,-1,0,1,1031,4,-1544
479,5.413066,0,0,0,1031,2,-1547
480,5.424625,0,0,1,1030,3,-1545
481,5.436261,0,0,1,1035,-1,-1544
482,5.447949,-1,0,2,1038,-2,-1543
483,5.459629,0,0,0,1028,0,-1545
484,5.471281,0,0,1,1033,2,-1549
485,5.482936,1,-1,1,1032,-4,-1545
486,5.494604,1,-1,0,1032,-3,-1545
487,5.506246,0,0,0,1035,3,-1548
488,5.517894,1,1,0,1031,0,-1539
489,5.529559,1,0,2,1032,-2,-1546
490,5.541111,0,1,2,1034,1,-1545
491,5.552672,0,0,1,1027,2,-1549
492,5.56425,-1,0,1,1028,-2,-1545
493,5.57581,0,0,1,1031,0,-1540
494,5.587382,0,-1,1,1034,0,-1544
495,5.598935,0,1,1,1031,1,-1544
496,5.610505,0,0,1,1033,-2,-1543
497,5.622055,0,-1,1,1031,0,-1544
498,5.633637,0,0,2,1032,-1,-1546
499,5.645317,0,0,1,1037,0,-1547
500,5.656979,0,0,0,1030,0,-1536
501,5.668592,0,0,0,1032,1,-1545
502,5.680258,0,0,1,1032,-1,-1546
503,5.691955,1,1,0,1031,1,-1549
504,5.703607,0,0,1,1030,-1,-1547
505,5.715279,0,0,1,1031,1,-1546
506,5.726935,0,0,1,1028,-2,-1544
507,5.738581,0,0,0,1034,3,-1542
508,5.750141,0,0,1,1035,0,-1545
509,5.761681,0,0,1,1031,-1,-1543
510,5.773244,0,0,1,1034,1,-1544
511,5.784785,0,-1,0,1032,0,-1547
512,5.7963,0,0,1,1029,1,-1543
513,5.807809,0,0,1,1034,3,-1542
514,5.819352,1,1,1,1033,0,-1543
515,5.830929,0,0,1,1033,0,-1545
516,5.842562,1,-1,1,1034,0,-1545
517,5.85421,1,0,1,1034,1,-1547
518,5.865883,0,0,0,1032,0,-1543
519,5.877553,1,0,0,1036,0,-1544
520,5.889223,1,0,1,1031,1,-1543
521,5.900873,1,0,1,1037,0,-1544
522,5.912549,1,0,1,1034,0,-1546
523,5.924221,0,-1,1,1035,1,-1547
524,5.935886,0,0,1,1035,-3,-1539
525,5.947551,0,0,1,1031,1,-1542
526,5.959134,0,-1,2,1031,-3,-1544
527,5.970686,0,1,1,1033,0,-1539
528,5.982261,1,0,1,1033,2,-1542
529,5.9938,1,0,1,1036,-1,-1543
530,6.00534,0,0,1,1033,4,-1548
531,6.016907,0,1,0,1032,5,-1544
532,6.028478,0,0,0,1036,1,-1547
533,6.040061,0,0,2,1034,1,-1540
534,6.051728,1,0,1,1033,1,-1543
535,6.063377,0,0,1,1031,2,-1540
536,6.07503,0,0,1,1033,0,-1547
537,6.086712,0,0,1,1035,0,-1550
538,6.098357,0,0,1,1031,-1,-1547
539,6.110025,0,0,1,1032,0,-1546
540,6.121674,0,0,1,1029,0,-1539
541,6.133356,0,0,1,1033,-3,-1542
542,6.145046,0,-1,1,1031,-2,-1545
543,6.156706,1,-1,1,1029,0,-1538
544,6.168289,0,0,1,1031,4,-1540
545,6.179882,0,0,1,1036,0,-1540
546,6.191429,0,0,1,1029,0,-1545
547,6.203034,0,0,1,1030,-3,-1545
548,6.214681,0,0,0,1038,0,-1541
549,6.226247,0,-1,1,1030,-1,-1542
550,6.237852,0,1,1,1032,1,-1543
551,6.24942,0,1,1,1033,1,-1543
552,6.261101,0,0,1,1032,-1,-1545
553,6.272767,0,0,1,1033,0,-1540
554,6.28447,1,-1,1,1034,2,-1544
555,6.296082,0,-1,1,1033,1,-1544
556,6.307738,0,0,1,1034,0,-1551
557,6.319423,1,0,2,1028,1,-1548
558,6.331075,1,0,0,1029,-4,-1545
559,6.342731,0,-1,2,1029,0,-1542
560,6.354411,0,0,1,1031,0,-1545
561,6.366008,0,-1,1,1029,-2,-1542
562,6.377554,0,0,1,1031,-2,-1549
563,6.389099,1,-1,1,1030,0,-1540
564,6.400665,1,0,1,1034,2,-1546
565,6.41224,0,0,1,1034,1,-1548
566,6.423811,0,0,1,1033,0,-1547
567,6.435404,0,1,1,1035,2,-1546
568,6.446982,0,0,1,1031,0,-1540
569,6.458601,1,1,1,1033,0,-1545
570,6.470275,0,0,1,1031,1,-1543
571,6.48193,0,-1,0,1036,2,-1547
572,6.493581,1,0,1,1034,1,-1547
573,6.505254,1,0,1,1034,-2,-1547
574,6.516901,0,-1,1,1031,-1,-1534
575,6.528603,0,0,0,1031,0,-1547
576,6.540276,0,0,1,1029,1,-1542
577,6.551948,1,0,1,1034,0,-1542
578,6.563519,1,0,0,1029,-1,-1544
579,6.575097,1,0,1,1030,1,-1543
580,6.586652,0,1,1,1034,2,-1538
581,6.598221,0,-1,0,1035,0,-1548
582,6.609793,0,0,1,1034,5,-1546
583,6.621339,1,0,1,1036,0,-1549
584,6.632903,1,0,0,1029,0,-1545
585,6.64448,1,-1,1,1030,0,-1550
586,6.656069,0,0,1,1035,0,-1547
587,6.667697,0,0,1,1032,2,-1546
588,6.679357,1,0,2,1033,0,-1546
589,6.691024,0,-1,2,1037,1,-1542
590,6.702682,0,0,1,1030,0,-1539
591,6.714337,0,-1,1,1033,0,-1541
592,6.725997,0,0,1,1030,-1,-1536
593,6.737666,0,-1,1,1031,1,-1541
594,6.749337,0,-1,0,1031,0,-1543
595,6.761025,0,0,1,1034,2,-1545
596,6.772697,1,-1,1,1034,0,-1545
597,6.784296,1,1,1,1037,2,-1543
598,6.79582,0,0,0,1036,-3,-1551
599,6.80737,0,0,1,1032,-1,-1546
600,6.818924,0,1,1,1032,0,-1540
601,6.830502,0,0,1,1032,0,-1553
602,6.842048,0,0,0,1035,-3,-1542
603,6.853633,1,0,1,1032,0,-1539
604,6.865193,0,1,1,1031,0,-1545
605,6.876896,1,0,1,1035,1,-1547
606,6.888593,0,0,1,1034,-2,-1541
607,6.900245,0,0,1,1031,0,-1542
608,6.911895,0,0,1,1035,0,-1542
609,6.923562,0,0,2,1031,0,-1545
610,6.935209,0,0,1,1033,-2,-1545
611,6.946889,0,1,2,1036,0,-1544
612,6.958559,0,0,1,1034,5,-1546
613,6.970217,1,0,0,1031,0,-1543
614,6.981876,0,0,0,1034,3,-1552
615,6.993417,0,0,0,1037,0,-1548
616,7.00496,0,0,1,1032,-2,-1544
617,7.016535,0,0,1,1034,1,-1544
618,7.028082,1,0,0,1035,1,-1543
619,7.039734,0,0,0,1033,1,-1544
620,7.051441,0,-1,1,1033,0,-1550
621,7.063017,0,0,0,1037,1,-1540
622,7.074689,1,0,1,1035,0,-1545
623,7.086251,0,0,0,1028,0,-1540
624,7.097809,1,0,1,1030,0,-1542
625,7.109358,0,0,1,1035,1,-1549
626,7.120913,0,-1,1,1033,0,-1546
627,7.132477,1,0,1,1034,-1,-1544
628,7.144063,0,0,1,1037,-2,-1550
629,7.155612,0,1,1,1031,0,-1550
630,7.167158,1,0,1,1033,1,-1548
631,7.178756,1,0,1,1032,0,-1546
632,7.190375,1,-1,1,1035,3,-1548
633,7.20206,1,0,1,1030,3,-1536
634,7.213721,0,1,0,1037,2,-1545
635,7.225412,1,0,1,1033,-1,-1545
636,7.237095,0,0,1,1032,2,-1550
637,7.248763,1,0,1,1031,0,-1547
638,7.260479,1,0,1,1033,1,-1542
639,7.272133,0,0,0,1033,1,-1547
640,7.283838,0,-1,0,1028,1,-1546
641,7.295516,0,-1,1,1032,-1,-1543
642,7.307087,0,0,1,1030,4,-1542
643,7.318733,0,1,1,1033,-2,-1544
644,7.330285,1,1,1,1033,-1,-1551
645,7.341872,1,0,1,1029,-3,-1548
646,7.353434,0,0,1,1032,0,-1551
647,7.365005,0,0,1,1033,0,-1538
648,7.376544,0,0,2,1031,-1,-1542
649,7.388145,0,0,1,1033,0,-1547
650,7.39977,1,0,1,1028,0,-1546
651,7.411436,0,0,1,1034,0,-1542
652,7.423085,0,1,0,1036,0,-1544
653,7.434733,0,0,1,1030,2,-1545
654,7.4464,1,1,1,1032,-2,-1549
655,7.458053,0,0,1,1032,-2,-1543
656,7.469728,0,0,0,1033,-1,-1545
657,7.481399,0,0,1,1032,0,-1546
658,7.493067,0,0,1,1032,0,-1539
659,7.504741,0,0,1,1032,1,-1550
660,7.516313,0,1,1,1032,-2,-1544
661,7.527897,1,0,0,1033,-1,-1544
662,7.539451,-1,0,1,1035,0,-1543
663,7.551011,1,-1,2,1034,0,-1553
664,7.562555,1,-1,1,1035,-2,-1544
665,7.574097,0,0,1,1028,4,-1544
666,7.585652,0,0,2,1032,0,-1545
667,7.597215,0,1,1,1034,-2,-1543
668,7.608869,0,0,1,1032,-2,-1540
669,7.62053,0,1,1,1031,3,-1542
670,7.63222,0,0,1,1031,-3,-1547
671,7.643894,0,0,1,1031,-1,-1544
672,7.655555,1,0,1,1032,0,-1545
673,7.667215,0,0,1,1035,-1,-1541
674,7.678864,0,0,1,1032,0,-1547
675,7.690555,0,0,1,1035,0,-1541
676,7.702218,0,0,0,1029,4,-1547
677,7.713885,0,-1,0,1032,3,-1550
678,7.725461,0,0,2,1033,0,-1542
679,7.737036,0,-1,1,1032,-1,-1545
680,7.74859,0,0,1,1033,0,-1549
681,7.760142,0,0,1,1034,0,-1541
682,7.771705,0,0,0,1033,-1,-1545
683,7.783267,0,0,1,1029,-1,-1544
684,7.794824,0,0,1,1034,-2,-1546
685,7.806401,0,1,1,1031,4,-1540
686,7.818014,0,0,1,1033,1,-1545
687,7.829685,1,0,1,1031,0,-1544
688,7.841361,1,0,1,1035,0,-1544
689,7.853038,1,-1,1,1037,1,-1541
690,7.864713,0,1,1,1034,1,-1548
691,7.876347,0,0,1,1032,-2,-1546
692,7.888092,0,0,1,1033,-1,-1551
693,7.899744,0,1,1,1032,3,-1545
694,7.91141,0,0,1,1035,1,-1541
695,7.923115,0,0,1,1031,-1,-1542
696,7.934671,0,0,2,1031,0,-1540
697,7.946227,0,0,1,1031,5,-1538
698,7.957781,0,0,0,1031,0,-1542
699,7.969326,1,-1,1,1035,4,-1545
700,7.980899,0,0,1,1037,0,-1545
701,7.992485,0,0,1,1036,0,-1545
702,8.004055,0,0,1,1032,0,-1539
703,8.015646,0,-1,1,1029,3,-1549
704,8.027257,0,0,0,1031,-1,-1542
705,8.038921,0,0,1,1031,1,-1541
706,8.05058,1,0,1,1030,0,-1551
707,8.062289,0,0,1,1035,0,-1540
708,8.073947,0,0,1,1034,0,-1546
709,8.08561,0,0,1,1033,1,-1543
710,8.097381,0,0,1,1027,1,-1543
711,8.109049,0,0,1,1037,4,-1545
712,8.120744,0,0,0,1029,0,-1542
713,8.132448,1,0,2,1034,1,-1544
714,8.144045,0,-1,1,1031,0,-1541
715,8.155645,0,1,1,1027,0,-1543
716,8.1672,1,0,1,1034,0,-1549
717,8.178757,0,1,1,1034,1,-1550
718,8.190295,0,0,1,1033,0,-1547
719,8.201833,0,0,1,1034,4,-1545
720,8.213384,0,0,0,1035,1,-1544
721,8.224948,0,0,1,1033,-1,-1541
722,8.236604,0,0,0,1033,0,-1544
723,8.248273,0,0,1,1032,-4,-1548
724,8.259959,0,0,0,1029,-2,-1548
725,8.271604,0,0,1,1030,-1,-1541
726,8.283269,0,0,1,1035,0,-1539
727,8.294946,0,0,1,1031,-1,-1545
728,8.30659,0,0,1,1033,1,-1543
729,8.318245,0,0,1,1033,0,-1541
730,8.329953,0,0,1,1030,3,-1543
731,8.341611,0,1,0,1026,2,-1546
732,8.353166,1,0,1,1032,1,-1543
733,8.364754,0,-1,1,1035,-3,-1538
734,8.376297,1,0,1,1033,-2,-1548
735,8.387806,1,0,1,1032,-2,-1547
736,8.399352,0,0,1,1036,1,-1540
737,8.410903,1,0,1,1036,-2,-1544
738,8.422484,0,0,0,1031,0,-1548
739,8.434034,0,0,1,1030,0,-1540
740,8.445653,0,0,1,1032,3,-1539
741,8.457327,0,0,0,1030,-1,-1543
742,8.468988,1,-1,1,1034,-3,-1547
743,8.480671,1,0,1,1030,1,-1540
744,8.492336,0,1,2,1032,-3,-1541
745,8.503995,0,0,1,1031,3,-1543
746,8.51568,0,-1,1,1037,2,-1538
747,8.527321,0,0,1,1032,0,-1539
748,8.53898,0,0,1,1030,0,-1545
749,8.550654,0,0,1,1036,0,-1546
750,8.562219,0,0,1,1033,4,-1542
751,8.573775,1,1,1,1032,0,-1541
752,8.585331,0,-1,1,1032,0,-1543
753,8.596897,0,0,1,1029,0,-1545
754,8.608483,0,0,1,1036,1,-1538
755,8.620056,0,0,1,1030,2,-1539
756,8.631633,0,-1,1,1032,0,-1539
757,8.643181,1,0,1,1033,2,-1541
758,8.654839,0,0,0,1033,0,-1540
759,8.666488,0,-1,1,1032,-1,-1540
760,8.678157,1,0,1,1035,0,-1546
761,8.689819,0,1,1,1033,-2,-1542
762,8.701467,0,0,1,1032,0,-1536
763,8.713123,0,0,1,1035,0,-1543
764,8.724772,0,0,1,1034,0,-1542
765,8.736456,1,1,1,1035,0,-1544
766,8.748106,0,1,1,1035,-2,-1543
767,8.759754,0,0,2,1035,1,-1548
768,8.771416,0,0,0,1030,0,-1542
769,8.783068,0,0,1,1029,0,-1552
770,8.794738,0,0,1,1038,0,-1544
771,8.806389,0,0,1,1033,-2,-1545
772,8.818061,0,0,0,1032,3,-1549
773,8.829725,0,0,1,1034,2,-1543
774,8.841378,1,0,1,1034,0,-1546
775,8.853066,0,1,1,1032,2,-1544
776,8.864729,1,0,1,1033,2,-1540
777,8.8763,0,0,1,1034,0,-1542
778,8.887819,0,1,1,1034,2,-1542
779,8.899376,1,0,2,1030,1,-1548
780,8.910922,0,0,2,1028,0,-1544
781,8.922506,1,1,1,1035,0,-1545
782,8.934042,1,0,1,1033,0,-1543
783,8.945585,1,0,1,1030,0,-1552
784,8.957157,1,0,1,1029,2,-1542
785,8.968843,0,0,1,1035,0,-1548
786,8.980505,0,1,1,1031,2,-1541
787,8.992217,0,0,1,1032,0,-1546
788,9.00383,1,1,1,1033,-1,-1545
789,9.015481,0,0,0,1037,-2,-1548
790,9.027154,0,0,1,1034,-1,-1550
791,9.038815,1,1,1,1029,0,-1545
792,9.050466,1,0,1,1030,-1,-1548
793,9.062131,0,0,1,1028,2,-1540
794,9.073683,0,0,1,1029,0,-1543
795,9.085271,1,-1,1,1035,0,-1541
796,9.096863,0,0,1,1031,0,-1550
797,9.108425,0,0,1,1029,-3,-1548
798,9.120035,0,0,1,1033,4,-1542
799,9.131629,0,0,1,1029,-2,-1541
800,9.14317,0,-1,1,1035,-3,-1547
801,9.154736,0,0,1,1032,0,-1548
802,9.166384,0,0,1,1033,3,-1550
803,9.178063,0,0,1,1030,-4,-1541
804,9.189725,0,0,1,1034,1,-1543
805,9.201438,0,0,1,1032,-1,-1550
806,9.213105,0,0,1,1032,-2,-1538
807,9.224767,0,0,1,1032,-1,-1547
808,9.236477,0,0,1,1031,3,-1549
809,9.248132,0,1,0,1028,0,-1542
810,9.259838,1,-1,2,1029,1,-1549
811,9.271484,0,-1,2,1033,0,-1544
812,9.283031,0,0,1,1036,0,-1547
813,9.294633,1,0,1,1034,-3,-1549
814,9.306186,1,-1,1,1030,1,-1543
815,9.317776,1,-1,1,1031,1,-1541
816,9.329324,0,0,1,1032,1,-1541
817,9.340898,0,0,1,1029,0,-1545
818,9.35247,0,0,1,1031,4,-1545
819,9.364062,1,-1,0,1030,0,-1548
820,9.37569,0,0,0,1033,0,-1550
821,9.387347,0,0,0,1030,2,-1548
822,9.399014,0,0,2,1032,-1,-1542
823,9.41068,0,0,1,1033,0,-1538
824,9.422335,0,0,1,1034,0,-1548
825,9.433987,0,0,0,1033,-1,-1541
826,9.445679,1,-1,1,1031,-5,-1543
827,9.457353,1,0,1,1027,-2,-1544
828,9.469021,0,-1,1,1033,1,-1544
829,9.480691,0,-1,1,1033,-1,-1543
830,9.492254,0,0,1,1034,0,-1544
831,9.503821,0,1,1,1032,0,-1546
832,9.515439,0,1,1,1034,-1,-1539
833,9.527132,0,0,1,1031,4,-1546
834,9.538736,1,1,1,1033,-3,-1545
835,9.5503,0,0,1,1033,-2,-1543
836,9.561896,0,0,1,1033,-1,-1541
837,9.573484,-1,1,1,1031,-3,-1545
838,9.585021,0,0,1,1034,-3,-1544
839,9.596544,1,1,1,1032,1,-1542
840,9.608052,1,1,1,1030,0,-1541
841,9.619591,1,1,1,1031,0,-1542
842,9.631141,1,0,1,1032,0,-1544
843,9.642708,1,0,1,1033,0,-1545
844,9.65426,0,0,0,1030,2,-1540
845,9.66582,0,-1,1,1034,2,-1538
846,9.677485,1,0,0,1030,0,-1544
847,9.689122,0,0,0,1029,1,-1542
848,9.700849,0,0,0,1037,0,-1548
849,9.712508,0,-1,1,1032,4,-1543
850,9.724199,1,0,2,1032,0,-1542
851,9.735831,0,0,1,1030,-2,-1551
852,9.747477,0,0,1,1032,0,-1545
853,9.759126,0,0,0,1032,-5,-1543
854,9.770797,1,0,1,1030,-3,-1545
855,9.782461,1,1,0,1033,1,-1546
856,9.79411,1,1,1,1033,1,-1540
857,9.805781,0,-1,0,1034,0,-1546
858,9.817439,0,0,1,1032,0,-1537
859,9.829106,0,0,1,1031,0,-1548
860,9.840777,1,-1,1,1031,-1,-1545
861,9.852468,0,0,1,1032,-4,-1546
862,9.864087,0,0,1,1033,2,-1554
863,9.875732,0,0,1,1030,2,-1552
864,9.887411,0,0,1,1035,-3,-1543
865,9.899068,0,0,1,1036,0,-1546
866,9.910758,0,0,1,1031,-1,-1542
867,9.922419,1,1,1,1038,0,-1545
868,9.934073,1,0,1,1033,0,-1547
869,9.945732,0,0,0,1034,1,-1544
870,9.957379,1,1,1,1033,1,-1542
871,9.969054,0,0,0,1033,0,-1542
872,9.980723,0,0,0,1032,-1,-1541
873,9.992373,0,0,1,1034,1,-1545
874,10.004076,0,1,1,1028,-2,-1548
875,10.015721,1,0,1,1030,0,-1550
876,10.027369,1,0,1,1034,-1,-1549
877,10.039047,0,1,0,1034,2,-1540
878,10.050693,0,0,1,1032,0,-1541
879,10.062342,0,0,1,1029,-2,-1545
880,10.073991,0,0,2,1032,0,-1549
881,10.085663,0,0,1,1034,-4,-1538
882,10.097345,0,0,1,1032,0,-1540
883,10.109024,1,0,0,1034,-1,-1545
884,10.120712,0,0,1,1032,-1,-1548
885,10.132343,0,0,1,1034,0,-1546
886,10.14405,0,0,1,1034,-1,-1544
887,10.155718,0,0,0,1033,1,-1545
888,10.167406,0,0,0,1028,1,-1544
889,10.17906,0,0,2,1033,-3,-1544
890,10.190714,0,0,1,1033,-2,-1550
891,10.202373,0,0,0,1034,-4,-1540
892,10.214053,0,0,0,1034,-1,-1550
893,10.22564,0,0,1,1030,0,-1540
894,10.237189,1,1,1,1032,0,-1544
895,10.248763,0,0,0,1032,0,-1542
896,10.260292,1,0,1,1033,2,-1545
897,10.271819,1,0,1,1033,1,-1540
898,10.28339,1,0,0,1034,1,-1542
899,10.294946,0,-1,1,1031,-2,-1546
900,10.30652,0,0,2,1037,2,-1544
901,10.318182,0,-1,0,1031,-2,-1548
902,10.329837,-1,0,1,1033,0,-1540
903,10.341482,0,0,1,1034,-1,-1545
904,10.353104,1,0,0,1034,0,-1546
905,10.364779,1,0,1,1036,0,-1539
906,10.376461,0,0,1,1026,2,-1540
907,10.388081,0,0,1,1032,0,-1543
908,10.399728,0,1,0,1036,0,-1538
909,10.411401,0,1,1,1030,0,-1548
910,10.423054,0,0,1,1034,-1,-1543
911,10.434706,1,0,0,1032,4,-1543
912,10.446359,0,0,0,1029,-2,-1542
913,10.458028,0,1,1,1030,-1,-1552
914,10.469687,0,0,1,1029,1,-1541
915,10.481361,0,-1,2,1033,0,-1542
916,10.493037,0,-1,1,1029,0,-1546
917,10.504711,-1,0,1,1036,-5,-1547
918,10.516362,1,0,0,1033,-1,-1547
919,10.52806,1,-1,1,1034,-3,-1546
920,10.539706,1,0,1,1031,3,-1545
921,10.551355,0,0,1,1032,-2,-1551
922,10.563029,0,0,2,1031,0,-1549
923,10.574682,1,0,1,1031,3,-1542
924,10.58633,0,0,2,1034,-2,-1547
925,10.597975,0,0,1,1033,1,-1548
926,10.609637,-1,-1,1,1031,-1,-1546
927,10.62132,0,-1,2,1033,0,-1541
928,10.632998,0,0,1,1031,-2,-1538
929,10.644667,1,0,1,1034,0,-1545
930,10.65635,1,0,2,1036,3,-1546
931,10.668018,1,0,2,1034,0,-1549
932,10.679682,1,0,1,1035,0,-1547
933,10.691346,1,0,1,1036,-1,-1536
934,10.703007,1,0,1,1036,1,-1544
935,10.714653,0,0,1,1031,2,-1544
936,10.726332,0,1,1,1029,-2,-1540
937,10.737981,1,0,1,1030,1,-1544
938,10.749633,0,0,2,1032,2,-1543
939,10.761315,0,0,1,1031,2,-1544
940,10.772971,0,0,1,1032,0,-1552
941,10.784601,0,1,0,1033,-3,-1540
942,10.796266,0,0,1,1031,0,-1543
943,10.807948,0,0,2,1032,0,-1547
944,10.819598,0,1,1,1033,-1,-1546
945,10.831286,1,0,1,1030,-1,-1542
946,10.842942,0,0,2,1033,-1,-1545
947,10.854595,0,1,1,1033,-2,-1549
948,10.866247,-1,0,1,1033,0,-1544
949,10.877908,0,0,0,1032,-1,-1544
950,10.88956,0,0,1,1036,0,-1545
951,10.901242,0,1,1,1034,-3,-1543
952,10.912909,0,1,1,1032,1,-1547
953,10.924592,1,0,1,1036,-1,-1544
954,10.936286,1,0,1,1032,-2,-1538
955,10.947976,1,0,1,1035,0,-1543
956,10.959624,0,0,1,1036,0,-1551
957,10.971272,0,0,1,1033,-1,-1538
958,10.982924,0,1,1,1035,1,-1548
959,10.994574,0,0,1,1034,1,-1541
960,11.006216,0,0,1,1035,2,-1544
961,11.017863,1,0,1,1032,-1,-1540
962,11.029556,0,-1,1,1032,-1,-1541
963,11.041246,1,0,1,1029,2,-1545
964,11.052803,0,0,1,1032,-2,-1543
965,11.064387,0,0,1,1028,0,-1541
966,11.075944,0,0,0,1032,0,-1546
967,11.087502,0,1,1,1033,1,-1540
968,11.099046,1,0,0,1033,-2,-1541
969,11.110595,0,1,2,1032,0,-1552
970,11.122139,1,0,1,1034,0,-1542
971,11.13373,1,-1,1,1034,-1,-1543
972,11.145286,1,-1,1,1034,1,-1545
973,11.156987,0,0,0,1031,2,-1548
974,11.168701,0,0,1,1034,-4,-1543
975,11.180335,0,0,1,1033,1,-1547
976,11.192001,0,0,1,1033,2,-1545
977,11.203668,0,0,1,1032,2,-1546
978,11.215323,0,0,1,1031,1,-1542
979,11.226964,0,0,1,1032,2,-1543
980,11.238625,1,0,1,1029,2,-1542
981,11.250325,0,1,1,1034,0,-1541
982,11.261892,0,-1,0,1034,0,-1548
983,11.273442,1,0,1,1034,0,-1543
984,11.285024,0,0,1,1033,3,-1549
985,11.296548,-1,0,2,1028,0,-1542
986,11.308104,1,1,1,1033,0,-1542
987,11.31965,1,0,2,1034,-5,-1546
988,11.331235,1,0,1,1034,0,-1546
989,11.3428,1,1,1,1032,0,-1546
990,11.35444,1,0,1,1029,0,-1543
991,11.366097,0,-1,1,1031,-1,-1548
992,11.37775,0,0,1,1030,2,-1548
993,11.389442,0,1,1,1031,0,-1547
994,11.401125,0,1,1,1032,-4,-1538
995,11.412788,0,0,1,1031,0,-1547
996,11.42449,0,-1,1,1034,1,-1542
997,11.436166,0,0,1,1034,2,-1541
998,11.447825,1,0,1,1034,-3,-1538
999,11.459395,0,-1,1,1028,0,-1546
1000,11.470941,1,0,0,1029,0,-1541
1001,11.482511,1,0,0,1034,0,-1540
1002,11.494065,1,-1,1,1032,2,-1538
1003,11.505638,0,-1,1,1032,-1,-1544
1004,11.517188,1,1,1,1032,0,-1546
1005,11.528775,0,0,1,1032,-5,-1549
1006,11.540303,-1,1,1,1033,1,-1547
1007,11.55183,0,1,0,1031,1,-1541
1008,11.563447,1,0,1,1033,-1,-1544
1009,11.575095,0,0,1,1036,-2,-1544
1010,11.586774,0,0,1,1030,4,-1544
1011,11.598435,0,-1,1,1031,0,-1547
1012,11.61009,0,0,1,1034,-3,-1543
1013,11.621752,0,0,1,1030,0,-1543
1014,11.633423,0,1,0,1033,2,-1546
1015,11.645108,1,0,1,1035,0,-1551
1016,11.656793,0,0,1,1033,2,-1551
1017,11.668439,0,0,1,1028,3,-1542
1018,11.680006,0,1,1,1036,-2,-1541
1019,11.691556,0,0,0,1033,2,-1542
1020,11.703107,0,0,0,1037,1,-1541
1021,11.714651,0,0,0,1031,1,-1548
1022,11.72623,0,1,1,1035,-1,-1541
1023,11.737783,0,1,1,1032,-3,-1543
1024,11.749325,0,0,2,1031,0,-1549
1025,11.760934,0,0,1,1032,-1,-1543
1026,11.772585,1,0,1,1030,-3,-1539
1027,11.78426,0,0,1,1031,0,-1550
1028,11.795965,1,0,1,1037,-1,-1544
1029,11.807618,0,0,0,1032,-1,-1544
1030,11.819288,0,1,1,1028,-5,-1544
1031,11.830936,0,-1,1,1034,2,-1546
1032,11.842586,0,0,1,1032,1,-1545
1033,11.854236,0,0,1,1033,2,-1548
1034,11.865903,0,-1,2,1030,1,-1538
1035,11.877552,0,0,2,1030,1,-1538
1036,11.889258,0,1,1,1032,-2,-1540
1037,11.900925,0,0,2,1034,-3,-1548
1038,11.912605,0,0,1,1032,1,-1547
1039,11.924275,0,0,1,1036,-1,-1540
1040,11.935953,1,0,1,1030,0,-1546
1041,11.947601,0,0,1,1031,0,-1539
1042,11.959258,1,-1,2,1034,-4,-1555
1043,11.970927,0,0,1,1031,-1,-1544
1044,11.982585,0,0,0,1035,-2,-1542
1045,11.994228,0,0,0,1028,6,-1545
1046,12.005882,0,0,1,1034,-2,-1551
1047,12.017555,0,0,1,1033,0,-1546
1048,12.02922,0,1,2,1033,0,-1542
1049,12.040858,0,-1,1,1031,0,-1544
1050,12.05253,0,0,1,1033,1,-1541
1051,12.064207,0,0,1,1032,-1,-1541
1052,12.075862,0,-1,1,1028,3,-1539
1053,12.08754,0,0,1,1031,2,-1544
1054,12.099194,0,1,0,1033,-1,-1543
1055,12.110842,1,0,1,1034,5,-1545
1056,12.122489,0,0,1,1032,0,-1545
1057,12.134178,0,-1,0,1033,-1,-1536
1058,12.145829,0,0,1,1031,1,-1541
1059,12.157475,0,0,1,1034,-1,-1541
1060,12.169125,0,0,1,1034,-4,-1542
1061,12.180808,1,0,1,1033,-3,-1545
1062,12.192524,1,0,1,1034,0,-1542
1063,12.204205,0,0,1,1030,0,-1547
1064,12.215877,1,1,1,1031,-1,-1544
1065,12.227547,0,1,0,1029,1,-1542
1066,12.2392,0,0,2,1037,-2,-1544
1067,12.25084,0,0,2,1030,3,-1547
1068,12.262491,1,0,1,1040,-1,-1542
1069,12.274178,0,0,1,1031,0,-1548
1070,12.285832,0,1,1,1029,-3,-1549
1071,12.297528,1,0,1,1030,0,-1540
1072,12.309124,0,0,1,1033,0,-1548
1073,12.320677,0,-1,1,1030,2,-1546
1074,12.332236,0,0,1,1033,-2,-1546
1075,12.343812,0,0,1,1035,0,-1548
1076,12.355358,0,0,1,1035,0,-1539
1077,12.366905,0,0,1,1032,-2,-1540
1078,12.378487,0,0,1,1030,-1,-1542
1079,12.390048,0,0,1,1033,-3,-1542
1080,12.401686,1,0,1,1038,2,-1541
1081,12.41337,0,1,1,1032,0,-1549
1082,12.425024,-1,0,1,1031,-4,-1541
1083,12.436681,0,1,1,1031,0,-1541
1084,12.448349,0,0,1,1033,0,-1546
1085,12.459997,0,0,1,1035,2,-1542
1086,12.471644,1,0,0,1030,0,-1545
1087,12.483316,0,-1,1,1032,0,-1543
1088,12.494972,0,1,1,1034,0,-1545
1089,12.506657,0,0,1,1032,0,-1545
1090,12.518244,0,0,1,1033,1,-1542
1091,12.52981,0,0,1,1029,0,-1549
1092,12.541427,0,-1,0,1035,0,-1551
1093,12.553017,0,0,1,1035,0,-1547
1094,12.564545,0,0,1,1033,0,-1546
1095,12.576104,0,0,1,1034,1,-1540
1096,12.587657,0,0,1,1029,-3,-1545
1097,12.599209,1,1,1,1035,0,-1545
1098,12.61089,0,1,2,1035,-2,-1540
1099,12.622567,0,-1,1,1032,-2,-1543
1100,12.63423,0,0,0,1031,-1,-1546
1101,12.64589,0,0,1,1034,-3,-1544
1102,12.65756,0,1,1,1030,-5,-1545
1103,12.669244,1,0,1,1033,1,-1541
1104,12.680897,0,0,1,1035,2,-1545
1105,12.692599,0,-1,1,1032,2,-1544
1106,12.70429,1,0,1,1031,-2,-1548
1107,12.715947,0,-1,1,1035,0,-1541
1108,12.727522,0,-1,1,1033,1,-1549
1109,12.739071,0,0,0,1031,2,-1540
1110,12.750621,0,1,0,1036,-1,-1541
1111,12.762166,0,0,1,1034,0,-1539
1112,12.77373,0,0,0,1034,-2,-1548
1113,12.78528,0,0,1,1035,0,-1544
1114,12.796832,1,0,1,1030,-1,-1541
1115,12.808392,0,0,0,1030,0,-1544
1116,12.820093,0,0,1,1030,1,-1546
1117,12.831816,0,0,1,1034,-2,-1541
1118,12.843484,0,0,0,1029,-4,-1547
1119,12.855137,1,0,1,1032,-2,-1541
1120,12.866821,0,0,1,1033,-1,-1542
1121,12.878527,0,0,0,1035,0,-1542
1122,12.890191,0,0,0,1030,-1,-1549
1123,12.901856,0,0,1,1032,0,-1544
1124,12.913565,0,0,1,1033,3,-1544
1125,12.925225,-1,0,1,1028,-3,-1542
1126,12.936789,1,0,1,1030,3,-1543
1127,12.948346,0,1,1,1034,-4,-1546
1128,12.959893,0,1,1,1033,0,-1546
1129,12.971461,1,0,0,1032,1,-1545
1130,12.983014,1,-1,0,1029,0,-1546
1131,12.994564,0,-1,1,1032,0,-1542
1132,13.006131,0,0,1,1034,0,-1545
1133,13.017681,0,1,1,1032,2,-1545
1134,13.02937,1,0,0,1033,-2,-1541
1135,13.041221,0,0,1,1036,0,-1543
1136,13.053026,0,0,1,1031,-2,-1551
1137,13.064739,0,0,0,1034,0,-1543
1138,13.076429,0,1,0,1038,-1,-1542
1139,13.088093,1,0,0,1034,-2,-1544
1140,13.099752,0,-1,1,1034,-1,-1546
1141,13.111434,0,0,1,1033,8,-1542
1142,13.123076,-1,0,1,1031,0,-1549
1143,13.134641,0,0,1,1036,-3,-1546
1144,13.146196,0,1,1,1030,0,-1546
1145,13.157767,0,-1,1,1032,-3,-1544
1146,13.169309,0,1,2,1031,1,-1543
1147,13.18086,0,0,1,1035,2,-1546
1148,13.192436,0,0,0,1036,-4,-1549
1149,13.204029,1,0,1,1036,-2,-1539
1150,13.215671,1,0,1,1027,-2,-1546
1151,13.227358,0,-1,1,1030,0,-1548
1152,13.239012,0,0,1,1037,3,-1537
1153,13.250722,0,0,1,1035,-2,-1545
1154,13.262408,0,-1,0,1032,0,-1540
1155,13.274071,0,0,1,1033,0,-1549
1156,13.285751,0,0,1,1034,0,-1550
1157,13.297399,0,0,0,1028,-1,-1547
1158,13.309057,0,0,2,1034,-3,-1546
1159,13.320752,1,0,1,1033,-1,-1545
1160,13.332469,0,0,1,1030,0,-1545
1161,13.344056,0,0,2,1031,1,-1544
1162,13.355639,0,0,1,1034,0,-1546
1163,13.367191,1,0,1,1031,0,-1544
1164,13.378747,1,0,2,1035,-2,-1546
1165,13.390299,1,0,1,1031,0,-1550
1166,13.401847,0,0,1,1030,2,-1550
1167,13.413405,0,0,1,1032,1,-1545
1168,13.425008,0,0,0,1031,3,-1541
1169,13.436609,0,-1,1,1030,-2,-1545
1170,13.44831,0,0,1,1031,0,-1535
1171,13.459971,0,0,1,1037,0,-1540
1172,13.471622,0,0,1,1035,-1,-1541
1173,13.483302,0,0,1,1034,0,-1539
1174,13.494944,1,-1,1,1034,-1,-1545
1175,13.506606,0,0,1,1034,1,-1542
1176,13.518281,0,0,1,1031,1,-1543
1177,13.529953,0,0,1,1035,1,-1538
1178,13.541621,0,0,2,1029,-1,-1549
1179,13.553186,1,0,1,1033,-1,-1540
1180,13.564768,0,0,1,1029,1,-1544
1181,13.576301,0,0,1,1035,0,-1547
1182,13.587819,0,0,1,1033,-1,-1541
1183,13.599372,0,0,1,1033,0,-1551
1184,13.610916,0,0,1,1033,-1,-1542
1185,13.622547,1,0,1,1032,0,-1542
1186,13.63415,1,-1,0,1034,2,-1540
1187,13.645814,1,0,1,1031,-5,-1544
1188,13.657498,0,0,0,1034,-1,-1543
1189,13.669176,1,1,1,1031,0,-1549
1190,13.680861,0,0,1,1031,3,-1548
1191,13.692536,0,0,1,1031,0,-1547
1192,13.704217,0,0,1,1031,0,-1542
1193,13.715894,0,0,2,1036,-3,-1537
1194,13.727553,-1,1,1,1034,-4,-1542
1195,13.739203,0,1,1,1029,-1,-1542
1196,13.750763,0,1,1,1034,-1,-1545
1197,13.762305,0,1,1,1032,-1,-1538
1198,13.77385,0,1,0,1035,3,-1536
1199,13.785419,1,0,1,1033,1,-1544
1200,13.797015,1,0,1,1036,-2,-1546
1201,13.808545,0,0,1,1032,1,-1547
1202,13.820066,0,1,1,1033,-8,-1549
1203,13.83162,0,0,1,1033,1,-1544
1204,13.84319,0,0,2,1032,1,-1537
1205,13.854816,1,0,1,1032,0,-1545
1206,13.866474,1,0,1,1032,1,-1535
1207,13.878149,0,-1,1,1032,2,-1545
1208,13.889804,-1,0,1,1031,0,-1545
1209,13.901454,0,0,1,1034,0,-1545
1210,13.913133,1,0,1,1034,-2,-1546
1211,13.924797,0,-1,1,1034,0,-1544
1212,13.936475,0,0,1,1031,2,-1546
1213,13.948166,0,0,1,1033,0,-1548
1214,13.959825,-1,0,2,1031,-1,-1551
1215,13.971393,0,0,0,1031,-1,-1553
1216,13.982979,1,0,0,1030,2,-1547
1217,13.994562,1,1,1,1037,0,-1540
1218,14.006137,0,0,1,1031,0,-1541
1219,14.017722,1,0,1,1032,0,-1534
1220,14.029279,0,0,0,1034,-1,-1540
1221,14.040873,0,0,1,1031,-1,-1542
1222,14.052452,0,0,1,1035,0,-1539
1223,14.064092,0,0,1,1034,0,-1544
1224,14.075743,0,0,1,1031,-1,-1549
1225,14.087399,0,1,1,1034,-2,-1540
1226,14.099072,1,0,1,1035,0,-1547
1227,14.110724,0,0,1,1032,1,-1541
1228,14.122379,0,1,1,1032,0,-1547
1229,14.134055,1,1,1,1035,-1,-1541
1230,14.145733,0,0,1,1035,-3,-1541
1231,14.157396,0,0,1,1033,-5,-1543
1232,14.169056,0,0,1,1033,0,-1547
1233,14.18064,-1,-1,1,1031,1,-1543
1234,14.192205,1,0,1,1032,0,-1541
1235,14.203766,0,-1,1,1033,0,-1546
1236,14.215316,0,0,0,1031,1,-1544
1237,14.226858,0,-1,1,1033,-3,-1549
1238,14.238406,0,0,1,1033,2,-1552
1239,14.24996,0,0,1,1033,-1,-1546
1240,14.261534,0,0,1,1030,-2,-1550
1241,14.273157,0,0,1,1029,0,-1552
1242,14.28485,0,0,1,1034,2,-1547
1243,14.296505,1,0,1,1033,-4,-1547
1244,14.308166,1,0,2,1034,1,-1547
1245,14.319836,0,1,0,1032,0,-1549
1246,14.331482,0,0,1,1032,-1,-1548
1247,14.343134,1,0,1,1031,-2,-1547
1248,14.354837,0,0,1,1031,4,-1548
1249,14.366498,0,0,1,1034,1,-1544
1250,14.378161,0,1,1,1030,-2,-1535
1251,14.389787,0,0,1,1033,0,-1546
1252,14.401337,0,1,1,1037,4,-1544
1253,14.412912,0,-1,1,1032,0,-1542
1254,14.424482,0,-1,1,1033,0,-1549
1255,14.436057,0,0,1,1034,0,-1542
1256,14.44765,-1,0,2,1035,-1,-1549
1257,14.459208,0,-1,1,1030,-1,-1544
1258,14.470763,0,1,1,1034,0,-1545
1259,14.482452,1,1,2,1031,-1,-1542
1260,14.494111,0,0,2,1034,1,-1550
1261,14.505793,0,0,0,1033,0,-1549
1262,14.517444,0,0,1,1034,-2,-1544
1263,14.529124,0,0,1,1031,0,-1545
1264,14.540798,0,1,1,1034,0,-1548
1265,14.552473,0,-1,1,1033,0,-1544
1266,14.564141,0,0,0,1035,1,-1544
1267,14.575838,0,0,1,1033,2,-1548
1268,14.587508,0,0,0,1031,-1,-1540
1269,14.599179,0,0,1,1031,0,-1543
1270,14.610834,0,1,0,1031,2,-1544
1271,14.622483,0,0,1,1027,0,-1547
1272,14.634147,0,-1,2,1034,0,-1543
1273,14.645798,0,0,0,1033,0,-1542
1274,14.657446,1,0,1,1032,0,-1544
1275,14.669119,0,-1,1,1030,-1,-1548
1276,14.680804,0,0,1,1033,1,-1542
1277,14.692474,-1,0,1,1033,2,-1546
1278,14.704144,0,0,1,1031,-1,-1545
1279,14.71582,0,0,1,1036,1,-1550
1280,14.727506,0,-1,1,1030,1,-1552
1281,14.739168,1,1,1,1032,2,-1544
1282,14.750824,1,0,2,1035,2,-1541
1283,14.762489,0,-1,1,1033,-2,-1546
1284,14.774161,1,0,1,1032,0,-1545
1285,14.785849,0,0,2,1034,0,-1539
1286,14.797523,0,0,1,1030,-3,-1547
1287,14.809187,1,1,1,1033,0,-1551
1288,14.820869,0,0,1,1033,0,-1542
1289,14.832519,1,0,1,1032,-2,-1546
1290,14.844206,0,1,1,1032,1,-1544
1291,14.85583,0,0,1,1030,-2,-1553
1292,14.867474,0,0,1,1035,1,-1541
1293,14.879125,1,0,0,1034,0,-1542
1294,14.89081,1,0,1,1033,0,-1547
1295,14.902463,0,-1,1,1030,1,-1543
1296,14.914023,0,0,0,1032,2,-1549
1297,14.925625,0,0,1,1034,-1,-1549
1298,14.937182,0,0,1,1032,-1,-1549
1299,14.948765,0,0,1,1027,0,-1549
1300,14.960304,0,0,2,1033,0,-1545
1301,14.971818,1,0,1,1032,0,-1540
1302,14.983367,0,0,1,1033,0,-1546
1303,14.994926,0,0,2,1032,-1,-1546
1304,15.006569,1,0,1,1032,0,-1542
1305,15.018233,-1,-1,0,1033,0,-1546
1306,15.029934,0,-1,1,1034,2,-1546
1307,15.041647,0,0,1,1033,1,-1546
1308,15.053317,1,0,1,1032,0,-1542
1309,15.064995,0,0,1,1034,-1,-1545
1310,15.076682,0,1,1,1033,-2,-1539
1311,15.088347,0,-1,2,1033,1,-1546
1312,15.10009,1,0,0,1036,0,-1543
1313,15.111811,1,0,0,1034,-2,-1545
1314,15.123391,0,1,0,1032,0,-1544
1315,15.134953,0,-1,0,1030,5,-1544
1316,15.146508,0,1,0,1034,-3,-1546
1317,15.158058,0,0,1,1032,2,-1538
1318,15.169606,0,0,1,1029,1,-1543
1319,15.181171,1,0,1,1032,-1,-1544
1320,15.192752,1,0,1,1030,-4,-1534
1321,15.204321,1,0,0,1034,2,-1538
1322,15.215962,1,0,0,1035,-2,-1544
1323,15.227622,0,0,2,1034,0,-1543
1324,15.239305,0,0,2,1030,0,-1539
1325,15.250964,1,0,1,1033,0,-1545
1326,15.262609,1,-1,1,1033,-1,-1534
1327,15.274306,0,0,1,1034,-1,-1542
1328,15.285969,1,0,1,1033,1,-1543
1329,15.297623,0,0,1,1030,-1,-1542
1330,15.309312,0,0,1,1036,1,-1546
1331,15.320984,0,0,1,1033,0,-1551
1332,15.332551,1,0,1,1030,-1,-1546
1333,15.344138,1,-1,1,1032,-1,-1543
1334,15.355685,1,0,1,1034,2,-1549
1335,15.36723,0,-1,1,1032,-1,-1548
1336,15.378777,0,0,1,1034,1,-1544
1337,15.390324,1,0,2,1035,0,-1544
1338,15.401876,1,0,1,1034,0,-1546
1339,15.413439,1,0,1,1032,0,-1544
1340,15.425138,0,0,1,1032,2,-1545
1341,15.43684,0,0,1,1031,0,-1548
1342,15.448498,1,-1,2,1034,0,-1540
1343,15.460158,1,1,2,1034,-3,-1542
1344,15.471832,1,1,2,1034,0,-1543
1345,15.483481,0,0,1,1030,-2,-1541
1346,15.495133,0,0,1,1033,2,-1545
1347,15.506827,0,0,2,1031,1,-1542
1348,15.518491,0,0,2,1033,-1,-1550
1349,15.530179,0,0,1,1030,0,-1541
1350,15.54174,1,0,1,1033,2,-1545
1351,15.553293,1,0,0,1035,0,-1550
1352,15.56484,0,0,1,1036,-2,-1537
1353,15.576421,0,0,1,1031,2,-1547
1354,15.588011,0,0,0,1032,-1,-1547
1355,15.599553,0,0,1,1033,2,-1541
1356,15.611092,0,0,1,1031,1,-1540
1357,15.622653,0,0,1,1029,0,-1541
1358,15.63434,1,0,1,1034,2,-1538
1359,15.645995,-1,1,1,1036,1,-1545
1360,15.65765,0,1,1,1032,0,-1536
1361,15.669326,1,0,1,1030,1,-1551
1362,15.680998,0,0,1,1036,-1,-1543
1363,15.692653,1,-1,1,1034,-3,-1541
1364,15.704337,0,0,0,1035,1,-1545
1365,15.715986,0,0,1,1032,-1,-1544
1366,15.727667,0,0,0,1032,-3,-1541
1367,15.739333,0,1,1,1033,0,-1538
1368,15.750894,0,0,1,1031,0,-1547
1369,15.76245,0,0,1,1027,0,-1550
1370,15.774016,0,-1,1,1033,-1,-1548
1371,15.785558,0,0,1,1027,1,-1541
1372,15.79711,0,-1,1,1032,0,-1543
1373,15.808666,1,0,1,1036,0,-1542
1374,15.820237,0,0,1,1032,-1,-1543
1375,15.831815,0,0,0,1034,1,-1549
1376,15.84347,0,-1,1,1030,-1,-1540
1377,15.855118,0,0,1,1035,0,-1548
1378,15.866773,1,0,1,1034,1,-1545
1379,15.878472,1,0,1,1028,-1,-1548
1380,15.890116,0,0,0,1033,1,-1544
1381,15.901795,0,0,1,1031,1,-1546
1382,15.913453,0,0,1,1036,3,-1550
1383,15.92511,0,0,1,1031,0,-1546
1384,15.936794,0,0,1,1029,1,-1547
1385,15.948474,0,0,1,1037,0,-1542
1386,15.960061,1,0,1,1028,0,-1540
1387,15.971621,1,0,1,1036,0,-1548
1388,15.983185,1,-1,1,1032,0,-1547
1389,15.99474,0,0,1,1034,2,-1546
1390,16.0063,0,0,1,1030,1,-1546
1391,16.017897,1,1,1,1032,2,-1543
1392,16.029448,1,0,1,1033,-3,-1548
1393,16.041029,0,-1,1,1031,0,-1544
1394,16.052665,1,0,1,1031,0,-1544
1395,16.064332,1,0,2,1032,0,-1546
1396,16.075994,0,0,1,1035,1,-1544
1397,16.087644,0,1,1,1037,0,-1551
1398,16.099313,-1,1,1,1028,0,-1549
1399,16.110968,0,0,1,1033,-1,-1541
1400,16.122616,0,-1,1,1033,0,-1545
1401,16.1343,0,1,1,1032,0,-1548
1402,16.145975,0,0,1,1037,2,-1549
1403,16.157628,0,1,0,1034,0,-1545
1404,16.1692,1,0,2,1032,0,-1549
1405,16.180782,1,1,0,1034,0,-1544
1406,16.192392,1,1,1,1033,1,-1544
1407,16.203958,0,0,1,1031,-3,-1547
1408,16.215534,0,-1,1,1029,5,-1536
1409,16.227127,0,0,1,1037,0,-1548
1410,16.238669,0,0,1,1031,-2,-1546
1411,16.25029,0,0,2,1032,-1,-1544
1412,16.261917,1,0,1,1031,2,-1544
1413,16.27357,-1,0,1,1033,0,-1543
1414,16.285266,-1,0,2,1033,0,-1549
1415,16.296971,1,0,1,1032,0,-1544
1416,16.308606,1,0,1,1030,-2,-1544
1417,16.320276,0,-1,1,1032,-3,-1544
1418,16.331958,0,0,1,1036,0,-1542
1419,16.343611,0,0,1,1034,0,-1539
1420,16.355279,1,-1,1,1035,-1,-1548
1421,16.366958,0,-1,1,1033,2,-1542
1422,16.378516,0,0,1,1033,0,-1542
1423,16.390059,0,0,1,1031,0,-1547
1424,16.401617,1,0,1,1031,-1,-1539
1425,16.413178,0,0,1,1034,0,-1546
1426,16.424727,0,-1,1,1035,5,-1547
1427,16.436297,0,0,0,1033,0,-1542
1428,16.447924,-1,-1,1,1034,-1,-1545
1429,16.459587,0,1,1,1030,-1,-1547
1430,16.471275,0,0,0,1030,1,-1546
1431,16.482943,0,0,1,1033,0,-1551
1432,16.494602,1,0,1,1035,-3,-1539
1433,16.506275,0,1,2,1033,-1,-1540
1434,16.517937,0,1,1,1034,-4,-1542
1435,16.529589,0,1,1,1032,2,-1543
1436,16.541262,1,0,1,1033,0,-1537
1437,16.552928,-1,0,1,1034,0,-1541
1438,16.56462,1,0,1,1033,0,-1546
1439,16.576336,1,0,2,1035,0,-1549
1440,16.588075,0,1,1,1034,-2,-1543
1441,16.599721,0,0,0,1034,0,-1546
1442,16.611371,1,0,0,1029,0,-1542
1443,16.623065,0,0,0,1035,-1,-1545
1444,16.634711,0,0,1,1032,0,-1545
1445,16.646357,0,0,1,1035,-3,-1547
1446,16.658027,0,-1,1,1036,0,-1546
1447,16.669741,0,0,1,1033,0,-1542
1448,16.681399,0,0,1,1030,0,-1544
1449,16.693098,0,0,1,1035,1,-1548
1450,16.704802,0,0,1,1033,-1,-1545
1451,16.716488,0,0,1,1034,0,-1549
1452,16.728146,0,0,1,1035,2,-1548
1453,16.739831,0,-1,0,1031,0,-1546
1454,16.751475,0,0,1,1033,-1,-1550
1455,16.76312,-1,0,0,1029,-1,-1550
1456,16.774803,0,-1,1,1034,1,-1540
1457,16.786457,0,0,1,1037,0,-1545
1458,16.79811,0,-1,0,1033,1,-1543
1459,16.809789,0,0,1,1034,0,-1544
1460,16.821438,1,0,1,1036,-2,-1536
1461,16.833109,1,0,1,1035,-2,-1542
1462,16.844784,0,0,1,1030,-1,-1542
1463,16.856466,0,0,2,1033,-1,-1547
1464,16.86817,0,0,1,1035,1,-1540
1465,16.879862,1,1,2,1031,-1,-1550
1466,16.891527,0,0,1,1036,-3,-1540
1467,16.903182,1,0,0,1029,2,-1547
1468,16.914839,1,1,1,1029,0,-1542
1469,16.92648,0,0,1,1032,-2,-1544
1470,16.938124,0,1,1,1033,3,-1551
1471,16.9498,0,0,1,1030,0,-1547
1472,16.961472,0,0,0,1031,0,-1545
1473,16.97312,0,1,0,1031,2,-1543
1474,16.984823,0,0,0,1032,4,-1543
1475,16.996501,0,-1,1,1033,0,-1541
1476,17.008063,0,-1,1,1034,0,-1543
1477,17.019612,1,1,1,1030,-1,-1541
1478,17.031165,0,1,0,1032,0,-1541
1479,17.042743,1,0,1,1036,0,-1552
1480,17.054296,1,0,0,1033,1,-1545
1481,17.065879,1,0,1,1034,0,-1548
1482,17.07742,0,0,1,1034,0,-1540
1483,17.088972,0,0,0,1032,3,-1545
1484,17.100608,0,0,0,1032,-1,-1536
1485,17.112282,1,0,1,1033,0,-1543
1486,17.123962,-1,-1,1,1033,2,-1550
1487,17.13561,0,0,1,1035,0,-1545
1488,17.147286,1,0,1,1035,0,-1538
1489,17.158936,1,0,1,1033,3,-1542
1490,17.170585,1,0,1,1032,2,-1545
1491,17.18223,0,0,0,1031,0,-1545
1492,17.193909,0,1,1,1038,0,-1543
1493,17.205561,0,0,1,1031,0,-1549
1494,17.217251,1,0,1,1030,0,-1539
1495,17.228916,1,0,2,1032,1,-1542
1496,17.240591,0,-1,1,1030,0,-1544
1497,17.252258,0,0,1,1031,0,-1545
1498,17.263905,0,0,1,1032,-1,-1543
1499,17.275564,0,0,1,1032,-2,-1536
1500,17.287216,0,0,1,1031,2,-1543
1501,17.298882,1,0,1,1034,-1,-1543
1502,17.310562,0,-1,0,1034,2,-1544
1503,17.322261,0,0,1,1033,0,-1548
1504,17.333923,0,0,1,1031,0,-1544
1505,17.345575,1,0,1,1034,0,-1552
1506,17.357275,1,0,0,1032,-3,-1547
1507,17.368979,0,0,1,1032,1,-1544
1508,17.380603,0,0,2,1036,0,-1546
1509,17.392267,0,0,1,1034,-1,-1548
1510,17.404026,0,0,0,1036,3,-1546
1511,17.415678,0,0,0,1033,-1,-1542
1512,17.42724,0,0,0,1033,-3,-1548
1513,17.438796,0,0,0,1030,1,-1546
1514,17.450388,1,0,1,1033,1,-1545
1515,17.46194,0,0,1,1032,0,-1546
1516,17.473513,0,-1,1,1036,0,-1543
1517,17.485024,0,0,0,1031,0,-1549
1518,17.496542,0,0,2,1034,0,-1545
1519,17.508074,0,0,2,1030,0,-1537
1520,17.519696,0,-1,1,1032,2,-1546
1521,17.531339,1,0,1,1032,0,-1548
1522,17.542986,1,-1,2,1031,0,-1546
1523,17.55466,1,0,2,1032,0,-1543
1524,17.566309,0,0,1,1034,4,-1538
1525,17.57796,0,0,1,1035,-2,-1536
1526,17.589613,0,0,1,1034,-3,-1539
1527,17.601292,1,-1,1,1031,-1,-1543
1528,17.612986,1,-1,1,1030,0,-1543
1529,17.624645,0,-1,1,1028,-2,-1542
1530,17.636251,0,-1,1,1032,-1,-1546
1531,17.647819,0,1,1,1030,-1,-1545
1532,17.659386,0,0,1,1031,3,-1542
1533,17.670924,0,0,1,1032,-1,-1550
1534,17.682477,0,1,1,1032,-4,-1546
1535,17.694054,0,0,1,1032,6,-1546
1536,17.705602,1,0,0,1032,0,-1545
1537,17.717168,-1,1,1,1035,-1,-1539
1538,17.728886,0,0,1,1033,2,-1540
1539,17.740594,0,1,1,1033,-3,-1544
1540,17.752258,0,0,1,1032,0,-1543
1541,17.763958,0,0,1,1035,-2,-1555
1542,17.775598,0,0,1,1032,0,-1545
1543,17.787263,1,1,2,1032,0,-1536
1544,17.798936,0,0,0,1032,1,-1546
1545,17.810576,0,-1,1,1030,-2,-1541
1546,17.822248,0,0,1,1033,-2,-1545
1547,17.833911,0,0,1,1033,0,-1546
1548,17.845463,0,1,1,1031,1,-1544
1549,17.857031,0,0,1,1030,2,-1547
1550,17.868583,0,0,0,1029,-3,-1545
1551,17.880139,0,0,1,1034,0,-1543
1552,17.891679,1,0,1,1031,-1,-1539
1553,17.903216,0,-1,1,1032,0,-1547
1554,17.914762,0,0,1,1034,-4,-1545
1555,17.926317,0,0,1,1032,-3,-1547
1556,17.937937,0,0,1,1033,4,-1547
1557,17.949591,0,1,1,1031,2,-1550
1558,17.96127,0,0,1,1034,0,-1546
1559,17.972926,0,0,1,1032,0,-1550
1560,17.984593,0,0,1,1033,3,-1548
1561,17.99626,0,0,1,1031,0,-1544
1562,18.007948,0,1,1,1035,1,-1540
1563,18.019596,0,1,2,1034,0,-1542
1564,18.031267,0,0,1,1035,0,-1542
1565,18.042929,1,0,2,1030,2,-1546
1566,18.054581,0,0,1,1038,0,-1542
1567,18.066269,0,0,1,1033,0,-1542
1568,18.077934,0,0,1,1030,0,-1544
1569,18.089584,1,0,1,1033,-2,-1541
1570,18.101273,0,0,1,1030,-2,-1551
1571,18.112938,0,0,1,1031,-3,-1547
1572,18.124593,0,0,1,1034,0,-1542
1573,18.136239,1,0,1,1032,-1,-1543
1574,18.147893,0,0,1,1033,0,-1544
1575,18.159559,0,0,1,1031,0,-1537
1576,18.171207,0,-1,1,1036,-2,-1545
1577,18.185094,0,-1,1,1032,0,-1549
1578,18.196791,0,0,1,1032,0,-1545
1579,18.208476,0,0,1,1032,2,-1545
1580,18.22015,1,0,1,1033,0,-1548
1581,18.231833,0,0,1,1034,-1,-1545
1582,18.243499,0,0,1,1030,1,-1550
1583,18.255189,0,1,1,1032,1,-1547
1584,18.266756,0,-1,1,1036,3,-1539
1585,18.278301,0,0,1,1032,2,-1538
1586,18.289851,0,0,1,1038,2,-1550
1587,18.301401,0,1,1,1032,2,-1535
1588,18.312953,0,0,1,1033,2,-1547
1589,18.324542,0,0,1,1030,0,-1549
1590,18.33619,0,0,1,1032,-1,-1548
1591,18.347776,0,0,1,1036,-3,-1540
1592,18.359431,1,0,2,1032,2,-1539
1593,18.37109,0,1,0,1031,-1,-1540
1594,18.382732,0,0,1,1032,-1,-1553
1595,18.394393,0,0,2,1035,1,-1546
1596,18.406051,0,0,1,1029,-1,-1542
1597,18.417695,0,1,1,1034,0,-1541
1598,18.429389,0,-1,1,1033,-1,-1537
1599,18.441085,0,0,1,1033,2,-1546
1600,18.452787,0,0,1,1032,-2,-1540
1601,18.464467,0,0,1,1032,2,-1547
1602,18.476106,0,-1,1,1035,2,-1543
1603,18.487777,0,0,1,1033,1,-1539
1604,18.499431,0,1,1,1033,-2,-1546
1605,18.511082,0,0,1,1028,0,-1545
1606,18.522733,0,0,1,1032,3,-1543
1607,18.534401,0,0,1,1031,-1,-1539
1608,18.546056,0,-1,0,1033,-1,-1549
1609,18.557796,-1,1,1,1035,-1,-1546
1610,18.569483,0,1,2,1033,-1,-1547
1611,18.581141,0,0,1,1031,0,-1543
1612,18.592821,0,1,1,1036,-2,-1543
1613,18.604478,0,0,1,1032,-1,-1557
1614,18.616153,1,1,1,1030,3,-1548
1615,18.627823,0,0,1,1033,-1,-1546
1616,18.639482,0,1,1,1030,1,-1540
1617,18.651135,0,0,1,1032,3,-1539
1618,18.662831,0,0,1,1031,-2,-1546
1619,18.674508,0,0,1,1035,-2,-1547
1620,18.686064,0,-1,1,1038,0,-1540
1621,18.697635,0,0,1,1029,-2,-1544
1622,18.709186,0,0,2,1034,-3,-1538
1623,18.720772,1,-1,1,1032,0,-1543
1624,18.732303,0,0,1,1029,1,-1544
1625,18.743817,1,0,1,1032,-1,-1554
1626,18.755363,0,0,1,1033,1,-1540
1627,18.766924,0,-1,1,1032,3,-1541
1628,18.77856,0,0,2,1031,-1,-1546
1629,18.790213,0,0,1,1032,2,-1541
1630,18.801869,0,0,1,1029,-3,-1541
1631,18.813555,0,0,1,1032,0,-1546
1632,18.825238,0,1,0,1036,0,-1542
1633,18.836864,0,0,1,1033,0,-1545
1634,18.848534,0,1,0,1031,-2,-1539
1635,18.860217,0,0,0,1035,2,-1544
1636,18.871886,1,-1,2,1034,-1,-1543
1637,18.883545,0,-1,2,1033,1,-1538
1638,18.895103,1,-1,2,1034,0,-1542
1639,18.906648,0,0,1,1035,-1,-1545
1640,18.918194,0,0,1,1035,0,-1546
1641,18.929759,0,0,0,1034,0,-1544
1642,18.941304,0,0,1,1031,-1,-1538
1643,18.952857,0,0,1,1031,1,-1543
1644,18.964426,1,1,1,1032,-1,-1540
1645,18.976016,0,0,0,1034,-2,-1543
1646,18.987654,0,1,1,1032,2,-1546
1647,18.999322,0,0,1,1032,1,-1544
1648,19.010961,0,-1,1,1033,1,-1542
1649,19.022612,1,0,1,1031,2,-1544
1650,19.034297,1,0,0,1033,-1,-1544
1651,19.046069,0,0,2,1034,-2,-1544
1652,19.057727,0,0,0,1034,0,-1552
1653,19.069378,0,0,1,1032,-2,-1539
1654,19.081062,1,0,1,1036,-1,-1546
1655,19.092788,0,0,1,1032,0,-1540
1656,19.104358,-1,1,1,1035,-2,-1542
1657,19.11594,0,0,1,1030,0,-1545
1658,19.127511,0,0,1,1037,0,-1545
1659,19.139064,0,0,1,1032,3,-1542
1660,19.150634,1,0,1,1035,2,-1541
1661,19.16219,0,-1,2,1033,0,-1540
1662,19.17376,0,0,1,1033,-1,-1543
1663,19.185376,0,0,1,1033,-1,-1541
1664,19.197001,0,0,1,1033,-2,-1547
1665,19.208673,1,0,1,1027,0,-1543
1666,19.220358,0,0,0,1031,5,-1538
1667,19.232033,0,0,1,1034,0,-1544
1668,19.243691,0,0,1,1033,2,-1545
1669,19.255344,0,-1,1,1029,1,-1544
1670,19.267008,0,0,0,1030,0,-1543
1671,19.278666,0,0,1,1035,3,-1545
1672,19.290339,1,0,1,1032,-1,-1542
1673,19.302016,0,1,0,1035,0,-1546
1674,19.313583,0,0,1,1033,-1,-1547
1675,19.325158,0,0,2,1033,0,-1544
1676,19.336747,0,0,1,1033,0,-1544
1677,19.348306,0,0,1,1031,2,-1545
1678,19.359893,0,0,1,1029,-2,-1545
1679,19.371476,0,0,1,1032,1,-1539
1680,19.383023,0,0,2,1032,-5,-1542
1681,19.394586,0,1,1,1028,-3,-1543
1682,19.406218,1,0,1,1036,-1,-1545
1683,19.417896,0,1,1,1033,0,-1544
1684,19.429554,0,0,2,1032,0,-1539
1685,19.441238,1,0,2,1030,-5,-1540
1686,19.452922,0,0,1,1038,-2,-1543
1687,19.464595,1,0,0,1034,-2,-1543
1688,19.47626,0,0,1,1032,-1,-1545
1689,19.487961,0,0,0,1032,1,-1538
1690,19.499616,0,0,1,1032,-1,-1545
1691,19.511278,0,0,1,1035,0,-1548
1692,19.522834,0,0,2,1035,0,-1546
1693,19.534385,0,0,1,1033,2,-1548
1694,19.545954,0,-1,1,1031,0,-1543
1695,19.557533,0,0,1,1032,0,-1545
1696,19.569121,0,0,1,1036,0,-1543
1697,19.580674,0,0,1,1029,-1,-1539
1698,19.59225,0,1,1,1034,0,-1543
1699,19.603821,0,0,0,1026,0,-1543
1700,19.61544,0,0,0,1030,-3,-1539
1701,19.627093,0,0,1,1030,-2,-1543
1702,19.638756,-1,0,1,1033,3,-1549
1703,19.650418,0,0,1,1031,1,-1556
1704,19.662071,0,1,1,1032,-2,-1547
1705,19.673745,0,0,2,1028,1,-1541
1706,19.685404,0,0,1,1035,-3,-1547
1707,19.697089,0,0,1,1034,-1,-1539
1708,19.708753,0,0,1,1035,1,-1540
1709,19.720439,0,0,1,1032,1,-1544
1710,19.732017,0,1,0,1034,0,-1548
1711,19.743562,1,1,0,1036,3,-1536
1712,19.755111,0,0,0,1033,-4,-1544
1713,19.766659,1,0,0,1033,-2,-1541
1714,19.778233,1,0,1,1032,-5,-1537
1715,19.789794,0,0,0,1035,1,-1541
1716,19.801398,0,0,1,1031,-1,-1545
1717,19.812985,0,1,1,1031,-1,-1547
1718,19.824606,0,0,1,1032,2,-1547
1719,19.836281,0,0,1,1031,0,-1548
1720,19.847957,0,1,0,1034,1,-1541
1721,19.859611,0,0,1,1031,0,-1551
1722,19.87128,0,0,1,1027,3,-1548
1723,19.882945,1,-1,1,1032,0,-1542
1724,19.894602,1,0,1,1034,5,-1544
1725,19.906269,0,0,0,1031,-1,-1553
1726,19.917932,1,-1,1,1034,0,-1545
1727,19.929612,1,0,0,1036,-1,-1543
1728,19.941191,0,1,2,1033,-2,-1544
1729,19.952777,1,1,1,1029,-2,-1556
1730,19.964418,1,1,1,1033,-3,-1547
1731,19.975968,1,0,1,1031,-4,-1548
1732,19.987524,0,0,1,1039,-1,-1546
1733,19.999073,0,0,1,1032,1,-1546
1734,20.010617,0,-1,1,1036,-1,-1543
1735,20.02218,0,1,0,1035,2,-1547
1736,20.033813,0,0,1,1031,-1,-1536
1737,20.045467,0,0,0,1035,3,-1541
1738,20.057134,0,0,1,1032,0,-1542
1739,20.068791,0,0,1,1031,0,-1542
1740,20.080475,0,0,0,1030,1,-1545
1741,20.092152,0,0,1,1034,-1,-1544
1742,20.103832,0,-1,1,1031,-2,-1541
1743,20.115482,0,0,0,1034,0,-1545
1744,20.127165,1,-1,0,1035,-1,-1550
1745,20.138816,1,0,1,1031,1,-1548
1746,20.150376,0,-1,1,1032,-4,-1541
1747,20.161931,0,0,1,1038,1,-1546
1748,20.173508,0,1,2,1034,-2,-1546
1749,20.185029,0,0,2,1037,-1,-1538
1750,20.196633,0,0,1,1031,-1,-1544
1751,20.20819,0,1,1,1031,0,-1548
1752,20.219763,0,1,1,1031,2,-1540
1753,20.231318,0,0,1,1033,-1,-1543
1754,20.242947,0,-1,1,1034,-3,-1545
1755,20.254594,0,-1,1,1036,-1,-1544
1756,20.266246,1,-1,1,1032,-1,-1548
1757,20.277937,0,0,1,1033,0,-1548
1758,20.289611,1,0,0,1029,3,-1544
1759,20.301292,0,1,1,1032,-1,-1536
1760,20.312986,0,0,0,1032,2,-1544
1761,20.32464,1,0,1,1032,1,-1545
1762,20.336359,0,0,1,1035,2,-1542
1763,20.34794,0,0,1,1034,2,-1543
1764,20.359509,1,0,1,1038,-1,-1545
1765,20.371066,0,-1,0,1033,-2,-1542
1766,20.382637,0,-1,1,1034,0,-1547
1767,20.394214,0,0,1,1033,0,-1541
1768,20.40577,0,0,0,1032,0,-1546
1769,20.417321,0,0,1,1029,4,-1546
1770,20.428889,0,0,1,1038,1,-1538
1771,20.440464,0,-1,1,1032,0,-1548
1772,20.452091,-1,0,0,1032,-1,-1543
1773,20.463757,0,0,0,1031,-2,-1539
1774,20.475426,-1,0,1,1028,0,-1550
1775,20.487081,0,0,1,1033,2,-1552
1776,20.49873,0,0,1,1032,0,-1546
1777,20.510394,0,0,1,1034,-1,-1547
1778,20.522049,1,0,1,1031,0,-1545
1779,20.533695,0,0,2,1032,0,-1544
1780,20.545412,0,1,1,1033,-2,-1540
1781,20.557097,0,0,1,1033,-2,-1543
1782,20.568772,1,-1,1,1032,-1,-1546
1783,20.580459,1,-1,0,1035,0,-1550
1784,20.592089,0,0,1,1035,0,-1545
1785,20.603737,0,-1,1,1032,-4,-1539
1786,20.615407,0,0,1,1032,0,-1542
1787,20.627059,0,-1,1,1031,-2,-1541
1788,20.638706,-1,-1,2,1033,-3,-1541
1789,20.650397,0,0,1,1034,-2,-1549
1790,20.662081,0,0,1,1031,1,-1544
1791,20.673735,0,1,1,1034,0,-1546
1792,20.685407,0,0,1,1033,3,-1546
1793,20.697099,0,0,1,1029,-2,-1543
1794,20.708775,1,0,1,1032,0,-1542
1795,20.72046,1,0,1,1030,-2,-1536
1796,20.73209,1,0,1,1031,2,-1542
1797,20.743734,1,1,2,1032,-2,-1546
1798,20.755416,0,0,0,1032,-3,-1541
1799,20.767071,0,-1,1,1034,0,-1541
1800,20.778719,1,0,1,1034,0,-1545
1801,20.790361,1,0,1,1033,0,-1544
1802,20.802035,1,-1,1,1032,3,-1541
1803,20.813689,0,0,0,1032,-4,-1545
1804,20.825367,0,0,0,1032,-3,-1543
1805,20.837045,-1,0,1,1035,0,-1547
1806,20.848717,1,1,1,1030,-1,-1542
1807,20.860368,0,0,1,1033,2,-1541
1808,20.872058,0,0,1,1035,2,-1543
1809,20.883651,0,0,2,1031,0,-1542
1810,20.895245,0,1,2,1033,-1,-1549
1811,20.906919,0,0,0,1034,1,-1546
1812,20.918503,0,0,1,1032,-1,-1546
1813,20.93006,0,0,0,1030,1,-1538
1814,20.941649,0,0,0,1032,3,-1542
1815,20.953206,0,0,2,1030,-3,-1548
1816,20.964791,0,0,1,1034,0,-1545
1817,20.976389,1,0,1,1031,1,-1537
1818,20.98795,0,1,1,1035,3,-1543
1819,20.999518,0,-1,1,1028,0,-1543
1820,21.011062,0,0,1,1032,0,-1544
1821,21.022613,0,0,1,1032,-2,-1543
1822,21.034203,0,-1,1,1032,-1,-1544
1823,21.045766,0,0,1,1033,0,-1546
1824,21.057347,1,0,1,1031,0,-1549
1825,21.069017,0,0,2,1030,-2,-1542
1826,21.080713,0,0,2,1028,-3,-1540
1827,21.092356,0,1,1,1029,-2,-1544
1828,21.104015,0,0,1,1031,4,-1543
1829,21.115678,1,0,1,1035,-1,-1545
1830,21.127335,0,0,1,1033,-1,-1545
1831,21.138985,0,0,1,1033,2,-1553
1832,21.150637,0,1,1,1029,0,-1539
1833,21.162327,-1,1,1,1032,0,-1545
1834,21.173985,0,0,1,1035,-1,-1543
1835,21.185639,0,0,1,1037,0,-1539
1836,21.197315,0,0,0,1035,2,-1543
1837,21.209004,0,0,1,1031,0,-1541
1838,21.220676,-1,-1,1,1032,-4,-1547
1839,21.232348,1,0,1,1031,0,-1547
1840,21.244023,0,1,2,1033,0,-1541
1841,21.255687,0,0,1,1032,-2,-1547
1842,21.267411,0,0,1,1030,-2,-1541
1843,21.27907,0,0,1,1030,-5,-1544
1844,21.290634,0,0,1,1031,-1,-1546
1845,21.302178,0,0,1,1031,0,-1543
1846,21.313742,0,0,1,1033,0,-1546
1847,21.325286,0,0,2,1036,1,-1544
1848,21.336837,0,1,1,1031,-1,-1544
1849,21.348383,0,0,1,1033,-2,-1548
1850,21.359945,1,0,1,1029,-1,-1549
1851,21.371513,1,1,1,1030,-1,-1544
1852,21.383148,0,0,1,1031,0,-1542
1853,21.39481,0,0,1,1032,-3,-1557
1854,21.406488,1,0,1,1031,-2,-1543
1855,21.418163,0,-1,1,1031,-1,-1547
1856,21.429817,0,0,1,1033,-3,-1542
1857,21.441476,0,0,1,1034,2,-1542
1858,21.453115,0,0,2,1028,1,-1544
1859,21.464772,0,0,1,1030,1,-1545
1860,21.47644,0,-1,1,1033,-5,-1543
1861,21.488087,0,0,1,1032,-1,-1544
1862,21.499647,0,0,1,1033,2,-1546
1863,21.511198,0,0,1,1035,-2,-1546
1864,21.52276,0,0,1,1030,-2,-1548
1865,21.534358,0,0,1,1030,0,-1538
1866,21.545915,0,0,1,1031,-3,-1544
1867,21.557482,0,-1,0,1035,4,-1540
1868,21.569033,0,-1,1,1033,-2,-1555
1869,21.580605,1,-1,0,1032,1,-1540
1870,21.592273,1,1,0,1031,0,-1547
1871,21.603957,0,-1,1,1034,1,-1549
1872,21.615634,1,0,1,1028,0,-1543
1873,21.627279,0,0,0,1030,3,-1544
1874,21.638928,0,-1,1,1036,0,-1550
1875,21.650601,0,0,0,1039,-3,-1543
1876,21.662262,0,1,0,1033,1,-1546
1877,21.673919,1,1,0,1034,0,-1540
1878,21.685625,1,1,0,1029,2,-1539
1879,21.697282,0,0,1,1031,2,-1543
1880,21.708835,0,0,1,1036,2,-1548
1881,21.720441,1,0,1,1030,0,-1547
1882,21.731993,0,0,1,1035,0,-1547
1883,21.743564,-1,0,0,1031,0,-1548
1884,21.755106,1,0,1,1035,0,-1538
1885,21.766652,1,0,1,1031,-1,-1541
1886,21.778219,1,0,1,1030,2,-1550
1887,21.789768,0,0,2,1034,0,-1541
1888,21.801411,1,0,0,1029,-2,-1544
1889,21.813116,0,0,1,1031,-1,-1541
1890,21.824777,1,0,1,1030,0,-1540
1891,21.836455,0,0,1,1031,1,-1544
1892,21.848093,0,-1,1,1035,0,-1544
1893,21.85974,1,0,1,1032,-6,-1546
1894,21.871386,0,-1,1,1030,0,-1536
1895,21.883031,0,1,1,1031,0,-1546
1896,21.894693,1,0,0,1031,2,-1542
1897,21.906241,1,1,2,1031,0,-1539
1898,21.917788,0,0,1,1034,0,-1545
1899,21.929344,0,-1,1,1027,-1,-1542
1900,21.940914,0,0,1,1032,-1,-1544
1901,21.952469,0,0,1,1035,-1,-1549
1902,21.964049,0,0,2,1035,2,-1537
1903,21.975626,0,0,1,1031,-2,-1551
1904,21.98719,0,0,1,1030,0,-1541
1905,21.998825,0,1,1,1035,1,-1550
1906,22.010483,1,1,1,1028,1,-1543
1907,22.022127,0,0,0,1032,2,-1547
1908,22.033743,0,1,1,1033,0,-1543
1909,22.04541,1,0,1,1033,0,-1546
1910,22.057086,0,0,1,1031,-3,-1546
1911,22.068747,0,0,1,1032,-1,-1546
1912,22.080421,0,1,1,1034,2,-1539
1913,22.0921,0,0,2,1034,4,-1544
1914,22.103761,1,0,2,1031,3,-1544
1915,22.115328,1,1,1,1029,0,-1548
1916,22.126885,0,0,1,1031,1,-1543
1917,22.138437,0,0,0,1030,-1,-1546
1918,22.150016,1,1,1,1031,-1,-1544
1919,22.161571,1,0,2,1034,0,-1544
1920,22.173164,0,0,2,1028,0,-1544
1921,22.184761,0,0,1,1031,-2,-1544
1922,22.196309,0,1,1,1034,0,-1541
1923,22.207991,0,1,1,1030,-1,-1544
1924,22.219661,1,0,1,1036,-1,-1541
1925,22.231318,1,0,0,1034,1,-1546
1926,22.242965,1,0,1,1032,0,-1544
1927,22.254617,1,0,1,1032,-1,-1544
1928,22.266303,0,1,1,1031,0,-1538
1929,22.277952,-1,-1,1,1033,0,-1551
1930,22.289636,0,0,2,1033,0,-1536
1931,22.301314,0,0,1,1028,0,-1549
1932,22.312967,0,0,0,1033,0,-1548
1933,22.324535,0,-1,1,1032,0,-1541
1934,22.33607,0,1,1,1033,0,-1548
1935,22.347619,0,0,1,1030,5,-1539
1936,22.359163,1,0,1,1031,0,-1544
1937,22.370705,0,-1,2,1034,-2,-1544
1938,22.382251,0,0,1,1027,0,-1543
1939,22.393823,0,0,1,1034,0,-1545
1940,22.405417,0,1,1,1029,0,-1551
1941,22.417043,0,0,1,1032,1,-1544
1942,22.428747,0,0,0,1028,-5,-1550
1943,22.440426,0,0,1,1032,0,-1548
1944,22.452095,1,0,1,1036,0,-1541
1945,22.463757,0,0,1,1034,1,-1553
1946,22.475416,0,1,1,1031,-1,-1540
1947,22.487084,0,-1,1,1029,-4,-1546
1948,22.498757,1,1,1,1031,1,-1546
1949,22.510416,1,0,1,1034,0,-1541
1950,22.522125,1,0,1,1033,0,-1541
1951,22.533691,1,0,0,1031,-2,-1544
1952,22.545263,0,0,1,1032,0,-1544
1953,22.556802,1,0,1,1036,-3,-1542
1954,22.56835,0,0,1,1033,0,-1542
1955,22.579892,0,0,1,1032,0,-1540
1956,22.591438,0,0,0,1030,-2,-1545
1957,22.603003,0,1,1,1032,0,-1543
1958,22.614567,0,0,1,1031,0,-1544
1959,22.626215,0,1,1,1034,0,-1553
1960,22.637868,0,1,1,1031,0,-1542
1961,22.649508,1,0,1,1033,-1,-1545
1962,22.661161,0,0,1,1036,2,-1543
1963,22.672852,1,0,0,1032,0,-1546
1964,22.684507,0,-1,0,1033,-6,-1545
1965,22.696161,0,0,2,1033,0,-1546
1966,22.707829,0,0,1,1034,4,-1550
1967,22.719487,0,0,1,1032,0,-1542
1968,22.731122,0,-1,1,1030,-1,-1544
1969,22.742666,0,0,1,1036,1,-1545
1970,22.754236,0,0,1,1031,0,-1545
1971,22.765785,0,0,0,1031,-4,-1547
1972,22.777331,1,0,0,1032,-1,-1549
1973,22.788901,0,0,0,1033,1,-1545
1974,22.800443,0,0,1,1031,-1,-1540
1975,22.811998,1,0,1,1034,-1,-1543
1976,22.823553,1,0,1,1032,0,-1546
1977,22.835188,0,0,1,1032,2,-1536
1978,22.846842,0,0,1,1033,-3,-1542
1979,22.858503,0,1,0,1033,-1,-1547
1980,22.870173,1,0,2,1030,0,-1542
1981,22.881847,0,0,1,1030,2,-1547
1982,22.893512,0,0,0,1034,0,-1540
1983,22.905173,0,0,1,1032,1,-1542
1984,22.916844,1,0,1,1036,1,-1543
1985,22.928533,1,0,1,1034,-1,-1541
1986,22.940061,1,0,1,1031,-3,-1540
1987,22.951612,0,0,1,1033,1,-1543
1988,22.96316,0,0,1,1035,3,-1544
1989,22.974734,0,0,0,1030,-1,-1546
1990,22.986284,0,-1,1,1029,2,-1542
1991,22.997834,0,0,1,1033,1,-1548
1992,23.009378,0,1,1,1033,2,-1547
1993,23.020969,0,0,1,1029,0,-1551
1994,23.032546,0,0,1,1034,0,-1543
1995,23.044253,0,0,1,1029,0,-1543
1996,23.055945,0,1,1,1032,0,-1548
1997,23.067593,1,0,1,1037,1,-1544
1998,23.07926,0,1,1,1030,0,-1544
1999,23.090907,1,1,1,1031,4,-1546
