sample,t_s,gyro_x,gyro_y,gyro_z,accel_x,accel_y,accel_z
0,1.2e-05,5,5,11,16,23,-1024
1,0.011328,3,6,10,11,28,-1021
2,0.022555,3,7,9,8,28,-1016
3,0.033742,2,6,9,13,27,-1030
4,0.044928,3,6,9,13,26,-1022
5,0.056117,2,6,8,11,29,-1020
6,0.067301,2,6,9,12,23,-1026
7,0.078502,2,7,9,13,26,-1022
8,0.089687,2,6,9,11,29,-1017
9,0.100874,2,6,9,15,28,-1025
10,0.112059,2,5,9,16,26,-1021
11,0.123246,1,5,10,10,24,-1028
12,0.134393,2,5,10,16,19,-1019
13,0.145581,1,6,9,14,26,-1016
14,0.156764,1,6,8,12,28,-1018
15,0.167957,2,6,9,13,25,-1020
16,0.179145,2,4,9,12,23,-1018
17,0.190337,2,4,9,12,27,-1023
18,0.201529,2,6,9,15,26,-1025
19,0.212719,2,7,8,11,28,-1013
20,0.223906,2,8,9,11,26,-1025
21,0.2351,2,7,9,10,27,-1024
22,0.246288,3,7,9,14,26,-1021
23,0.257488,2,6,9,10,30,-1022
24,0.268675,2,6,8,13,25,-1028
25,0.279862,2,5,8,12,29,-1021
26,0.291055,2,7,9,14,24,-1019
27,0.302213,2,7,9,11,30,-1027
28,0.3134,3,6,9,12,25,-1026
29,0.324584,3,7,9,15,27,-1024
30,0.335769,3,8,9,12,24,-1024
31,0.346948,2,7,9,12,27,-1020
32,0.358134,3,6,9,17,24,-1021
33,0.369319,3,6,9,11,29,-1018
34,0.380506,3,6,9,11,24,-1024
35,0.39169,2,6,9,14,25,-1030
36,0.402881,2,6,9,14,24,-1026
37,0.414081,2,6,9,12,27,-1023
38,0.425272,2,7,9,8,26,-1017
39,0.436461,2,5,8,11,26,-1022
40,0.447646,2,4,9,18,24,-1027
41,0.458848,2,7,9,14,25,-1021
42,0.470023,3,6,10,8,25,-1016
43,0.481215,3,7,9,11,30,-1021
44,0.492405,3,8,9,8,29,-1020
45,0.50359,3,7,9,11,25,-1021
46,0.514763,3,6,9,14,27,-1023
47,0.525945,2,6,9,12,29,-1027
48,0.537129,2,5,9,12,26,-1023
49,0.548311,1,3,9,14,28,-1021
50,0.559493,2,6,9,10,26,-1028
51,0.570687,2,6,9,14,23,-1019
52,0.581869,2,6,8,10,26,-1023
53,0.593052,1,5,10,14,29,-1021
54,0.604235,2,5,10,13,28,-1020
55,0.615418,2,5,10,12,26,-1019
56,0.626604,2,6,9,11,30,-1017
57,0.637793,2,6,9,10,27,-1021
58,0.648982,2,5,9,11,24,-1021
59,0.660174,3,6,9,13,28,-1024
60,0.671359,2,6,9,10,23,-1021
61,0.682548,3,5,9,11,24,-1025
62,0.693734,2,5,9,14,22,-1026
63,0.70492,2,5,8,12,24,-1022
64,0.71611,2,5,8,16,27,-1020
65,0.727296,3,6,8,12,28,-1020
66,0.738485,3,6,8,14,25,-1022
67,0.74967,3,7,9,14,25,-1018
68,0.760856,3,6,8,12,25,-1021
69,0.772053,3,5,9,14,31,-1026
70,0.783239,3,6,9,14,30,-1026
71,0.794391,3,6,10,14,28,-1026
72,0.80558,3,6,9,12,28,-1021
73,0.816765,2,6,10,15,25,-1023
74,0.827951,2,6,10,10,26,-1016
75,0.839133,2,6,9,13,29,-1020
76,0.850336,2,7,9,9,25,-1019
77,0.861535,3,6,8,15,26,-1022
78,0.872724,3,8,9,12,23,-1026
79,0.883911,2,7,10,10,26,-1022
80,0.8951,2,7,10,12,26,-1017
81,0.906286,3,7,9,12,24,-1028
82,0.917471,2,7,10,13,25,-1021
83,0.928661,2,6,10,15,30,-1022
84,0.939845,2,6,10,12,30,-1023
85,0.951034,2,5,10,14,27,-1021
86,0.962215,2,5,9,10,28,-1027
87,0.973421,3,5,9,15,25,-1016
88,0.984632,3,6,10,14,29,-1017
89,0.99582,2,6,9,13,26,-1017
90,1.007014,3,6,9,12,26,-1022
91,1.018212,3,7,8,10,28,-1019
92,1.029399,2,7,9,13,24,-1025
93,1.040596,3,6,10,11,25,-1023
94,1.051781,3,6,10,12,28,-1022
95,1.06295,1,6,9,15,25,-1033
96,1.074136,2,6,8,11,27,-1018
97,1.085319,2,7,8,14,28,-1019
98,1.096501,3,6,9,12,27,-1022
99,1.107683,3,6,9,13,27,-1022
100,1.118874,2,5,10,15,25,-1021
101,1.130046,2,7,9,11,24,-1026
102,1.141234,2,5,9,11,23,-1025
103,1.152419,3,6,8,11,27,-1018
104,1.163605,2,6,9,14,24,-1021
105,1.174762,2,5,9,12,29,-1020
106,1.185948,2,6,9,16,24,-1023
107,1.197137,3,6,8,16,26,-1019
108,1.208324,3,5,8,12,22,-1020
109,1.219518,3,6,8,13,25,-1022
110,1.230716,2,7,9,16,26,-1022
111,1.2419,2,6,9,12,28,-1021
112,1.253091,2,6,10,9,26,-1019
113,1.264276,2,5,10,12,26,-1023
114,1.275463,3,6,10,14,24,-1020
115,1.286654,2,5,9,7,25,-1022
116,1.297842,2,4,9,15,23,-1018
117,1.309034,2,6,9,14,24,-1019
118,1.320221,3,6,9,12,25,-1018
119,1.331405,3,6,9,13,22,-1025
120,1.34258,2,6,8,14,23,-1024
121,1.353766,2,5,9,13,30,-1021
122,1.364955,2,5,9,9,26,-1027
123,1.376142,3,6,9,12,27,-1022
124,1.387335,3,5,9,12,28,-1029
125,1.398527,4,7,9,9,25,-1017
126,1.409715,3,7,9,10,25,-1025
127,1.420902,2,7,8,10,24,-1018
128,1.432096,2,6,9,13,26,-1023
129,1.44328,3,6,9,13,27,-1024
130,1.454477,2,6,9,13,22,-1026
131,1.465662,3,5,9,11,23,-1022
132,1.476846,3,6,10,12,26,-1022
133,1.488044,2,6,9,12,28,-1022
134,1.499229,2,6,9,16,26,-1024
135,1.510394,2,6,8,8,26,-1023
136,1.521582,2,6,8,14,25,-1026
137,1.532778,2,6,9,15,27,-1018
138,1.543964,2,6,9,14,23,-1018
139,1.555155,2,5,8,13,26,-1025
140,1.566344,3,5,8,12,24,-1019
141,1.577526,3,7,8,14,26,-1022
142,1.588714,2,6,9,15,25,-1025
143,1.599899,2,6,9,12,23,-1022
144,1.611087,3,6,8,12,27,-1024
145,1.622283,3,7,8,11,24,-1018
146,1.633466,3,7,9,15,26,-1020
147,1.644653,2,7,9,9,26,-1024
148,1.655845,2,8,9,14,23,-1022
149,1.667035,2,6,9,15,25,-1021
150,1.67821,3,5,10,13,26,-1020
151,1.689397,2,7,9,16,27,-1026
152,1.700581,2,7,9,10,29,-1027
153,1.711766,3,8,9,13,29,-1022
154,1.722955,3,7,8,12,25,-1028
155,1.734142,3,7,8,14,25,-1028
156,1.74533,3,6,9,12,26,-1022
157,1.756512,3,6,9,10,28,-1020
158,1.7677,3,7,9,17,24,-1016
159,1.778923,2,7,10,12,26,-1021
160,1.790111,2,7,9,14,25,-1026
161,1.801295,2,6,9,10,22,-1020
162,1.812478,3,6,9,14,25,-1022
163,1.823658,3,7,9,9,25,-1026
164,1.834842,3,8,10,11,30,-1023
165,1.846037,2,6,9,16,25,-1021
166,1.857214,2,6,9,12,25,-1027
167,1.8684,3,7,9,11,26,-1020
168,1.87958,2,6,9,12,26,-1025
169,1.890761,2,5,8,9,27,-1020
170,1.901945,2,6,9,10,25,-1019
171,1.913132,2,5,9,11,24,-1022
172,1.924316,3,6,8,12,24,-1017
173,1.935501,2,5,10,14,23,-1020
174,1.9467,2,5,9,13,26,-1024
175,1.957883,3,6,9,8,27,-1019
176,1.96907,3,7,9,15,26,-1020
177,1.98025,2,5,9,11,24,-1017
178,1.991431,1,5,9,13,24,-1024
179,2.00259,2,5,10,13,28,-1018
180,2.013771,3,6,8,12,25,-1025
181,2.024961,3,6,9,14,28,-1024
182,2.036148,2,6,8,12,27,-1020
183,2.047332,2,7,8,12,29,-1020
184,2.058528,3,7,8,13,21,-1020
185,2.06971,3,7,9,12,27,-1022
186,2.080894,3,6,9,10,28,-1024
187,2.092075,3,6,9,14,24,-1021
188,2.103255,3,5,9,10,25,-1030
189,2.11444,2,6,8,13,27,-1022
190,2.12562,2,5,9,14,25,-1025
191,2.136803,2,6,10,16,24,-1019
192,2.147985,2,5,10,11,29,-1021
193,2.159167,2,6,9,10,23,-1015
194,2.170353,2,7,10,13,25,-1027
195,2.181536,2,6,9,13,25,-1019
196,2.192719,3,6,8,15,24,-1020
197,2.203913,3,6,9,10,21,-1019
198,2.215098,3,6,9,10,26,-1024
199,2.226284,2,7,9,12,25,-1023
200,2.237466,2,6,9,12,26,-1019
201,2.248655,3,7,10,13,22,-1026
202,2.259837,2,7,10,18,24,-1022
203,2.271022,2,7,10,13,23,-1027
204,2.282218,3,6,9,12,22,-1022
205,2.2934,3,7,9,16,24,-1024
206,2.304586,2,6,10,12,28,-1021
207,2.315766,3,6,10,15,26,-1023
208,2.326953,2,7,9,12,22,-1030
209,2.338141,2,6,9,14,24,-1021
210,2.349327,3,7,9,15,28,-1022
211,2.360511,1,7,10,16,23,-1020
212,2.371695,2,6,9,14,26,-1024
213,2.382881,2,7,9,12,24,-1021
214,2.39408,2,5,9,13,26,-1020
215,2.405264,2,4,9,11,20,-1022
216,2.416459,2,5,10,12,24,-1026
217,2.427646,2,5,8,11,23,-1017
218,2.43884,3,6,9,10,23,-1026
219,2.450028,2,6,9,12,29,-1021
220,2.461213,3,8,8,11,27,-1022
221,2.472398,3,8,8,13,26,-1018
222,2.483582,3,6,8,12,29,-1021
223,2.494766,2,6,9,10,26,-1018
224,2.505952,2,6,9,13,23,-1020
225,2.517141,2,6,8,15,24,-1022
226,2.528329,3,7,8,13,23,-1014
227,2.53952,3,6,8,13,24,-1022
228,2.550709,3,7,9,14,28,-1020
229,2.561904,3,7,9,13,26,-1024
230,2.573085,2,6,8,14,19,-1015
231,2.584274,3,5,9,14,28,-1015
232,2.595457,3,6,9,13,25,-1026
233,2.606648,2,6,9,12,27,-1016
234,2.617831,2,6,9,9,24,-1024
235,2.629018,2,5,9,15,25,-1022
236,2.640202,2,6,9,11,23,-1019
237,2.651388,3,5,8,10,22,-1020
238,2.662578,3,6,9,15,30,-1020
239,2.673762,2,4,9,14,26,-1021
240,2.684962,2,6,9,14,27,-1021
241,2.696152,2,7,9,12,28,-1018
242,2.707334,3,6,9,15,27,-1019
243,2.718522,3,7,9,11,25,-1018
244,2.729706,3,7,9,11,22,-1018
245,2.740891,3,8,8,15,23,-1021
246,2.752084,3,7,8,15,26,-1022
247,2.763267,3,8,9,11,25,-1024
248,2.774464,3,8,8,7,27,-1017
249,2.78565,2,6,10,7,24,-1021
250,2.796833,3,6,9,12,24,-1026
251,2.80802,1,8,9,12,29,-1019
252,2.819202,2,7,9,16,28,-1026
253,2.830391,2,8,10,14,24,-1027
254,2.841576,2,7,9,15,27,-1023
255,2.852761,2,7,9,11,29,-1022
256,2.863947,2,6,9,8,24,-1024
257,2.875133,2,5,9,14,22,-1021
258,2.886327,1,6,9,14,24,-1022
259,2.897511,2,5,9,11,24,-1020
260,2.908702,2,6,9,9,24,-1025
261,2.919901,3,5,9,14,27,-1021
262,2.931088,2,6,8,11,26,-1025
263,2.942275,2,6,9,8,24,-1026
264,2.953455,2,6,9,16,26,-1023
265,2.964638,2,6,9,15,25,-1019
266,2.975822,2,6,10,9,25,-1022
267,2.987015,2,6,9,9,24,-1025
268,2.99821,2,6,9,13,23,-1022
269,3.009393,2,8,9,12,27,-1022
270,3.020582,2,7,9,9,27,-1025
271,3.031775,2,7,9,13,26,-1027
272,3.042953,2,7,9,10,28,-1023
273,3.054143,3,7,9,17,27,-1022
274,3.065327,3,7,9,12,24,-1022
275,3.076511,3,7,9,14,26,-1023
276,3.087695,3,6,10,10,26,-1016
277,3.098883,3,8,10,8,27,-1020
278,3.110067,3,7,8,9,25,-1018
279,3.121252,3,7,8,11,26,-1014
280,3.132433,3,8,9,14,24,-1021
281,3.143612,2,7,9,9,29,-1019
282,3.154764,3,6,8,14,23,-1020
283,3.165948,3,6,8,13,27,-1024
284,3.177134,2,5,9,11,26,-1026
285,3.188325,3,5,8,13,22,-1028
286,3.199511,3,6,8,15,26,-1017
287,3.210703,3,7,9,9,26,-1019
288,3.221886,2,7,9,15,25,-1021
289,3.233072,3,7,8,16,22,-1022
290,3.244275,3,7,9,11,25,-1022
291,3.255459,2,7,9,13,29,-1023
292,3.266661,3,5,9,13,29,-1020
293,3.277847,2,6,9,14,21,-1019
294,3.28903,3,6,9,13,28,-1020
295,3.300212,3,6,8,14,27,-1034
296,3.311394,2,5,10,10,28,-1018
297,3.322576,3,6,9,15,25,-1021
298,3.333759,2,6,9,15,24,-1022
299,3.344941,2,6,9,12,25,-1018
300,3.356123,2,6,9,14,27,-1019
301,3.367309,3,6,10,10,25,-1028
302,3.378507,2,6,10,12,26,-1020
303,3.38969,2,5,9,15,24,-1020
304,3.400882,2,6,9,18,25,-1022
305,3.412064,2,6,9,11,27,-1026
306,3.423252,2,5,9,7,25,-1024
307,3.434438,2,5,9,15,24,-1022
308,3.44562,2,5,9,11,28,-1020
309,3.456805,2,5,9,13,27,-1020
310,3.467988,2,5,9,9,23,-1022
311,3.479165,2,6,10,12,27,-1025
312,3.49035,2,8,9,13,26,-1028
313,3.50153,2,7,9,13,25,-1018
314,3.512722,2,6,9,10,24,-1018
315,3.523903,2,8,9,14,27,-1024
316,3.535086,3,8,9,13,24,-1022
317,3.546271,3,6,8,11,26,-1023
318,3.557452,2,6,10,7,23,-1028
319,3.568635,2,5,9,14,25,-1029
320,3.579818,3,4,8,11,30,-1021
321,3.591005,2,6,9,14,25,-1020
322,3.602203,1,6,9,13,26,-1018
323,3.613382,2,6,9,11,23,-1025
324,3.624576,2,6,9,14,25,-1020
325,3.635762,3,6,9,13,25,-1018
326,3.646941,3,7,8,13,26,-1020
327,3.658133,2,6,8,13,25,-1021
328,3.669312,2,7,9,13,25,-1025
329,3.680497,2,7,9,14,25,-1025
330,3.691681,2,7,9,14,29,-1024
331,3.702877,2,6,9,12,25,-1021
332,3.714023,3,6,10,10,23,-1026
333,3.725204,3,7,9,13,29,-1015
334,3.736389,2,7,9,17,26,-1022
335,3.74757,2,6,8,13,30,-1023
336,3.758766,2,7,8,15,25,-1021
337,3.769948,2,6,8,7,26,-1018
338,3.781133,2,7,8,14,25,-1016
339,3.792311,2,6,9,10,27,-1015
340,3.803493,2,5,9,13,22,-1024
341,3.814689,3,4,9,12,27,-1015
342,3.825874,3,6,8,12,26,-1018
343,3.837065,3,6,9,11,22,-1024
344,3.84825,2,7,8,13,26,-1021
345,3.859434,3,7,8,11,26,-1026
346,3.870623,2,6,8,11,26,-1027
347,3.881809,2,6,9,14,27,-1028
348,3.892995,2,7,9,12,27,-1019
349,3.904186,3,7,9,10,27,-1020
350,3.915369,2,8,8,12,28,-1029
351,3.926574,2,7,9,12,23,-1020
352,3.937755,2,5,9,15,26,-1024
353,3.948941,2,6,9,14,25,-1022
354,3.960126,2,5,10,12,23,-1019
355,3.971306,2,5,9,13,23,-1023
356,3.982514,2,6,9,11,23,-1024
357,3.993696,2,6,8,7,22,-1023
358,4.004877,2,5,8,9,22,-1029
359,4.016062,2,5,9,8,23,-1023
360,4.027246,3,5,10,15,25,-1021
361,4.038391,3,5,8,12,25,-1019
362,4.049572,2,5,9,11,28,-1024
363,4.060762,2,5,9,15,30,-1024
364,4.071953,1,6,10,13,26,-1028
365,4.083138,1,6,9,11,30,-1023
366,4.094324,2,6,9,13,27,-1021
367,4.105506,3,5,9,12,23,-1022
368,4.116693,2,5,9,11,26,-1024
369,4.127875,2,5,9,11,23,-1023
370,4.139066,2,4,9,17,25,-1023
371,4.15021,2,5,9,16,25,-1023
372,4.161391,2,6,9,11,25,-1018
373,4.172578,2,6,10,13,24,-1018
374,4.183761,3,6,10,10,27,-1022
375,4.194947,2,7,10,14,25,-1019
376,4.206133,2,7,10,11,24,-1024
377,4.217317,2,7,9,12,28,-1023
378,4.228499,3,7,9,11,25,-1023
379,4.239681,3,8,9,13,27,-1022
380,4.250871,2,8,9,9,27,-1024
381,4.26202,2,6,9,15,24,-1020
382,4.2732,3,8,9,12,25,-1024
383,4.284384,3,6,9,10,25,-1023
384,4.295565,3,6,8,13,24,-1024
385,4.30676,3,7,8,11,25,-1022
386,4.31794,3,6,9,17,27,-1026
387,4.329125,2,7,8,12,24,-1024
388,4.340336,2,5,9,11,27,-1021
389,4.35152,2,4,9,15,27,-1021
390,4.362705,2,5,9,14,27,-1027
391,4.373887,2,5,9,14,20,-1018
392,4.385069,2,6,10,12,27,-1018
393,4.396249,2,7,10,11,24,-1023
394,4.407434,2,7,9,7,23,-1018
395,4.418578,3,6,9,12,27,-1017
396,4.429759,3,7,9,11,23,-1024
397,4.440946,2,6,9,11,30,-1026
398,4.452143,3,5,8,11,26,-1022
399,4.463325,2,6,8,11,27,-1029
400,4.47451,2,6,9,12,24,-1019
401,4.485693,2,7,9,11,30,-1026
402,4.496874,3,7,9,12,24,-1019
403,4.508056,3,7,8,14,30,-1028
404,4.519587,2,6,9,12,29,-1025
405,4.531251,1,6,9,15,29,-1019
406,4.542909,2,6,9,12,30,-1020
407,4.554588,3,6,8,14,27,-1023
408,4.566259,2,6,8,13,27,-1024
409,4.577908,2,6,9,15,23,-1026
410,4.589554,2,6,9,13,27,-1023
411,4.601203,2,6,9,12,24,-1019
412,4.612861,2,6,9,11,26,-1024
413,4.624514,2,6,9,12,28,-1022
414,4.63616,1,6,9,18,25,-1021
415,4.647797,2,7,9,12,27,-1023
416,4.659471,2,6,8,10,31,-1017
417,4.671147,2,6,8,10,23,-1021
418,4.682814,3,6,9,11,23,-1031
419,4.694478,3,6,9,10,26,-1025
420,4.70617,2,6,9,14,25,-1024
421,4.717817,2,5,9,12,27,-1021
422,4.729385,2,5,9,15,28,-1025
423,4.74097,2,6,9,14,24,-1022
424,4.752516,2,6,9,14,27,-1021
425,4.764076,3,5,9,9,25,-1017
426,4.775612,2,6,8,13,21,-1017
427,4.787159,1,5,9,12,26,-1020
428,4.798703,2,6,8,12,25,-1027
429,4.81024,2,7,9,10,23,-1025
430,4.821787,2,6,9,11,27,-1020
431,4.833403,2,6,9,14,24,-1023
432,4.845057,2,6,10,13,27,-1024
433,4.856723,2,7,9,12,28,-1022
434,4.868378,3,7,10,12,25,-1024
435,4.880037,2,6,10,13,29,-1022
436,4.891686,3,6,8,11,24,-1022
437,4.903366,2,6,9,11,28,-1024
438,4.915078,2,7,9,14,23,-1022
439,4.926786,2,6,9,10,27,-1024
440,4.938478,2,6,10,12,26,-1022
441,4.950189,3,6,9,12,29,-1025
442,4.96184,3,6,9,12,27,-1013
443,4.97353,2,6,9,12,30,-1025
444,4.985401,2,6,9,14,24,-1023
445,4.99722,2,6,9,13,32,-1019
446,5.008898,3,6,9,11,26,-1021
447,5.020568,2,6,8,14,27,-1020
448,5.032251,2,5,9,7,31,-1026
449,5.043809,2,6,9,8,25,-1030
450,5.055406,2,6,9,13,26,-1026
451,5.066973,2,6,9,13,24,-1020
452,5.078588,2,5,9,12,27,-1023
453,5.090144,3,6,9,13,27,-1019
454,5.101692,3,6,9,14,22,-1023
455,5.113248,3,5,8,13,25,-1025
456,5.12482,2,6,9,10,24,-1024
457,5.13641,3,6,9,14,22,-1023
458,5.148101,3,6,9,11,24,-1029
459,5.159768,3,6,9,11,29,-1025
460,5.171425,2,6,8,14,24,-1024
461,5.183112,2,6,9,10,30,-1028
462,5.194767,2,7,9,16,28,-1024
463,5.206455,3,7,9,14,25,-1023
464,5.218135,2,7,10,10,27,-1027
465,5.229782,2,6,9,13,24,-1021
466,5.241448,2,6,9,12,24,-1019
467,5.253119,2,6,9,12,28,-1023
468,5.264697,3,6,9,12,25,-1027
469,5.276252,2,6,9,11,25,-1022
470,5.28783,3,6,9,17,26,-1025
471,5.299405,2,6,9,8,24,-1023
472,5.310969,2,6,9,13,23,-1021
473,5.322538,2,6,9,14,24,-1018
474,5.334059,2,6,9,11,24,-1021
475,5.345619,2,6,9,11,26,-1026
476,5.357246,2,6,9,8,27,-1020
477,5.368906,2,7,9,14,25,-1022
478,5.380553,2,6,8,9,25,-1024
479,5.392215,2,6,9,16,26,-1022
480,5.403862,3,6,9,11,24,-1020
481,5.415526,2,6,9,8,27,-1021
482,5.427228,2,7,10,8,23,-1019
483,5.438893,2,6,9,13,29,-1019
484,5.450632,2,6,9,13,23,-1024
485,5.462305,2,6,9,13,29,-1018
486,5.473864,2,6,8,13,28,-1022
487,5.485448,2,6,9,17,25,-1018
488,5.496989,2,6,9,10,26,-1025
489,5.508528,2,6,9,12,23,-1024
490,5.520082,2,5,9,15,27,-1021
491,5.531623,2,6,9,13,25,-1025
492,5.543176,3,6,9,13,27,-1020
493,5.55473,2,6,9,13,27,-1026
494,5.566428,2,6,10,14,25,-1016
495,5.578076,3,6,9,10,27,-1023
496,5.589738,2,6,9,15,25,-1020
497,5.601392,2,6,8,12,26,-1022
498,5.613039,2,7,9,9,25,-1027
499,5.624686,3,6,8,15,25,-1019
500,5.636335,3,6,9,14,23,-1023
501,5.647988,3,6,9,11,24,-1019
502,5.659653,2,6,9,15,25,-1025
503,5.671327,3,6,9,17,30,-1026
504,5.682992,2,6,9,10,25,-1023
505,5.694649,2,6,10,16,23,-1020
506,5.706314,3,6,8,15,26,-1018
507,5.717963,2,5,9,13,29,-1023
508,5.72963,3,5,9,14,26,-1029
509,5.741277,2,7,8,14,23,-1019
510,5.752938,3,6,9,16,24,-1017
511,5.76459,2,6,9,12,23,-1023
512,5.776142,3,6,9,11,27,-1019
513,5.787702,2,6,9,11,25,-1024
514,5.799259,3,7,9,13,25,-1026
515,5.810807,2,6,9,14,24,-1018
516,5.822389,2,6,10,12,27,-1016
517,5.833931,2,6,9,14,24,-1024
518,5.845468,3,6,9,14,27,-1016
519,5.857029,2,6,9,12,24,-1020
520,5.868596,2,7,9,16,24,-1023
521,5.880254,2,6,9,13,28,-1023
522,5.891907,3,6,9,7,23,-1022
523,5.90358,2,6,9,14,28,-1025
524,5.915252,2,5,8,9,30,-1019
525,5.926909,2,5,9,15,27,-1020
526,5.938648,2,6,8,11,28,-1024
527,5.950325,3,5,9,13,24,-1020
528,5.961991,2,5,9,12,29,-1019
529,5.973697,3,6,8,12,27,-1027
530,5.985459,3,5,8,13,22,-1022
531,5.99703,2,6,9,10,25,-1023
532,6.008596,2,6,10,14,26,-1021
533,6.020182,2,6,9,13,27,-1024
534,6.031743,2,7,9,13,24,-1030
535,6.043275,3,6,10,12,26,-1023
536,6.054839,2,6,8,13,28,-1025
537,6.066428,1,6,9,15,26,-1019
538,6.078006,2,6,9,12,27,-1020
539,6.089636,2,6,10,16,26,-1025
540,6.101289,2,6,9,10,28,-1016
541,6.112962,2,6,9,17,24,-1021
542,6.124622,3,6,8,12,27,-1019
543,6.136275,3,6,9,14,24,-1024
544,6.147933,3,7,9,11,27,-1018
545,6.15962,2,6,9,13,21,-1025
546,6.171282,3,6,8,11,23,-1024
547,6.183044,2,6,9,12,24,-1019
548,6.194704,2,6,9,14,26,-1018
549,6.206312,2,6,8,14,27,-1015
550,6.217863,2,6,9,11,25,-1018
551,6.229446,2,6,9,11,26,-1018
552,6.240993,2,7,9,14,23,-1024
553,6.252568,2,6,9,17,27,-1024
554,6.264126,3,6,9,12,28,-1023
555,6.27569,3,7,9,17,25,-1024
556,6.287266,2,6,10,14,24,-1020
557,6.298896,2,6,9,10,23,-1013
558,6.310569,2,6,10,12,26,-1022
559,6.322254,3,5,9,8,23,-1024
560,6.333912,2,5,9,14,23,-1022
561,6.34557,2,6,9,16,23,-1018
562,6.35726,2,6,9,15,22,-1026
563,6.368905,3,6,9,15,19,-1021
564,6.380561,2,6,10,12,23,-1024
565,6.392255,2,6,10,11,27,-1023
566,6.403907,1,6,9,14,24,-1023
567,6.415598,3,6,9,10,25,-1022
568,6.427299,2,6,8,14,27,-1018
569,6.438981,2,7,9,11,28,-1022
570,6.450647,2,7,9,10,23,-1028
571,6.462323,2,6,9,11,28,-1024
572,6.47397,2,6,8,8,25,-1022
573,6.485641,2,6,9,10,28,-1021
574,6.497372,2,6,9,10,26,-1023
575,6.509038,3,6,9,13,28,-1027
576,6.52059,3,7,9,12,25,-1025
577,6.532132,2,6,9,16,24,-1024
578,6.543671,2,6,9,12,25,-1022
579,6.555266,2,6,9,10,23,-1021
580,6.566831,2,6,8,8,24,-1019
581,6.578379,2,6,8,17,25,-1029
582,6.589939,2,6,8,13,20,-1022
583,6.601486,3,7,9,10,26,-1021
584,6.613146,2,7,8,16,23,-1026
585,6.62479,2,6,8,12,25,-1022
586,6.636439,2,5,9,13,26,-1026
587,6.648114,2,6,9,10,23,-1018
588,6.659754,2,6,9,16,29,-1015
589,6.671409,2,6,9,15,24,-1020
590,6.683106,3,6,9,14,29,-1028
591,6.694761,2,5,9,10,26,-1022
592,6.706433,3,6,9,11,27,-1021
593,6.717983,3,7,9,15,27,-1017
594,6.729535,2,6,8,14,27,-1021
595,6.741087,2,6,8,11,26,-1021
596,6.752631,2,6,9,10,24,-1024
597,6.764202,3,6,9,13,28,-1026
598,6.775761,2,7,10,10,21,-1025
599,6.787324,2,7,9,14,28,-1024
600,6.798897,2,6,9,12,26,-1021
601,6.810518,2,6,9,15,26,-1024
602,6.822217,2,6,10,14,26,-1024
603,6.833877,2,6,9,11,29,-1027
604,6.845533,3,5,9,15,26,-1023
605,6.857198,2,6,8,11,26,-1026
606,6.868863,2,6,8,13,27,-1025
607,6.880513,2,6,9,17,26,-1021
608,6.892164,3,6,9,14,23,-1027
609,6.903817,3,6,9,13,26,-1015
610,6.915491,2,6,9,11,26,-1022
611,6.927193,2,6,8,14,23,-1029
612,6.938865,3,6,9,15,22,-1023
613,6.950524,3,6,8,15,30,-1022
614,6.962199,2,6,9,8,27,-1024
615,6.973851,2,7,9,12,29,-1021
616,6.985522,1,7,10,14,25,-1013
617,6.997162,2,7,9,13,26,-1020
618,7.008884,2,6,10,15,25,-1016
619,7.020547,3,6,9,16,27,-1027
620,7.032086,3,6,8,13,26,-1012
621,7.04363,2,6,9,13,28,-1019
622,7.055187,3,6,9,13,23,-1025
623,7.066761,2,6,9,13,23,-1025
624,7.078322,3,6,8,12,31,-1020
625,7.089879,3,6,9,13,28,-1021
626,7.101444,3,6,9,12,23,-1024
627,7.113005,3,6,9,9,23,-1021
628,7.124624,3,6,9,14,27,-1023
629,7.136282,2,6,9,12,23,-1018
630,7.147929,3,6,9,13,25,-1016
631,7.159631,2,6,9,12,26,-1022
632,7.171289,2,6,9,13,24,-1015
633,7.182961,3,6,8,15,28,-1021
634,7.194609,2,7,8,9,25,-1019
635,7.206263,2,6,8,12,26,-1026
636,7.217924,2,6,9,11,25,-1023
637,7.2296,2,5,9,11,28,-1023
638,7.2412,2,6,10,15,28,-1024
639,7.252766,3,5,9,12,24,-1024
640,7.264329,3,7,8,7,27,-1024
641,7.275918,2,7,8,13,26,-1019
642,7.2875,2,6,9,13,24,-1017
643,7.299055,3,5,9,14,27,-1018
644,7.310606,3,6,8,12,29,-1027
645,7.322196,2,6,9,14,23,-1018
646,7.333873,3,7,8,12,24,-1028
647,7.345536,2,6,9,16,22,-1014
648,7.357179,3,5,8,12,22,-1023
649,7.368858,2,6,9,7,24,-1020
650,7.380516,2,5,9,12,24,-1022
651,7.392154,3,6,9,12,29,-1020
652,7.4038,3,6,9,14,25,-1023
653,7.415511,2,6,9,13,26,-1023
654,7.427232,3,6,9,15,24,-1021
655,7.438891,2,6,10,13,26,-1021
656,7.450576,2,6,9,8,26,-1026
657,7.462231,3,6,9,12,26,-1021
658,7.473879,2,6,9,11,24,-1024
659,7.485533,2,6,8,17,26,-1023
660,7.497175,2,6,9,13,23,-1023
661,7.508847,2,5,9,12,24,-1019
662,7.520501,2,5,9,13,27,-1021
663,7.532184,2,5,9,13,25,-1025
664,7.543853,2,6,9,10,23,-1020
665,7.555519,3,5,9,12,26,-1023
666,7.567191,2,6,10,11,24,-1019
667,7.578859,2,6,9,16,25,-1018
668,7.590515,2,6,9,10,24,-1025
669,7.602219,2,7,8,13,27,-1019
670,7.613864,2,6,9,13,25,-1015
671,7.625517,2,5,9,12,26,-1022
672,7.637249,3,7,9,13,24,-1021
673,7.648876,2,6,10,7,25,-1023
674,7.660455,3,6,9,10,26,-1030
675,7.672037,2,5,8,12,29,-1019
676,7.683575,1,7,9,11,26,-1023
677,7.695142,2,6,9,13,29,-1022
678,7.706697,2,6,9,9,27,-1021
679,7.718241,2,6,9,12,27,-1021
680,7.729787,3,6,9,12,25,-1021
681,7.741349,2,6,9,13,24,-1027
682,7.753047,3,6,10,13,25,-1017
683,7.764743,3,6,9,15,24,-1020
684,7.776384,2,6,9,8,26,-1020
685,7.788039,3,6,10,12,28,-1016
686,7.799727,3,6,10,12,28,-1020
687,7.811372,3,7,9,12,28,-1017
688,7.823031,2,7,9,14,25,-1024
689,7.834744,3,7,9,12,28,-1021
690,7.84641,2,6,9,11,24,-1024
691,7.858079,3,6,8,13,22,-1022
692,7.869675,2,6,9,10,24,-1017
693,7.881218,2,5,9,10,21,-1017
694,7.892762,2,7,9,10,21,-1021
695,7.904321,3,7,9,13,27,-1018
696,7.915893,3,6,9,12,28,-1014
697,7.92744,2,6,9,15,25,-1026
698,7.939038,2,6,9,10,25,-1022
699,7.950605,3,6,9,17,27,-1028
700,7.962243,3,7,9,10,24,-1025
701,7.973896,3,6,9,13,24,-1021
702,7.985538,3,5,9,11,27,-1020
703,7.997181,3,6,9,11,29,-1024
704,8.008851,3,5,9,11,26,-1025
705,8.020494,2,6,9,12,23,-1020
706,8.032138,3,5,9,19,28,-1027
707,8.043803,2,6,9,15,28,-1020
708,8.055507,2,6,10,16,28,-1021
709,8.06716,2,5,8,9,26,-1021
710,8.078726,3,6,8,10,26,-1021
711,8.090314,2,6,8,14,28,-1020
712,8.101874,2,6,9,9,26,-1018
713,8.113437,3,7,10,15,30,-1028
714,8.124989,3,7,9,12,23,-1016
715,8.136564,3,6,9,11,25,-1018
716,8.148108,3,7,8,11,26,-1018
717,8.159665,2,6,9,17,25,-1024
718,8.171332,3,6,9,12,24,-1020
719,8.183001,2,6,9,13,24,-1019
720,8.194661,2,6,9,14,25,-1020
721,8.206347,2,6,9,10,27,-1020
722,8.218005,2,6,10,10,27,-1018
723,8.22966,3,6,9,14,25,-1027
724,8.241336,2,5,9,12,25,-1024
725,8.252994,3,7,9,12,25,-1026
726,8.264654,2,5,10,11,23,-1017
727,8.276248,1,6,9,11,29,-1026
728,8.287794,3,6,8,12,28,-1028
729,8.299337,3,6,8,9,27,-1018
730,8.310904,2,7,10,13,27,-1027
731,8.322464,2,6,9,14,28,-1025
732,8.334014,2,6,9,14,23,-1023
733,8.345563,3,6,9,13,26,-1024
734,8.35713,3,6,9,11,25,-1022
735,8.368704,2,6,9,13,27,-1026
736,8.380355,2,6,9,13,29,-1021
737,8.392016,2,7,10,13,22,-1027
738,8.403686,3,6,10,16,24,-1025
739,8.415392,3,6,10,15,26,-1025
740,8.427083,3,6,9,11,26,-1026
741,8.438741,3,6,9,16,27,-1017
742,8.450404,3,7,9,11,26,-1022
743,8.46207,2,6,9,13,27,-1023
744,8.473744,3,6,8,17,22,-1020
745,8.485407,2,6,8,13,26,-1027
746,8.496967,2,6,8,10,24,-1020
747,8.508547,3,6,9,12,24,-1021
748,8.520101,3,6,8,12,28,-1024
749,8.531666,2,6,9,18,27,-1027
750,8.543214,3,6,9,11,27,-1020
751,8.554801,1,5,9,16,27,-1024
752,8.566351,2,6,9,13,26,-1023
753,8.577932,3,6,9,12,23,-1018
754,8.589541,3,6,8,13,30,-1016
755,8.601211,2,6,9,16,26,-1017
756,8.612863,2,7,9,13,26,-1026
757,8.624508,3,6,9,8,25,-1030
758,8.636166,3,6,9,9,24,-1027
759,8.647805,2,6,9,15,25,-1026
760,8.659485,2,7,9,11,20,-1018
761,8.671145,2,6,9,10,27,-1024
762,8.682853,2,5,10,14,25,-1026
763,8.694508,3,5,9,10,25,-1024
764,8.706193,2,6,9,13,24,-1021
765,8.717846,3,6,9,11,23,-1024
766,8.729499,2,6,9,11,26,-1017
767,8.741148,2,6,9,12,24,-1022
768,8.75279,2,7,9,15,25,-1024
769,8.764443,2,7,8,11,28,-1020
770,8.77611,2,7,8,15,25,-1022
771,8.787806,2,6,9,11,27,-1022
772,8.79948,3,6,9,14,23,-1025
773,8.811104,2,5,9,10,24,-1019
774,8.822766,3,5,8,8,27,-1023
775,8.834464,2,5,9,14,28,-1027
776,8.846124,2,6,9,11,24,-1010
777,8.857767,2,7,8,13,26,-1021
778,8.869412,2,6,9,9,27,-1015
779,8.881078,2,6,9,13,23,-1021
780,8.892746,3,6,9,19,25,-1023
781,8.904438,3,6,9,10,26,-1022
782,8.916006,2,6,9,11,28,-1018
783,8.927556,3,7,9,14,25,-1019
784,8.939102,2,6,9,10,25,-1016
785,8.950664,2,6,9,12,28,-1016
786,8.962224,3,6,9,12,25,-1024
787,8.973807,3,6,10,10,25,-1020
788,8.985426,3,6,9,14,27,-1022
789,8.99699,2,5,9,12,24,-1023
790,9.008637,2,6,10,14,24,-1026
791,9.020319,3,6,9,13,22,-1024
792,9.031986,3,6,9,10,26,-1020
793,9.043641,2,6,9,12,28,-1022
794,9.055324,2,6,8,12,25,-1018
795,9.067003,2,6,9,14,28,-1025
796,9.078651,3,6,9,13,25,-1017
797,9.090341,2,6,9,14,26,-1022
798,9.102006,2,6,10,9,24,-1018
799,9.113676,3,5,9,12,25,-1025
800,9.125223,2,6,9,10,24,-1022
801,9.136784,2,6,8,17,23,-1017
802,9.148364,2,7,9,15,24,-1023
803,9.159915,3,6,8,13,24,-1018
804,9.171586,3,6,9,9,25,-1019
805,9.18333,3,7,9,12,24,-1032
806,9.194927,3,6,10,13,27,-1019
807,9.206512,2,6,10,11,29,-1018
808,9.21823,2,5,9,15,26,-1020
809,9.229901,2,6,9,11,31,-1025
810,9.241548,3,6,9,12,25,-1027
811,9.253198,3,7,9,12,27,-1018
812,9.264853,2,6,10,8,25,-1017
813,9.276497,3,6,9,11,26,-1022
814,9.288142,3,6,9,13,29,-1022
815,9.29982,1,6,8,12,29,-1027
816,9.311502,2,7,8,13,24,-1026
817,9.323171,2,6,9,12,26,-1022
818,9.33479,3,6,9,13,29,-1022
819,9.346342,2,5,9,14,25,-1024
820,9.357897,2,6,9,12,25,-1021
821,9.369466,2,5,10,13,28,-1019
822,9.381033,3,6,8,9,25,-1014
823,9.392597,2,5,9,15,26,-1019
824,9.404198,2,6,9,11,25,-1027
825,9.415791,2,6,9,16,26,-1023
826,9.427412,2,5,9,12,23,-1026
827,9.439106,2,6,9,13,24,-1021
828,9.450769,2,6,8,16,25,-1022
829,9.462478,2,6,10,12,25,-1019
830,9.474126,2,6,9,17,23,-1023
831,9.485777,2,6,8,7,30,-1020
832,9.497456,2,6,9,14,25,-1021
833,9.509102,2,6,9,10,27,-1025
834,9.520787,2,6,10,13,23,-1018
835,9.532446,3,6,9,13,25,-1019
836,9.543993,2,7,9,13,25,-1020
837,9.555543,2,7,9,13,23,-1022
838,9.567095,2,6,9,11,29,-1026
839,9.578675,3,6,9,11,25,-1018
840,9.590217,2,7,9,11,27,-1018
841,9.601764,2,5,8,12,24,-1023
842,9.613309,3,6,8,9,25,-1015
843,9.624863,2,6,8,12,26,-1025
844,9.636475,2,6,9,12,28,-1019
845,9.648119,3,7,9,17,26,-1026
846,9.659766,2,6,10,14,31,-1019
847,9.671436,2,6,9,16,25,-1024
848,9.683107,2,6,10,12,24,-1025
849,9.69476,2,6,9,12,29,-1028
850,9.706455,2,7,9,13,28,-1019
851,9.718077,2,7,10,12,23,-1017
852,9.72974,3,6,9,10,26,-1020
853,9.741391,3,6,9,11,23,-1022
854,9.752955,2,7,9,11,25,-1026
855,9.764545,2,6,9,13,25,-1020
856,9.776094,3,7,9,11,29,-1020
857,9.787642,2,5,9,10,26,-1023
858,9.799198,2,5,9,13,21,-1024
859,9.81079,2,6,9,14,28,-1029
860,9.822347,2,6,9,13,25,-1020
861,9.833921,2,6,9,13,27,-1018
862,9.845611,2,5,9,11,26,-1019
863,9.857271,2,6,8,12,28,-1022
864,9.868924,2,6,9,13,28,-1022
865,9.880599,3,7,9,13,25,-1021
866,9.892299,3,6,9,13,27,-1021
867,9.903992,3,6,8,13,25,-1023
868,9.915665,2,6,8,15,24,-1022
869,9.927355,2,6,9,12,24,-1019
870,9.939031,2,6,9,10,25,-1018
871,9.950714,2,7,9,17,26,-1025
872,9.962298,1,6,9,14,26,-1023
873,9.973845,2,6,9,11,22,-1026
874,9.985392,2,6,8,11,29,-1018
875,9.99693,2,7,9,15,23,-1018
876,10.008496,2,6,10,12,26,-1023
877,10.020049,2,7,9,13,22,-1024
878,10.031599,2,6,9,12,24,-1022
879,10.043174,2,6,8,10,24,-1025
880,10.054863,3,6,9,12,25,-1030
881,10.06653,3,6,9,7,23,-1021
882,10.078224,2,6,9,10,30,-1025
883,10.089879,2,6,9,15,22,-1024
884,10.101536,2,6,9,14,26,-1015
885,10.113186,2,6,9,13,26,-1022
886,10.124851,2,6,9,12,23,-1023
887,10.136502,3,6,9,14,24,-1025
888,10.148155,2,5,9,14,28,-1014
889,10.159804,3,6,9,15,23,-1023
890,10.171503,2,6,10,12,29,-1025
891,10.183152,3,7,8,15,26,-1022
892,10.19485,2,6,9,12,22,-1021
893,10.206511,2,6,9,17,24,-1023
894,10.218181,2,6,9,14,25,-1018
895,10.229832,3,6,9,13,28,-1023
896,10.241493,2,6,9,19,28,-1023
897,10.253164,3,6,9,14,28,-1024
898,10.264866,2,6,9,11,23,-1018
899,10.276523,3,6,9,13,28,-1025
900,10.288166,3,6,8,13,27,-1020
901,10.29981,3,6,9,14,26,-1012
902,10.311502,3,6,9,12,25,-1018
903,10.323147,3,7,9,10,26,-1017
904,10.334849,2,7,9,12,26,-1023
905,10.346508,3,6,8,13,28,-1029
906,10.358218,2,6,9,11,26,-1020
907,10.369862,2,6,9,11,30,-1020
908,10.381437,3,6,10,12,26,-1028
909,10.392999,2,7,9,13,29,-1019
910,10.404549,2,6,9,11,27,-1015
911,10.416093,3,6,8,13,20,-1018
912,10.427638,3,6,9,12,26,-1016
913,10.439191,2,6,8,12,23,-1020
914,10.450783,2,7,9,13,24,-1020
915,10.462316,2,6,8,11,25,-1020
916,10.473984,2,6,9,14,26,-1018
917,10.485642,3,6,9,15,26,-1014
918,10.497314,3,6,9,17,25,-1023
919,10.508975,2,5,9,8,26,-1020
920,10.520635,3,6,9,14,24,-1024
921,10.532319,3,6,8,11,23,-1027
922,10.543986,2,6,9,13,29,-1022
923,10.555641,3,6,10,10,26,-1016
924,10.56731,2,6,9,14,29,-1015
925,10.578921,2,6,9,13,25,-1023
926,10.59048,2,7,9,14,28,-1021
927,10.602059,3,6,9,10,26,-1023
928,10.613651,2,6,8,8,27,-1020
929,10.625206,2,6,9,14,26,-1020
930,10.636806,2,6,8,11,21,-1023
931,10.648353,2,6,9,11,23,-1021
932,10.659908,2,6,9,11,21,-1022
933,10.671604,2,6,8,9,25,-1018
934,10.6833,2,6,10,15,25,-1021
935,10.694982,2,6,10,9,26,-1028
936,10.706637,2,6,10,11,21,-1027
937,10.718331,2,6,10,13,24,-1023
938,10.729977,3,6,9,14,24,-1030
939,10.741629,2,6,9,12,26,-1027
940,10.753296,3,5,9,15,27,-1021
941,10.764968,3,5,8,15,22,-1013
942,10.776623,3,5,9,7,22,-1024
943,10.788182,3,6,8,9,25,-1025
944,10.799768,3,7,8,15,24,-1023
945,10.811321,2,6,9,14,23,-1018
946,10.822909,2,5,8,14,26,-1021
947,10.834457,2,6,9,11,28,-1014
948,10.845997,2,6,9,13,24,-1030
949,10.857541,2,7,9,12,24,-1023
950,10.869167,2,7,9,13,28,-1025
951,10.880843,2,6,9,17,24,-1019
952,10.892499,2,7,9,12,28,-1021
953,10.904149,3,6,10,12,25,-1021
954,10.915793,3,6,8,10,28,-1016
955,10.927501,2,7,9,13,24,-1024
956,10.939147,2,6,10,11,25,-1023
957,10.950849,2,6,9,15,26,-1022
958,10.96256,2,6,9,13,22,-1019
959,10.974259,2,6,9,11,26,-1023
960,10.985992,2,5,9,14,27,-1020
961,10.997651,2,7,9,12,27,-1025
962,11.009364,2,7,9,10,28,-1016
963,11.021034,2,6,9,13,27,-1021
964,11.032687,2,6,9,13,24,-1026
965,11.044344,2,5,9,15,32,-1024
966,11.055995,3,5,9,14,24,-1021
967,11.067636,2,7,8,12,21,-1022
968,11.079304,2,6,9,8,25,-1029
969,11.091016,2,7,9,11,23,-1019
970,11.102546,2,6,9,14,30,-1022
971,11.114104,2,5,9,16,30,-1017
972,11.125652,3,6,9,11,26,-1025
973,11.137343,2,7,9,13,24,-1021
974,11.148905,2,6,8,14,28,-1017
975,11.160447,3,6,9,14,25,-1022
976,11.171986,2,6,9,15,25,-1015
977,11.183548,3,5,9,14,24,-1021
978,11.195224,2,6,9,12,28,-1021
979,11.206889,2,6,9,14,27,-1018
980,11.218594,2,6,9,11,23,-1023
981,11.230256,2,7,10,7,28,-1017
982,11.241902,2,6,9,14,27,-1023
983,11.253553,2,6,9,11,26,-1019
984,11.265225,2,6,9,16,25,-1021
985,11.276874,2,6,9,12,23,-1021
986,11.288567,2,6,9,15,25,-1023
987,11.300242,2,6,9,13,26,-1022
988,11.311808,2,6,9,17,22,-1024
989,11.323399,1,6,10,9,25,-1020
990,11.334955,3,6,10,16,26,-1022
991,11.346544,2,6,9,17,30,-1023
992,11.358103,2,6,9,8,28,-1024
993,11.369649,3,6,9,15,29,-1025
994,11.381275,2,6,8,12,26,-1030
995,11.392838,2,6,9,13,28,-1017
996,11.404466,3,6,9,15,24,-1023
997,11.41613,2,7,9,10,24,-1021
998,11.427774,2,5,9,11,24,-1021
999,11.439424,2,6,9,13,26,-1017
1000,11.451098,2,6,9,13,24,-1021
1001,11.462746,2,6,9,12,24,-1026
1002,11.474398,3,7,9,12,25,-1025
1003,11.486077,2,7,9,13,27,-1014
1004,11.497732,2,6,10,11,28,-1025
1005,11.509426,2,6,8,12,29,-1020
1006,11.521031,3,6,8,13,22,-1019
1007,11.532578,3,6,9,15,32,-1023
1008,11.544137,2,5,9,11,25,-1024
1009,11.555687,2,6,9,14,25,-1024
1010,11.567271,2,6,9,9,25,-1020
1011,11.57879,2,6,9,13,24,-1018
1012,11.59037,2,6,9,11,25,-1024
1013,11.601931,2,6,8,14,24,-1023
1014,11.613579,2,6,9,16,25,-1020
1015,11.625239,2,6,8,11,26,-1023
1016,11.636915,2,6,9,11,24,-1024
1017,11.64857,2,6,9,12,24,-1020
1018,11.660228,2,6,9,13,26,-1027
1019,11.67189,3,6,9,14,24,-1019
1020,11.68356,2,5,9,13,24,-1027
1021,11.695229,2,6,10,12,23,-1019
1022,11.706864,3,7,8,15,29,-1021
1023,11.718524,2,7,9,13,28,-1023
1024,11.73006,3,6,9,15,26,-1027
1025,11.741602,2,6,9,14,25,-1014
1026,11.75318,2,6,9,15,26,-1017
1027,11.764745,2,6,9,13,26,-1019
1028,11.776297,3,6,9,10,25,-1020
1029,11.787873,3,5,9,9,24,-1022
1030,11.799445,2,7,9,15,26,-1017
1031,11.811089,2,6,9,10,27,-1021
1032,11.822747,2,6,9,14,25,-1018
1033,11.834469,2,6,9,12,21,-1019
1034,11.84612,3,7,8,11,27,-1023
1035,11.857769,2,6,10,7,27,-1024
1036,11.869478,2,6,9,11,28,-1017
1037,11.881133,3,6,9,16,25,-1021
1038,11.892851,3,7,9,12,25,-1022
1039,11.904498,3,6,8,12,27,-1025
1040,11.916159,3,6,9,11,30,-1018
1041,11.927825,2,6,9,13,26,-1017
1042,11.939488,2,7,10,12,25,-1020
1043,11.951137,2,5,9,11,23,-1018
1044,11.962835,2,6,9,14,27,-1019
1045,11.974495,3,6,9,15,28,-1025
1046,11.986147,3,6,9,13,24,-1023
1047,11.997816,3,6,9,13,23,-1016
1048,12.009462,2,6,8,10,27,-1017
1049,12.021142,2,7,9,11,26,-1019
1050,12.032816,2,7,8,11,26,-1019
1051,12.044466,2,6,8,11,29,-1014
1052,12.056114,2,6,8,13,24,-1022
1053,12.067783,1,6,10,13,26,-1020
1054,12.07946,2,6,9,14,24,-1021
1055,12.091106,2,6,8,8,26,-1022
1056,12.10278,2,6,10,12,25,-1022
1057,12.114486,2,6,9,12,26,-1019
1058,12.126215,2,7,9,10,29,-1020
1059,12.137865,3,6,9,9,26,-1026
1060,12.149419,2,7,9,15,23,-1020
1061,12.161006,2,6,9,10,27,-1018
1062,12.172557,1,6,9,13,28,-1016
1063,12.184144,2,6,9,9,27,-1021
1064,12.195686,2,6,9,11,22,-1018
1065,12.207266,2,6,9,14,29,-1026
1066,12.218789,2,6,9,7,27,-1024
1067,12.230317,3,6,8,11,27,-1016
1068,12.241945,3,6,9,12,27,-1018
1069,12.2536,3,6,9,15,27,-1013
1070,12.26525,3,5,9,6,23,-1025
1071,12.276924,3,6,9,14,23,-1022
1072,12.28858,3,6,9,15,21,-1022
1073,12.300229,3,5,10,13,26,-1024
1074,12.311882,2,6,8,11,25,-1016
1075,12.323522,3,6,8,13,25,-1020
1076,12.335188,2,7,9,13,20,-1021
1077,12.346841,2,6,9,13,28,-1025
1078,12.358441,3,6,9,13,26,-1020
1079,12.369995,2,6,9,12,25,-1015
1080,12.381544,2,6,9,14,27,-1021
1081,12.393088,2,6,9,17,26,-1021
1082,12.404645,2,6,9,14,27,-1025
1083,12.416183,2,5,9,10,26,-1020
1084,12.42772,2,5,8,12,25,-1016
1085,12.439283,2,6,9,14,25,-1020
1086,12.450903,2,6,9,11,21,-1021
1087,12.46258,2,6,9,18,26,-1022
1088,12.474237,2,6,9,10,23,-1025
1089,12.485939,2,6,9,12,28,-1028
1090,12.497597,2,6,9,15,22,-1022
1091,12.509249,3,6,9,15,28,-1020
1092,12.52092,2,6,9,12,27,-1023
1093,12.532575,2,6,9,12,25,-1024
1094,12.54423,2,6,9,17,25,-1020
1095,12.55589,2,6,8,12,24,-1020
1096,12.567446,2,6,9,10,28,-1022
1097,12.579024,3,6,9,12,28,-1025
1098,12.590546,2,6,9,15,23,-1023
1099,12.602097,2,6,8,14,27,-1018
1100,12.613647,3,6,8,16,26,-1029
1101,12.625216,3,6,9,8,25,-1020
1102,12.636776,2,6,9,11,26,-1022
1103,12.648337,2,6,9,12,26,-1022
1104,12.659959,2,6,9,14,28,-1022
1105,12.671608,3,6,9,11,23,-1021
1106,12.683285,2,6,9,11,24,-1025
1107,12.694965,2,6,8,11,26,-1012
1108,12.706623,2,6,8,14,27,-1024
1109,12.718321,3,6,8,10,28,-1019
1110,12.729967,3,6,8,11,25,-1026
1111,12.741618,2,6,8,13,27,-1029
1112,12.753281,2,6,9,13,28,-1023
1113,12.764839,3,6,9,10,28,-1023
1114,12.776395,2,6,9,10,24,-1020
1115,12.787954,2,7,9,13,24,-1022
1116,12.79952,2,7,9,15,25,-1018
1117,12.811077,2,6,9,11,25,-1025
1118,12.822652,2,6,8,14,23,-1024
1119,12.834198,2,6,8,15,23,-1015
1120,12.845743,2,6,9,14,25,-1017
1121,12.857335,3,6,9,13,27,-1016
1122,12.868954,2,7,9,16,25,-1023
1123,12.880605,2,6,9,12,25,-1017
1124,12.892279,2,5,9,14,25,-1022
1125,12.903974,3,6,8,13,27,-1015
1126,12.915798,2,7,9,12,24,-1023
1127,12.927507,2,7,9,10,24,-1022
1128,12.939182,1,6,9,14,26,-1024
1129,12.950849,2,6,9,14,26,-1022
1130,12.96253,2,6,9,15,27,-1026
1131,12.974212,2,5,8,11,25,-1018
1132,12.985921,3,6,10,12,25,-1020
1133,12.997586,2,6,10,12,24,-1021
1134,13.009241,2,7,9,12,22,-1021
1135,13.020926,3,6,9,9,23,-1019
1136,13.03257,2,6,8,14,22,-1020
1137,13.044216,3,6,9,13,25,-1018
1138,13.055864,3,6,9,12,25,-1022
1139,13.067623,2,5,9,12,22,-1019
1140,13.0793,2,6,9,14,23,-1024
1141,13.090911,1,6,9,18,25,-1029
1142,13.10249,2,6,9,13,27,-1023
1143,13.114056,2,7,9,12,22,-1023
1144,13.125602,2,6,9,15,22,-1023
1145,13.137152,2,6,9,12,27,-1027
1146,13.148702,3,6,8,17,19,-1014
1147,13.160271,3,6,9,17,25,-1019
1148,13.171832,2,6,9,13,28,-1022
1149,13.183491,2,6,9,11,30,-1015
1150,13.195182,2,6,9,11,24,-1018
1151,13.206844,2,5,9,9,24,-1028
1152,13.218502,2,6,10,11,24,-1022
1153,13.230237,3,6,9,15,26,-1025
1154,13.241885,2,6,8,14,26,-1026
1155,13.25356,2,6,9,13,25,-1026
1156,13.265221,2,6,9,10,24,-1017
1157,13.276884,2,7,9,15,23,-1021
1158,13.288553,3,6,9,12,24,-1024
1159,13.300156,2,6,10,17,22,-1018
1160,13.311727,2,6,9,11,27,-1021
1161,13.323271,3,5,9,12,27,-1022
1162,13.334826,2,6,9,15,27,-1026
1163,13.346395,2,6,9,14,27,-1019
1164,13.357966,3,6,9,15,28,-1020
1165,13.369519,2,6,9,12,26,-1022
1166,13.381125,2,5,10,12,28,-1016
1167,13.392761,2,6,9,15,25,-1027
1168,13.404443,2,6,10,11,27,-1025
1169,13.416066,2,6,9,12,28,-1018
1170,13.427729,2,6,9,13,23,-1024
1171,13.439364,2,5,9,10,26,-1020
1172,13.451036,2,6,9,15,28,-1020
1173,13.462709,2,6,9,12,25,-1020
1174,13.474329,2,6,9,9,27,-1020
1175,13.485977,2,6,9,10,24,-1025
1176,13.497616,3,7,9,10,25,-1015
1177,13.50927,3,5,9,13,24,-1028
1178,13.520947,3,5,10,13,28,-1023
1179,13.532589,2,5,9,11,20,-1019
1180,13.544237,3,7,10,14,25,-1021
1181,13.555902,2,6,9,14,26,-1017
1182,13.56756,2,6,9,13,23,-1025
1183,13.57922,2,6,8,16,26,-1023
1184,13.590857,2,6,8,15,24,-1021
1185,13.602561,2,6,9,12,28,-1017
1186,13.614217,2,6,9,15,28,-1020
1187,13.625879,2,7,9,13,24,-1027
1188,13.637542,3,6,9,11,25,-1019
1189,13.649196,3,6,9,14,27,-1027
1190,13.660845,3,6,9,13,30,-1019
1191,13.672503,2,6,9,13,23,-1019
1192,13.684174,3,7,8,9,25,-1024
1193,13.695886,2,6,9,15,25,-1024
1194,13.707565,2,6,9,14,28,-1026
1195,13.719152,2,6,8,9,26,-1024
1196,13.730725,2,6,9,12,21,-1023
1197,13.742291,2,6,9,10,21,-1026
1198,13.753836,2,6,9,12,25,-1025
1199,13.765387,2,6,9,9,24,-1025
1200,13.776939,2,5,9,12,30,-1022
1201,13.788508,2,6,9,8,23,-1022
1202,13.800088,3,6,9,10,23,-1032
1203,13.811718,3,7,9,13,24,-1018
1204,13.823361,2,6,9,10,28,-1025
1205,13.835035,2,6,8,13,26,-1014
1206,13.846713,2,7,9,11,24,-1021
1207,13.858396,2,7,9,11,27,-1028
1208,13.870063,2,6,9,14,29,-1020
1209,13.881714,2,5,9,13,25,-1019
1210,13.893392,2,6,9,13,26,-1022
1211,13.905072,2,6,9,14,26,-1018
1212,13.916726,3,6,9,9,27,-1017
1213,13.928292,3,6,9,12,29,-1023
1214,13.939955,2,6,8,7,22,-1016
1215,13.951511,3,4,9,12,23,-1032
1216,13.963115,2,5,9,12,26,-1017
1217,13.974798,3,6,8,13,26,-1017
1218,13.98636,3,6,9,11,22,-1019
1219,13.997922,3,6,9,14,24,-1021
1220,14.009489,2,6,9,14,27,-1017
1221,14.021136,3,6,9,12,28,-1016
1222,14.032813,3,7,9,16,32,-1024
1223,14.04447,2,6,8,11,26,-1017
1224,14.05612,2,5,8,14,28,-1021
1225,14.067765,2,5,9,11,29,-1017
1226,14.079476,2,6,9,12,26,-1019
1227,14.091102,2,6,9,13,25,-1022
1228,14.102849,2,5,9,13,20,-1016
1229,14.114548,2,6,9,9,26,-1015
1230,14.126232,2,6,8,11,28,-1028
1231,14.137789,2,6,8,13,21,-1022
1232,14.149344,2,6,9,16,27,-1024
1233,14.160898,2,6,9,13,26,-1032
1234,14.172476,2,6,10,7,28,-1027
1235,14.18403,3,7,9,14,25,-1022
1236,14.195579,2,6,9,13,25,-1018
1237,14.207147,2,6,9,10,23,-1028
1238,14.218742,2,6,9,11,28,-1027
1239,14.230413,2,5,9,11,24,-1022
1240,14.242071,2,6,9,15,24,-1020
1241,14.253719,3,6,8,15,28,-1024
1242,14.265369,2,5,9,8,26,-1019
1243,14.277038,2,5,9,13,26,-1013
1244,14.288685,3,5,9,10,25,-1018
1245,14.300337,2,6,9,13,26,-1022
1246,14.312004,1,6,9,13,29,-1022
1247,14.323686,2,6,9,17,22,-1015
1248,14.335395,3,6,9,12,24,-1029
1249,14.347145,2,6,9,13,25,-1025
1250,14.358831,3,5,9,9,24,-1027
1251,14.370504,2,6,10,13,25,-1021
1252,14.382192,2,6,9,12,21,-1022
1253,14.393843,2,6,9,11,28,-1021
1254,14.405515,3,6,9,14,26,-1021
1255,14.417177,3,6,9,14,24,-1024
1256,14.428835,3,7,9,14,26,-1018
1257,14.440413,2,6,10,13,25,-1026
1258,14.452001,2,6,9,11,23,-1020
1259,14.463556,2,6,9,16,28,-1031
1260,14.475148,2,6,9,10,28,-1023
1261,14.486701,2,5,8,12,22,-1019
1262,14.498284,2,6,9,13,23,-1024
1263,14.509831,2,6,10,11,25,-1026
1264,14.521379,2,6,9,11,26,-1028
1265,14.532955,3,5,9,15,25,-1027
1266,14.544583,2,7,9,13,27,-1018
1267,14.556256,3,5,10,10,25,-1023
1268,14.567923,2,6,9,13,27,-1020
1269,14.579614,2,6,9,13,27,-1026
1270,14.591295,2,6,9,11,26,-1028
1271,14.602964,3,5,9,10,28,-1025
1272,14.614588,3,6,9,16,27,-1023
1273,14.626258,3,6,9,15,24,-1020
1274,14.637936,2,6,8,10,23,-1025
1275,14.649602,2,6,8,10,21,-1019
1276,14.661163,2,6,9,12,26,-1029
1277,14.672742,2,6,9,13,25,-1022
1278,14.684293,2,6,10,13,27,-1018
1279,14.695866,2,7,9,16,26,-1018
1280,14.707425,3,5,9,12,24,-1021
1281,14.719044,3,5,9,13,25,-1022
1282,14.730603,2,6,9,11,26,-1022
1283,14.742185,3,6,9,10,25,-1020
1284,14.753847,2,6,8,12,27,-1022
1285,14.765526,3,6,9,16,25,-1020
1286,14.777172,2,6,9,12,28,-1020
1287,14.788831,3,6,8,16,28,-1023
1288,14.800492,2,6,8,12,24,-1021
1289,14.812158,2,6,9,14,25,-1022
1290,14.823818,2,6,8,12,22,-1026
1291,14.83554,2,6,9,14,28,-1024
1292,14.847232,2,6,9,12,28,-1028
1293,14.858902,2,5,9,10,23,-1022
1294,14.870579,2,6,8,12,25,-1022
1295,14.88223,2,6,9,11,27,-1024
1296,14.89388,3,5,9,9,28,-1015
1297,14.905547,2,6,9,15,27,-1018
1298,14.917195,2,5,9,15,28,-1021
1299,14.928849,3,5,9,13,27,-1018
1300,14.940522,3,6,10,13,21,-1026
1301,14.952179,2,6,10,11,26,-1017
1302,14.964138,2,6,9,14,26,-1023
1303,14.975811,1,6,9,14,21,-1016
1304,14.987484,2,6,8,13,25,-1023
1305,14.999161,3,7,9,8,28,-1025
1306,15.010833,3,6,8,12,21,-1025
1307,15.022505,2,6,9,14,24,-1025
1308,15.034186,2,6,9,15,26,-1026
1309,15.045836,2,6,9,14,25,-1019
1310,15.057509,2,6,9,11,28,-1018
1311,15.06917,3,6,10,20,26,-1021
1312,15.080782,2,5,9,9,25,-1022
1313,15.092384,2,6,9,14,27,-1024
1314,15.103966,2,6,9,14,27,-1020
1315,15.115506,2,6,9,15,21,-1025
1316,15.127021,2,5,9,16,27,-1025
1317,15.138537,2,6,8,9,24,-1024
1318,15.150057,3,6,9,12,27,-1022
1319,15.161617,2,6,9,11,24,-1023
1320,15.173284,2,5,9,14,22,-1021
1321,15.184935,2,6,10,15,28,-1019
1322,15.196586,2,6,9,14,26,-1017
1323,15.208233,2,6,9,10,27,-1025
1324,15.219899,2,6,9,10,27,-1021
1325,15.231587,2,6,9,10,22,-1027
1326,15.24327,2,6,10,16,29,-1024
1327,15.254949,3,6,9,12,23,-1024
1328,15.266597,2,6,9,13,26,-1022
1329,15.278264,2,6,9,14,27,-1022
1330,15.289817,3,7,9,11,27,-1018
1331,15.301375,2,6,10,11,26,-1021
1332,15.312927,1,6,9,14,29,-1022
1333,15.324496,2,6,9,14,27,-1016
1334,15.336131,1,7,9,12,26,-1020
1335,15.347697,2,6,9,12,26,-1021
1336,15.359259,2,5,9,13,25,-1025
1337,15.370791,3,6,10,14,21,-1022
1338,15.382453,1,7,9,13,22,-1012
1339,15.39408,3,6,9,11,27,-1027
1340,15.405731,3,6,9,12,24,-1025
1341,15.417402,2,6,9,10,28,-1020
1342,15.429046,2,6,8,12,24,-1022
1343,15.440698,3,6,9,12,21,-1027
1344,15.452387,3,6,9,18,27,-1027
1345,15.464057,3,5,9,13,24,-1024
1346,15.47573,2,6,9,9,28,-1019
1347,15.487331,2,7,9,13,23,-1016
1348,15.498906,2,6,9,12,25,-1021
1349,15.510495,2,6,9,11,21,-1024
1350,15.522049,2,6,9,12,24,-1031
1351,15.533589,2,6,9,18,26,-1018
1352,15.545141,2,6,9,17,24,-1020
1353,15.556686,2,6,10,7,22,-1015
1354,15.568247,3,6,8,12,24,-1020
1355,15.57982,2,6,9,12,24,-1016
1356,15.591467,2,5,10,11,23,-1023
1357,15.603125,2,6,10,9,26,-1017
1358,15.614817,2,6,9,14,23,-1026
1359,15.626483,2,7,9,10,23,-1019
1360,15.638185,2,6,9,15,25,-1018
1361,15.64983,2,6,8,11,22,-1013
1362,15.661481,2,6,9,11,27,-1020
1363,15.673169,2,6,9,10,26,-1029
1364,15.684824,3,6,8,14,27,-1025
1365,15.696495,2,6,9,8,26,-1021
1366,15.708049,2,6,9,16,24,-1025
1367,15.719594,2,6,9,14,25,-1018
1368,15.731144,2,6,9,14,28,-1020
1369,15.742691,2,6,8,17,23,-1028
1370,15.754249,3,6,9,14,23,-1017
1371,15.765793,2,6,9,10,26,-1026
1372,15.777337,2,5,9,11,24,-1021
1373,15.788894,2,6,8,15,26,-1015
1374,15.800531,2,7,9,13,21,-1026
1375,15.81218,2,6,9,11,24,-1024
1376,15.823885,3,6,9,10,26,-1015
1377,15.835553,3,6,8,13,22,-1024
1378,15.847237,2,6,8,11,22,-1019
1379,15.858905,2,6,8,12,26,-1025
1380,15.870575,2,6,8,8,26,-1022
1381,15.882239,1,5,10,11,26,-1021
1382,15.893913,3,6,8,10,25,-1018
1383,15.905564,2,6,9,12,30,-1025
1384,15.917213,2,6,9,16,26,-1016
1385,15.928881,3,6,8,15,23,-1026
1386,15.940529,2,6,9,10,27,-1016
1387,15.952172,2,6,8,11,18,-1022
1388,15.96382,2,6,9,13,26,-1024
1389,15.975471,3,7,9,14,25,-1022
1390,15.987199,2,5,9,10,28,-1023
1391,15.998918,2,5,9,12,27,-1029
1392,16.010581,2,6,8,8,25,-1023
1393,16.022145,3,6,9,16,25,-1020
1394,16.033726,3,6,9,11,28,-1021
1395,16.045272,2,6,9,9,24,-1023
1396,16.056855,3,7,10,13,27,-1022
1397,16.068398,2,5,9,15,25,-1022
1398,16.079965,2,6,8,13,29,-1024
1399,16.091511,3,6,10,9,26,-1025
1400,16.103034,3,6,9,14,24,-1019
1401,16.114661,2,6,9,13,25,-1025
1402,16.12633,3,6,9,12,26,-1016
1403,16.137996,2,7,10,15,20,-1024
1404,16.149658,3,6,8,13,24,-1025
1405,16.161346,2,7,9,11,28,-1027
1406,16.173023,2,5,9,12,25,-1019
1407,16.184673,2,5,9,13,22,-1018
1408,16.196339,3,6,9,10,22,-1021
1409,16.208048,2,6,10,14,24,-1014
1410,16.219706,2,5,10,12,22,-1020
1411,16.231274,3,5,9,11,23,-1023
1412,16.242863,3,6,9,11,26,-1023
1413,16.254429,2,5,9,9,24,-1021
1414,16.265984,2,5,9,12,28,-1025
1415,16.277529,3,6,9,6,25,-1027
1416,16.28908,3,6,9,10,26,-1017
1417,16.300624,2,6,9,10,23,-1020
1418,16.312246,3,6,9,10,29,-1024
1419,16.323901,3,5,10,9,23,-1022
1420,16.335569,2,6,10,13,27,-1024
1421,16.347225,2,6,9,8,24,-1021
1422,16.358888,2,7,10,9,23,-1021
1423,16.370571,2,7,9,12,26,-1023
1424,16.382222,2,5,9,17,27,-1027
1425,16.393873,2,6,9,16,27,-1027
1426,16.405541,1,6,10,14,23,-1026
1427,16.417203,2,6,9,11,26,-1016
1428,16.428872,2,6,8,13,24,-1024
1429,16.440437,2,5,9,14,26,-1018
1430,16.452001,2,6,9,14,29,-1024
1431,16.463595,3,5,10,11,27,-1022
1432,16.475166,2,7,8,14,22,-1023
1433,16.486738,2,7,8,14,25,-1023
1434,16.498306,3,7,9,16,25,-1021
1435,16.509862,2,6,9,11,31,-1022
1436,16.521428,2,6,9,9,22,-1020
1437,16.533044,3,6,9,12,26,-1023
1438,16.5447,2,6,9,9,29,-1017
1439,16.556344,3,6,9,15,26,-1019
1440,16.568051,2,6,10,11,24,-1028
1441,16.579708,3,6,8,14,24,-1027
1442,16.59135,3,6,9,16,25,-1019
1443,16.603036,3,6,9,13,25,-1023
1444,16.614714,2,6,9,9,28,-1020
1445,16.626341,3,6,10,12,23,-1019
1446,16.638006,3,7,9,11,23,-1030
1447,16.649596,2,6,9,12,26,-1028
1448,16.661135,2,6,9,16,24,-1022
1449,16.672672,2,6,8,17,25,-1023
1450,16.684238,2,6,9,10,26,-1022
1451,16.695799,3,6,9,11,27,-1021
1452,16.707342,2,6,10,12,24,-1024
1453,16.71891,2,6,9,9,27,-1026
1454,16.730495,2,6,9,19,25,-1028
1455,16.742147,2,7,9,10,28,-1014
1456,16.753805,2,6,8,15,25,-1021
1457,16.765456,2,6,9,13,27,-1023
1458,16.777122,2,6,10,12,21,-1027
1459,16.788777,3,6,9,14,25,-1020
1460,16.80042,2,6,9,11,27,-1030
1461,16.812111,2,6,9,8,25,-1025
1462,16.823758,2,6,9,15,28,-1017
1463,16.835433,2,6,9,9,22,-1021
1464,16.847092,2,6,9,13,27,-1022
1465,16.85867,3,6,9,10,22,-1020
1466,16.870243,2,6,9,12,26,-1024
1467,16.881785,1,6,10,10,25,-1022
1468,16.893336,2,6,9,9,25,-1024
1469,16.904881,2,6,10,14,25,-1024
1470,16.916425,2,5,9,12,25,-1017
1471,16.927983,2,6,9,14,24,-1023
1472,16.939579,2,6,9,13,24,-1024
1473,16.951279,2,6,9,12,26,-1019
1474,16.962974,3,5,9,12,24,-1028
1475,16.974688,3,6,9,13,25,-1020
1476,16.986499,3,7,8,12,26,-1018
1477,16.998197,2,5,9,12,24,-1026
1478,17.009855,2,6,9,14,26,-1026
1479,17.02154,2,6,9,13,24,-1021
1480,17.033188,2,6,9,13,26,-1017
1481,17.044865,2,6,10,13,23,-1017
1482,17.05656,2,6,9,12,28,-1016
1483,17.068132,1,6,9,13,26,-1021
1484,17.079727,2,6,9,11,26,-1024
1485,17.091264,2,6,9,9,23,-1019
1486,17.102784,2,7,9,13,28,-1023
1487,17.114348,2,6,8,14,28,-1019
1488,17.125906,2,6,9,7,30,-1019
1489,17.137456,2,6,9,12,24,-1022
1490,17.149029,2,7,8,11,23,-1022
1491,17.160661,3,6,8,14,28,-1019
1492,17.172332,2,5,9,10,28,-1021
1493,17.184001,2,6,8,12,28,-1017
1494,17.195669,2,6,9,13,28,-1017
1495,17.207376,2,6,8,12,24,-1021
1496,17.219038,2,6,9,11,25,-1022
1497,17.230726,3,7,9,11,27,-1018
1498,17.242399,2,5,9,9,23,-1027
1499,17.254091,2,6,9,13,26,-1024
1500,17.265766,3,6,9,14,24,-1023
1501,17.277316,3,6,10,11,25,-1023
1502,17.288869,2,6,9,10,31,-1023
1503,17.300417,2,6,9,12,26,-1024
1504,17.312025,2,7,10,8,24,-1022
1505,17.323595,2,6,9,11,27,-1025
1506,17.335154,2,6,9,9,27,-1023
1507,17.346729,3,6,9,12,28,-1016
1508,17.358312,2,6,9,9,25,-1020
1509,17.369928,3,7,9,13,30,-1023
1510,17.381569,2,5,9,11,29,-1023
1511,17.393217,2,6,9,15,22,-1013
1512,17.404906,1,6,9,10,29,-1018
1513,17.416547,2,6,9,14,26,-1017
1514,17.4282,2,5,10,11,25,-1022
1515,17.439874,2,6,9,15,25,-1016
1516,17.451535,3,6,9,14,26,-1020
1517,17.463224,3,6,9,15,27,-1020
1518,17.474885,3,6,8,11,27,-1018
1519,17.486441,3,6,9,13,25,-1024
1520,17.497997,2,7,8,12,28,-1018
1521,17.509545,2,6,9,14,29,-1018
1522,17.521103,2,6,8,13,25,-1018
1523,17.532648,2,6,9,8,27,-1019
1524,17.544203,2,6,9,13,27,-1026
1525,17.555753,2,6,8,10,26,-1017
1526,17.567322,2,6,9,13,23,-1025
1527,17.578991,3,6,9,11,21,-1019
1528,17.590659,2,6,8,11,23,-1020
1529,17.602329,3,6,9,8,23,-1020
1530,17.613966,2,6,9,13,26,-1019
1531,17.625615,2,5,8,15,23,-1018
1532,17.637279,2,6,10,14,24,-1022
1533,17.648921,2,7,8,13,29,-1019
1534,17.660569,2,6,9,12,25,-1020
1535,17.672252,2,5,8,15,24,-1022
1536,17.683934,3,5,9,11,26,-1022
1537,17.695508,3,6,9,12,26,-1028
1538,17.707018,2,6,9,11,23,-1021
1539,17.71854,2,6,8,15,27,-1027
1540,17.730058,3,6,8,13,25,-1021
1541,17.741604,2,6,9,9,25,-1018
1542,17.753148,3,6,10,11,25,-1017
1543,17.764715,2,6,9,9,25,-1023
1544,17.776267,2,6,9,10,22,-1019
1545,17.787894,3,6,9,11,24,-1025
1546,17.799598,3,5,9,13,23,-1022
1547,17.811276,2,5,9,11,26,-1020
1548,17.822953,2,6,9,10,24,-1021
1549,17.834579,2,7,9,16,26,-1022
1550,17.846253,2,7,9,10,27,-1016
1551,17.857906,2,6,9,16,26,-1022
1552,17.869543,2,6,9,12,24,-1020
1553,17.881204,2,6,10,12,28,-1027
1554,17.892868,2,5,9,14,29,-1023
1555,17.904426,2,6,10,11,24,-1021
1556,17.915989,2,6,9,17,28,-1020
1557,17.927535,2,6,9,9,26,-1017
1558,17.939089,2,6,9,10,20,-1028
1559,17.950661,2,6,9,10,26,-1023
1560,17.962226,3,6,9,9,24,-1018
1561,17.973776,2,6,9,17,26,-1023
1562,17.985351,2,6,10,12,29,-1021
1563,17.996967,3,5,9,10,27,-1023
1564,18.00863,2,6,9,13,26,-1021
1565,18.020284,2,6,9,12,25,-1018
1566,18.03193,2,6,9,12,26,-1022
1567,18.043639,2,6,9,15,22,-1032
1568,18.055303,2,6,8,15,24,-1022
1569,18.066985,3,6,8,10,26,-1021
1570,18.078642,3,6,8,12,25,-1028
1571,18.090314,3,6,8,16,26,-1031
1572,18.101863,2,5,9,11,23,-1017
1573,18.113432,2,6,9,14,23,-1024
1574,18.124982,1,5,9,12,27,-1021
1575,18.136576,2,6,8,10,28,-1027
1576,18.148129,3,6,9,13,23,-1022
1577,18.15971,2,6,9,11,26,-1015
1578,18.171263,3,5,9,15,24,-1020
1579,18.182781,2,6,9,11,26,-1022
1580,18.194314,2,6,9,15,27,-1022
1581,18.205932,3,6,9,13,27,-1021
1582,18.21758,2,6,9,13,25,-1021
1583,18.22926,2,6,10,9,26,-1021
1584,18.240913,2,6,9,16,30,-1026
1585,18.252559,2,6,10,12,28,-1017
1586,18.264225,2,5,9,15,26,-1019
1587,18.275904,2,6,10,13,26,-1018
1588,18.287588,2,7,9,8,29,-1018
1589,18.299285,2,7,8,11,24,-1023
1590,18.310954,2,6,9,13,26,-1026
1591,18.322533,2,6,9,13,26,-1018
1592,18.334058,3,5,9,10,28,-1018
1593,18.345605,3,6,9,9,29,-1020
1594,18.357179,2,6,9,12,26,-1017
1595,18.368727,2,6,9,12,25,-1028
1596,18.380277,3,6,9,13,25,-1020
1597,18.391835,2,7,9,13,25,-1018
1598,18.403394,3,6,9,12,31,-1022
1599,18.415049,3,6,9,12,24,-1029
1600,18.426713,2,5,8,12,25,-1025
1601,18.438378,3,5,9,15,23,-1018
1602,18.450058,3,6,9,16,24,-1023
1603,18.461696,2,6,10,10,28,-1015
1604,18.473337,2,7,10,12,25,-1030
1605,18.485013,2,7,9,13,25,-1021
1606,18.496657,2,6,9,11,23,-1014
1607,18.508301,3,6,9,11,24,-1020
1608,18.519846,2,6,8,12,22,-1017
1609,18.531397,2,6,9,12,26,-1019
1610,18.542963,3,6,9,18,25,-1019
1611,18.554533,2,5,9,12,27,-1022
1612,18.568667,2,7,9,14,26,-1028
1613,18.580253,2,6,9,10,22,-1018
1614,18.591797,2,6,9,15,25,-1021
1615,18.603334,2,6,9,12,29,-1024
1616,18.614899,2,7,9,14,24,-1021
1617,18.626468,3,5,9,8,25,-1021
1618,18.638042,2,6,9,12,25,-1024
1619,18.649591,2,6,9,13,23,-1018
1620,18.661134,1,6,9,13,28,-1017
1621,18.672692,2,6,9,14,20,-1019
1622,18.684239,2,6,10,12,21,-1022
1623,18.695782,3,6,9,10,27,-1017
1624,18.707332,3,7,9,11,23,-1017
1625,18.718952,2,7,9,12,26,-1021
1626,18.730594,3,7,9,10,21,-1020
1627,18.74226,3,6,9,17,26,-1018
1628,18.753918,2,6,10,11,27,-1019
1629,18.765556,2,6,9,14,26,-1017
1630,18.777207,2,6,9,15,25,-1026
1631,18.788918,2,6,9,8,23,-1025
1632,18.80059,2,7,9,16,28,-1021
1633,18.812287,2,6,9,14,26,-1028
1634,18.824,2,6,9,14,21,-1015
1635,18.835583,2,6,9,15,20,-1021
1636,18.847145,2,6,9,13,22,-1018
1637,18.858715,1,6,8,13,24,-1020
1638,18.870288,2,5,9,10,26,-1016
1639,18.881836,3,6,9,9,29,-1024
1640,18.89339,2,6,8,13,28,-1023
1641,18.904957,2,6,8,13,23,-1026
1642,18.916516,2,6,9,11,28,-1016
1643,18.928142,2,7,8,9,27,-1021
1644,18.939796,2,7,9,14,28,-1020
1645,18.951464,2,6,9,15,24,-1020
1646,18.963097,3,6,9,11,22,-1019
1647,18.974767,2,6,9,11,23,-1021
1648,18.986434,3,6,9,12,22,-1022
1649,18.998072,3,6,9,9,24,-1024
1650,19.009743,2,6,8,12,25,-1020
1651,19.021402,2,6,10,11,23,-1009
1652,19.03306,2,6,9,16,22,-1020
1653,19.044621,2,6,9,13,26,-1017
1654,19.056169,2,5,8,13,25,-1018
1655,19.067719,2,6,8,13,26,-1022
1656,19.07927,2,6,8,14,26,-1022
1657,19.090843,3,6,9,15,21,-1021
1658,19.102424,3,5,10,10,27,-1023
1659,19.113959,2,6,9,10,27,-1018
1660,19.125514,2,5,10,13,23,-1025
1661,19.137161,2,5,9,13,26,-1026
1662,19.148832,2,6,8,14,26,-1024
1663,19.16049,2,5,8,15,26,-1025
1664,19.172141,3,6,9,15,21,-1016
1665,19.183826,2,5,9,13,26,-1026
1666,19.195501,2,6,9,12,29,-1021
1667,19.207153,2,6,9,9,26,-1016
1668,19.218859,2,6,9,13,24,-1023
1669,19.230531,2,6,9,16,27,-1016
1670,19.242192,2,6,9,10,27,-1022
1671,19.253757,2,7,9,9,20,-1018
1672,19.265333,2,6,9,13,26,-1023
1673,19.276885,2,6,8,14,24,-1020
1674,19.288463,2,6,8,13,27,-1017
1675,19.300016,3,6,9,14,26,-1019
1676,19.311582,3,7,9,10,25,-1023
1677,19.323148,3,6,9,14,26,-1018
1678,19.334728,2,6,9,14,23,-1024
1679,19.346336,2,6,9,13,23,-1019
1680,19.357997,2,6,9,13,25,-1020
1681,19.369642,2,6,8,11,27,-1025
1682,19.38129,2,6,9,13,26,-1019
1683,19.392942,3,6,9,13,25,-1020
1684,19.404594,3,6,9,10,24,-1020
1685,19.416253,3,6,9,10,29,-1019
1686,19.427906,3,6,9,10,23,-1024
1687,19.439571,2,6,8,12,25,-1019
1688,19.451254,2,6,9,8,25,-1030
1689,19.462911,3,6,9,11,24,-1026
1690,19.474575,2,6,9,11,24,-1021
1691,19.48625,3,6,9,13,27,-1021
1692,19.497902,2,6,9,12,26,-1019
1693,19.509538,2,6,8,13,25,-1019
1694,19.521188,2,6,9,11,23,-1014
1695,19.532883,2,6,9,13,30,-1019
1696,19.544552,2,7,9,10,25,-1018
1697,19.556245,2,6,9,14,25,-1024
1698,19.567899,2,6,9,12,23,-1027
1699,19.57956,2,6,9,14,25,-1023
1700,19.591237,2,6,9,17,27,-1025
1701,19.602898,2,6,9,9,27,-1020
1702,19.614593,2,6,9,13,26,-1021
1703,19.626256,2,6,9,14,25,-1023
1704,19.637909,2,6,9,13,26,-1023
1705,19.649541,2,5,9,12,25,-1017
1706,19.661087,1,6,9,14,24,-1017
1707,19.672655,2,5,9,8,28,-1018
1708,19.684208,2,6,9,12,25,-1028
1709,19.695754,1,5,9,12,27,-1018
1710,19.707274,2,6,9,13,22,-1020
1711,19.718829,2,6,9,13,26,-1024
1712,19.730371,2,6,9,10,24,-1026
1713,19.741909,2,6,8,10,24,-1027
1714,19.753513,2,6,9,13,24,-1028
1715,19.765166,2,6,9,13,25,-1027
1716,19.77687,2,6,9,11,22,-1020
1717,19.788531,2,6,9,13,25,-1020
1718,19.800194,3,5,9,8,27,-1022
1719,19.811856,2,6,9,11,28,-1013
1720,19.823527,2,6,9,12,26,-1021
1721,19.835213,2,6,8,15,25,-1018
1722,19.846894,2,6,8,13,22,-1024
1723,19.858574,2,6,9,14,27,-1017
1724,19.870255,3,6,9,12,24,-1020
1725,19.881909,2,6,9,11,25,-1021
1726,19.893548,2,6,9,11,26,-1019
1727,19.905198,2,6,9,10,29,-1021
1728,19.916884,3,6,10,8,27,-1023
1729,19.928544,2,6,9,11,26,-1023
1730,19.940218,2,6,9,14,28,-1021
1731,19.951882,2,6,9,11,23,-1017
1732,19.963557,2,6,9,15,28,-1022
1733,19.975236,1,6,8,11,27,-1024
1734,19.986899,2,5,8,14,25,-1021
1735,19.998575,3,6,9,10,26,-1025
1736,20.010253,2,6,9,13,27,-1019
1737,20.021909,3,7,9,12,26,-1021
1738,20.03355,2,6,9,15,27,-1020
1739,20.045201,2,6,9,12,25,-1016
1740,20.056884,2,6,9,11,25,-1025
1741,20.068592,2,5,9,10,24,-1025
1742,20.080231,2,6,9,13,25,-1021
1743,20.091817,1,7,9,13,23,-1025
1744,20.103389,2,6,9,12,26,-1020
1745,20.114954,2,7,9,9,27,-1022
1746,20.126519,3,6,9,9,22,-1027
1747,20.138063,2,7,9,11,26,-1020
1748,20.149605,2,6,9,15,25,-1017
1749,20.161166,1,6,9,11,25,-1028
1750,20.172732,2,6,9,10,27,-1022
1751,20.184371,2,6,9,13,23,-1020
1752,20.196033,2,7,8,13,24,-1020
1753,20.2077,3,7,8,14,26,-1024
1754,20.219368,2,7,9,14,25,-1023
1755,20.231032,2,6,9,8,27,-1015
1756,20.24272,3,6,9,16,27,-1027
1757,20.254381,2,6,9,11,24,-1023
1758,20.266087,3,6,9,11,25,-1019
1759,20.277758,2,7,9,10,22,-1025
1760,20.289416,3,6,8,12,28,-1019
1761,20.300994,3,6,9,15,25,-1021
1762,20.312538,2,6,9,14,23,-1023
1763,20.324087,2,6,9,12,24,-1023
1764,20.335625,3,5,9,13,24,-1017
1765,20.347179,2,6,9,11,21,-1017
1766,20.358727,1,6,9,14,26,-1030
1767,20.370296,1,6,9,13,24,-1020
1768,20.381843,2,5,9,15,24,-1025
1769,20.393512,3,6,9,10,24,-1018
1770,20.405164,2,6,9,12,26,-1018
1771,20.416825,3,6,9,9,26,-1020
1772,20.428476,2,6,9,13,25,-1027
1773,20.440122,2,5,9,16,27,-1018
1774,20.45177,2,6,9,14,24,-1023
1775,20.46342,2,6,9,13,21,-1018
1776,20.475087,2,6,10,8,25,-1020
1777,20.486772,2,7,8,13,23,-1025
1778,20.498449,2,6,9,13,27,-1025
1779,20.510112,2,6,9,11,27,-1022
1780,20.521762,2,6,9,12,20,-1018
1781,20.533404,2,6,8,10,28,-1020
1782,20.545046,2,7,9,14,26,-1021
1783,20.55672,2,6,8,13,23,-1026
1784,20.568371,1,6,8,15,22,-1022
1785,20.580023,2,5,9,7,25,-1026
1786,20.59169,2,6,9,13,24,-1023
1787,20.603359,2,7,9,14,26,-1019
1788,20.615019,3,6,9,14,20,-1022
1789,20.626665,2,6,9,8,28,-1024
1790,20.638331,2,6,9,9,24,-1029
1791,20.649993,2,7,9,12,28,-1022
1792,20.661632,1,6,9,16,23,-1028
1793,20.673307,2,6,10,14,24,-1020
1794,20.684978,2,6,9,13,19,-1017
1795,20.696655,2,6,8,14,25,-1016
1796,20.708304,2,6,9,10,27,-1023
1797,20.719983,2,6,8,10,25,-1024
1798,20.73162,2,6,8,7,24,-1020
1799,20.743273,3,6,9,15,27,-1015
1800,20.754921,2,7,9,14,27,-1025
1801,20.766592,2,6,9,12,30,-1019
1802,20.778247,2,7,9,12,28,-1028
1803,20.789894,2,6,9,12,29,-1017
1804,20.801555,2,6,9,13,27,-1020
1805,20.813203,3,5,9,10,23,-1021
1806,20.824859,3,7,10,10,24,-1021
1807,20.836508,3,6,9,12,25,-1021
1808,20.848148,2,6,10,17,25,-1018
1809,20.859808,2,6,9,14,30,-1020
1810,20.87149,2,7,9,16,23,-1026
1811,20.883138,3,6,9,10,23,-1025
1812,20.894837,2,6,9,13,26,-1027
1813,20.906511,3,6,9,13,29,-1023
1814,20.918189,2,6,9,11,26,-1023
1815,20.929852,2,6,8,12,24,-1022
1816,20.941506,2,6,9,8,27,-1025
1817,20.953149,3,6,9,10,24,-1023
1818,20.964801,2,7,9,11,22,-1020
1819,20.976455,2,7,8,14,24,-1018
1820,20.98812,2,6,9,14,26,-1025
1821,20.999774,2,6,8,13,26,-1021
1822,21.011456,2,5,9,13,25,-1025
1823,21.023102,3,6,9,11,25,-1026
1824,21.034784,2,5,10,11,28,-1018
1825,21.046485,2,6,9,9,29,-1020
1826,21.058146,2,6,9,9,27,-1014
1827,21.069793,2,6,10,10,23,-1026
1828,21.081441,3,6,9,15,27,-1023
1829,21.093133,2,7,10,13,28,-1021
1830,21.104785,1,6,9,14,25,-1027
1831,21.116476,3,6,9,12,27,-1024
1832,21.128158,3,6,9,13,23,-1025
1833,21.139733,2,6,9,16,23,-1028
1834,21.151304,3,5,9,10,28,-1023
1835,21.162859,2,6,9,16,28,-1016
1836,21.174435,2,6,9,11,25,-1024
1837,21.185983,2,7,9,10,29,-1023
1838,21.197529,3,6,9,13,24,-1025
1839,21.209077,2,6,9,12,25,-1021
1840,21.220676,2,7,9,14,22,-1022
1841,21.232302,2,6,9,10,25,-1021
1842,21.243988,2,5,8,10,26,-1023
1843,21.255631,3,5,8,13,22,-1022
1844,21.267351,2,6,8,11,24,-1026
1845,21.279012,2,6,9,14,22,-1018
1846,21.290662,3,6,9,12,25,-1020
1847,21.302332,2,6,8,16,23,-1016
1848,21.314002,3,6,9,9,24,-1020
1849,21.325635,2,6,9,12,24,-1023
1850,21.337196,2,6,9,13,27,-1022
1851,21.348748,2,6,10,12,29,-1024
1852,21.360291,2,6,9,11,27,-1022
1853,21.371834,2,6,9,16,29,-1022
1854,21.383431,2,6,9,16,30,-1015
1855,21.395007,2,5,9,10,26,-1019
1856,21.406581,2,6,9,11,28,-1025
1857,21.418129,2,7,9,12,24,-1020
1858,21.429688,2,6,9,13,25,-1021
1859,21.441305,2,6,9,11,26,-1021
1860,21.452972,2,6,9,12,26,-1025
1861,21.464621,2,6,9,12,23,-1019
1862,21.476276,2,5,9,13,24,-1022
1863,21.487921,2,7,8,12,29,-1020
1864,21.499607,2,6,9,15,27,-1015
1865,21.511269,3,7,9,12,27,-1025
1866,21.522915,2,7,10,13,25,-1024
1867,21.534596,3,6,8,10,24,-1025
1868,21.546275,2,6,9,9,24,-1020
1869,21.557856,3,6,9,15,26,-1019
1870,21.569413,2,6,9,11,26,-1018
1871,21.580971,2,6,9,12,27,-1016
1872,21.592568,2,6,8,17,27,-1021
1873,21.604121,3,5,9,10,26,-1021
1874,21.615664,2,5,9,7,24,-1019
1875,21.627226,2,5,9,15,23,-1015
1876,21.638826,2,7,9,16,21,-1018
1877,21.650497,2,6,8,15,24,-1022
1878,21.662184,3,6,10,13,25,-1026
1879,21.673835,2,7,9,14,27,-1015
1880,21.68551,2,6,9,13,24,-1021
1881,21.697169,2,6,9,13,28,-1024
1882,21.708821,2,7,9,13,26,-1023
1883,21.720488,2,6,8,17,23,-1025
1884,21.732142,2,6,8,8,26,-1022
1885,21.743801,3,6,9,14,22,-1022
1886,21.755505,2,6,8,9,28,-1025
1887,21.767026,2,6,9,12,22,-1025
1888,21.778563,2,5,9,11,27,-1022
1889,21.790138,2,6,9,14,23,-1023
1890,21.801691,2,6,9,14,28,-1025
1891,21.813242,2,6,9,12,23,-1018
1892,21.824808,2,6,9,10,25,-1022
1893,21.836349,3,6,9,8,24,-1023
1894,21.847901,2,5,8,16,27,-1026
1895,21.859543,2,6,9,14,25,-1021
1896,21.871243,2,6,9,10,23,-1023
1897,21.882911,2,6,8,13,21,-1025
1898,21.894586,3,6,10,13,27,-1022
1899,21.906244,2,6,9,8,25,-1020
1900,21.917895,3,5,9,11,22,-1018
1901,21.929535,2,5,9,12,23,-1019
1902,21.941182,2,6,9,15,27,-1023
1903,21.952863,2,6,9,10,26,-1023
1904,21.964432,3,6,9,12,23,-1019
1905,21.976005,2,6,8,13,25,-1027
1906,21.987565,2,5,9,12,23,-1023
1907,21.999178,2,6,9,12,24,-1023
1908,22.010726,2,6,9,15,23,-1021
1909,22.022297,3,6,9,13,27,-1020
1910,22.033853,3,6,8,12,23,-1024
1911,22.045403,3,6,9,12,23,-1021
1912,22.056967,2,5,9,7,25,-1023
1913,22.068659,3,6,9,15,26,-1022
1914,22.080351,2,6,10,11,20,-1021
1915,22.091995,3,5,9,13,25,-1026
1916,22.103641,3,6,10,11,27,-1017
1917,22.115316,2,6,8,9,24,-1025
1918,22.126993,2,6,9,13,24,-1029
1919,22.13866,2,6,9,14,24,-1016
1920,22.150374,2,6,9,14,25,-1020
1921,22.162064,2,6,8,11,23,-1026
1922,22.173753,2,6,9,11,26,-1018
1923,22.185312,2,7,9,14,23,-1021
1924,22.196857,3,6,9,13,26,-1022
1925,22.208417,3,6,9,10,27,-1025
1926,22.219966,2,6,9,14,23,-1021
1927,22.231506,2,6,8,14,27,-1019
1928,22.243045,2,5,9,13,23,-1021
1929,22.254604,3,6,9,15,25,-1017
1930,22.266201,2,5,10,10,26,-1023
1931,22.277847,3,6,9,16,26,-1022
1932,22.289511,2,5,9,11,26,-1026
1933,22.301159,3,5,9,10,26,-1017
1934,22.312807,2,6,9,12,27,-1022
1935,22.32448,2,6,9,15,28,-1020
1936,22.336126,2,6,9,13,25,-1016
1937,22.347775,3,6,9,15,25,-1024
1938,22.359452,3,5,9,13,26,-1019
1939,22.371119,3,5,9,11,27,-1022
1940,22.382784,2,6,9,14,26,-1027
1941,22.394464,3,7,9,17,26,-1019
1942,22.406116,2,5,9,13,26,-1026
1943,22.417773,3,6,9,13,24,-1022
1944,22.429418,2,6,9,14,25,-1020
1945,22.441067,3,6,10,14,26,-1023
1946,22.452734,2,6,8,14,23,-1026
1947,22.464376,2,6,9,13,26,-1019
1948,22.476053,2,6,9,11,25,-1024
1949,22.487729,2,5,9,14,27,-1026
1950,22.499362,2,6,9,11,22,-1023
1951,22.511022,2,6,9,17,28,-1018
1952,22.52275,1,6,9,16,27,-1021
1953,22.534402,2,6,8,10,24,-1028
1954,22.546071,2,6,8,16,25,-1021
1955,22.557733,2,6,8,10,23,-1023
1956,22.569379,2,6,9,11,26,-1018
1957,22.58111,2,6,9,11,26,-1020
1958,22.592766,3,6,9,14,25,-1025
1959,22.604324,2,6,9,11,27,-1022
1960,22.615868,2,6,9,16,25,-1025
1961,22.627428,2,6,9,11,23,-1029
1962,22.639028,2,7,9,14,27,-1021
1963,22.65058,2,6,9,11,24,-1026
1964,22.662126,2,7,9,16,26,-1017
1965,22.673677,3,6,9,14,26,-1030
1966,22.685227,2,6,9,13,25,-1021
1967,22.69689,2,6,8,12,23,-1022
1968,22.708541,2,6,9,15,27,-1019
1969,22.720216,3,6,8,13,26,-1023
1970,22.731863,3,5,8,13,24,-1020
1971,22.743544,2,6,9,11,20,-1020
1972,22.755224,2,6,9,11,24,-1022
1973,22.766846,2,6,9,14,26,-1021
1974,22.778503,2,6,9,13,25,-1025
1975,22.790186,2,6,9,12,22,-1025
1976,22.801739,2,7,9,16,24,-1021
1977,22.813289,2,6,8,14,27,-1022
1978,22.82484,2,6,9,11,23,-1022
1979,22.836414,2,5,9,15,22,-1021
1980,22.847973,2,6,9,7,26,-1020
1981,22.859539,3,6,9,13,24,-1013
1982,22.871093,2,6,8,11,31,-1018
1983,22.882671,2,6,9,11,26,-1029
1984,22.894288,3,6,9,12,24,-1017
1985,22.90597,2,6,8,13,25,-1022
1986,22.917624,2,5,9,13,22,-1021
1987,22.929292,3,5,8,13,25,-1026
1988,22.940959,2,5,9,10,24,-1020
1989,22.952612,2,6,9,11,26,-1021
1990,22.964259,3,6,8,11,25,-1019
1991,22.975914,2,5,9,14,27,-1025
1992,22.987757,3,6,9,10,24,-1020
1993,22.999506,3,6,8,14,22,-1023
1994,23.011076,2,6,9,15,26,-1023
1995,23.022668,2,6,10,14,26,-1018
1996,23.034228,2,7,9,13,26,-1026
1997,23.045795,2,6,8,13,27,-1023
1998,23.057347,2,6,8,10,27,-1026
1999,23.068903,2,6,9,12,27,-1017
