sample,t_s,gyro_x,gyro_y,gyro_z,accel_x,accel_y,accel_z
0,1.3e-05,0,0,0,1036,-2,-1543
1,0.011246,0,1,1,1035,3,-1545
2,0.022435,0,1,1,1032,-2,-1547
3,0.033619,0,0,1,1042,-1,-1546
4,0.044806,0,1,1,1036,2,-1542
5,0.056003,0,1,1,1033,2,-1546
6,0.067186,0,1,0,1032,0,-1543
7,0.078371,0,1,1,1035,-2,-1543
8,0.089554,0,2,1,1029,0,-1546
9,0.100743,1,1,1,1031,-2,-1551
10,0.111932,0,1,0,1034,0,-1547
11,0.123115,0,1,1,1035,0,-1547
12,0.134301,0,1,1,1038,0,-1545
13,0.145485,0,1,1,1037,0,-1546
14,0.156672,1,2,0,1034,0,-1547
15,0.167819,1,1,0,1036,0,-1545
16,0.179002,1,1,0,1036,0,-1547
17,0.190186,1,1,1,1032,0,-1542
18,0.201369,0,1,1,1035,-2,-1542
19,0.212549,0,0,1,1035,-1,-1549
20,0.223733,0,0,1,1032,-1,-1540
21,0.234916,0,1,1,1032,0,-1545
22,0.246102,0,0,1,1031,-1,-1549
23,0.257284,0,1,2,1034,0,-1544
24,0.268479,0,1,2,1032,0,-1544
25,0.279663,0,0,1,1035,0,-1541
26,0.290851,0,0,1,1033,1,-1548
27,0.302035,0,0,1,1034,1,-1545
28,0.313221,-1,-1,1,1031,-4,-1542
29,0.32437,0,0,1,1033,2,-1550
30,0.335552,1,0,1,1034,0,-1549
31,0.346739,0,1,2,1036,-1,-1548
32,0.357923,0,1,1,1033,1,-1546
33,0.369108,0,0,1,1031,0,-1544
34,0.380304,0,0,2,1037,2,-1547
35,0.391488,0,0,0,1033,-1,-1544
36,0.402672,0,1,1,1033,0,-1541
37,0.413856,0,1,1,1036,0,-1543
38,0.425041,0,0,2,1034,-1,-1545
39,0.436192,0,1,1,1030,0,-1539
40,0.447377,1,0,1,1034,2,-1543
41,0.458563,0,0,1,1035,0,-1546
42,0.469746,0,1,2,1032,-5,-1546
43,0.480928,0,1,3,1037,-1,-1541
44,0.492116,1,1,1,1036,1,-1550
45,0.503297,1,1,1,1033,1,-1545
46,0.514478,0,1,1,1033,-1,-1546
47,0.525663,1,2,1,1037,0,-1540
48,0.536859,0,1,1,1036,-1,-1548
49,0.548047,0,0,2,1036,0,-1540
50,0.559232,0,1,1,1035,1,-1545
51,0.570422,0,1,1,1031,1,-1545
52,0.581607,0,0,2,1036,0,-1543
53,0.592797,0,0,1,1035,-1,-1538
54,0.603999,0,0,1,1034,-2,-1546
55,0.615181,0,1,2,1035,1,-1544
56,0.626363,0,3,1,1037,2,-1540
57,0.637547,1,1,0,1041,0,-1548
58,0.648738,0,2,0,1035,1,-1547
59,0.65993,1,1,0,1034,0,-1548
60,0.671112,1,2,1,1039,3,-1547
61,0.682295,1,3,0,1036,0,-1548
62,0.693477,0,2,-1,1034,0,-1550
63,0.704669,0,2,0,1037,-2,-1550
64,0.715815,0,1,1,1037,0,-1545
65,0.726999,0,2,1,1032,-1,-1551
66,0.738185,1,1,1,1034,4,-1547
67,0.749372,1,2,0,1033,-3,-1546
68,0.760554,0,2,0,1032,5,-1546
69,0.771736,0,1,1,1035,-1,-1543
70,0.78292,1,0,1,1035,0,-1545
71,0.794105,0,0,0,1036,-1,-1549
72,0.805288,0,-1,-1,1031,-5,-1549
73,0.816481,0,1,0,1030,2,-1550
74,0.827665,0,1,1,1035,-1,-1544
75,0.838849,0,2,1,1036,0,-1550
76,0.850033,-1,1,1,1035,-3,-1546
77,0.861225,1,0,0,1033,1,-1545
78,0.872372,0,1,1,1035,0,-1547
79,0.883552,0,1,0,1035,-2,-1545
80,0.894733,0,0,0,1034,1,-1544
81,0.905919,0,0,1,1035,4,-1545
82,0.917099,0,1,1,1034,0,-1548
83,0.928295,0,0,1,1033,-1,-1540
84,0.939481,0,0,1,1034,1,-1541
85,0.950663,0,0,1,1036,0,-1548
86,0.961856,0,0,1,1039,0,-1545
87,0.973041,0,-1,1,1035,1,-1542
88,0.984236,0,1,1,1032,1,-1544
89,0.995419,0,1,1,1032,5,-1543
90,1.006608,1,1,0,1036,-1,-1546
91,1.017795,1,1,0,1036,0,-1541
92,1.028977,1,2,0,1037,0,-1543
93,1.040185,1,1,1,1033,-3,-1546
94,1.051369,1,1,0,1035,0,-1551
95,1.062552,0,1,1,1038,1,-1548
96,1.073747,0,2,1,1036,0,-1550
97,1.084931,0,0,1,1037,-2,-1547
98,1.096118,0,0,1,1036,0,-1552
99,1.107302,0,1,1,1036,2,-1554
100,1.118484,0,1,2,1033,3,-1546
101,1.129666,0,0,2,1038,-4,-1546
102,1.140859,0,1,1,1036,0,-1545
103,1.151995,0,0,2,1033,1,-1545
104,1.163176,1,2,1,1035,0,-1544
105,1.174366,1,2,1,1032,-2,-1551
106,1.185546,0,2,1,1038,0,-1548
107,1.196735,0,2,1,1032,0,-1542
108,1.207926,0,1,1,1035,0,-1549
109,1.219115,1,2,1,1032,1,-1550
110,1.230297,0,1,1,1032,2,-1545
111,1.24148,0,1,1,1033,0,-1545
112,1.252673,0,1,1,1034,-2,-1542
113,1.263814,0,0,0,1032,0,-1543
114,1.274998,1,2,1,1033,1,-1546
115,1.286181,1,3,0,1037,0,-1541
116,1.297363,1,1,1,1031,0,-1544
117,1.308554,-1,1,1,1031,-1,-1546
118,1.319738,0,2,1,1033,-3,-1541
119,1.330921,0,1,1,1035,3,-1542
120,1.342104,1,1,1,1036,3,-1547
121,1.353289,0,0,0,1033,1,-1543
122,1.364481,0,1,0,1038,1,-1540
123,1.375666,0,2,1,1035,0,-1544
124,1.386847,1,1,1,1034,-2,-1549
125,1.39803,0,0,-1,1036,-1,-1544
126,1.409214,0,0,1,1032,2,-1542
127,1.420367,0,0,1,1032,-4,-1545
128,1.431548,0,-1,1,1034,1,-1549
129,1.44273,-1,-1,1,1039,-1,-1549
130,1.453915,0,0,2,1035,0,-1543
131,1.465103,0,0,2,1040,3,-1542
132,1.476295,0,0,1,1029,0,-1548
133,1.487478,1,-1,1,1036,-2,-1545
134,1.498663,0,0,1,1037,-1,-1546
135,1.509846,0,0,1,1035,-3,-1545
136,1.521031,0,0,1,1034,-2,-1545
137,1.532186,0,2,1,1030,5,-1538
138,1.543368,0,1,1,1037,1,-1546
139,1.554553,0,0,1,1035,3,-1549
140,1.565738,0,1,1,1037,0,-1542
141,1.576922,0,0,1,1034,0,-1542
142,1.588111,-1,1,1,1034,-1,-1552
143,1.599293,0,0,1,1035,0,-1544
144,1.610478,0,0,1,1036,0,-1546
145,1.621669,0,1,1,1034,-4,-1540
146,1.632855,0,2,1,1034,0,-1546
147,1.643998,0,0,1,1034,0,-1543
148,1.655177,-1,0,1,1040,0,-1544
149,1.666361,0,2,1,1037,-1,-1542
150,1.677543,0,1,1,1034,-1,-1542
151,1.688735,0,0,1,1039,0,-1541
152,1.699925,0,2,1,1033,0,-1545
153,1.711106,0,1,1,1036,6,-1552
154,1.722287,0,2,2,1036,-2,-1547
155,1.73347,1,2,1,1033,0,-1547
156,1.744662,1,1,1,1037,2,-1547
157,1.755814,1,3,1,1036,0,-1543
158,1.766998,0,1,1,1036,0,-1540
159,1.778181,0,2,1,1033,1,-1542
160,1.789365,0,2,1,1031,0,-1540
161,1.800554,0,1,1,1039,0,-1548
162,1.811736,1,3,1,1034,-1,-1548
163,1.822919,0,2,1,1035,1,-1549
164,1.834107,0,1,1,1038,-2,-1538
165,1.845289,0,2,2,1037,4,-1544
166,1.856482,0,1,1,1037,0,-1542
167,1.86767,0,2,1,1036,-1,-1544
168,1.878852,0,2,1,1033,-1,-1545
169,1.89006,0,1,0,1035,-1,-1545
170,1.901244,0,1,1,1035,4,-1544
171,1.91243,1,1,0,1033,-2,-1544
172,1.923608,0,0,0,1038,0,-1549
173,1.934793,1,0,0,1029,-1,-1544
174,1.945982,0,1,0,1035,3,-1545
175,1.957162,1,0,1,1037,0,-1546
176,1.968365,0,0,1,1033,0,-1544
177,1.979556,1,1,0,1034,0,-1547
178,1.990741,0,2,0,1036,0,-1548
179,2.001931,0,2,0,1031,-3,-1544
180,2.013112,0,1,1,1033,0,-1550
181,2.024301,0,2,1,1035,0,-1547
182,2.035484,0,2,1,1030,0,-1548
183,2.046664,1,1,0,1033,-3,-1549
184,2.05785,0,1,0,1035,1,-1551
185,2.069033,1,1,1,1036,-1,-1541
186,2.080184,0,1,0,1035,-3,-1544
187,2.091365,0,0,0,1034,-4,-1547
188,2.102547,0,-1,0,1038,0,-1550
189,2.113727,0,0,1,1032,-2,-1548
190,2.124926,0,0,1,1036,0,-1543
191,2.136117,0,0,-1,1036,3,-1548
192,2.147299,1,1,0,1033,2,-1551
193,2.158478,0,1,0,1035,1,-1546
194,2.169657,0,0,1,1032,2,-1544
195,2.180847,1,0,0,1036,1,-1551
196,2.191999,0,0,1,1034,-3,-1540
197,2.20318,-1,0,1,1034,0,-1554
198,2.214364,0,0,1,1035,-1,-1545
199,2.225581,0,1,0,1032,0,-1540
200,2.236866,1,2,1,1034,-1,-1549
201,2.248061,1,2,1,1036,1,-1546
202,2.259244,0,1,1,1035,0,-1543
203,2.270427,0,1,1,1036,0,-1544
204,2.28161,0,1,2,1036,0,-1547
205,2.292795,1,2,1,1039,0,-1546
206,2.303995,1,2,1,1036,0,-1546
207,2.315177,0,0,1,1033,0,-1538
208,2.326358,0,1,1,1034,4,-1539
209,2.33754,0,2,1,1031,0,-1543
210,2.348736,0,2,1,1036,0,-1548
211,2.359925,0,1,1,1035,-1,-1548
212,2.371108,1,1,0,1034,-1,-1549
213,2.38229,0,2,1,1035,-2,-1550
214,2.393473,0,2,1,1034,2,-1544
215,2.404667,0,0,1,1035,-1,-1540
216,2.415816,0,1,2,1037,-1,-1545
217,2.426998,0,0,1,1031,0,-1549
218,2.438182,0,2,1,1035,3,-1545
219,2.449379,1,1,1,1037,-1,-1548
220,2.460554,0,2,1,1031,0,-1541
221,2.471735,1,2,0,1035,-4,-1543
222,2.482921,0,3,1,1033,2,-1547
223,2.494104,1,2,1,1034,5,-1544
224,2.505285,1,3,1,1037,3,-1548
225,2.516481,0,3,1,1035,0,-1546
226,2.527665,0,3,1,1032,-2,-1539
227,2.538847,1,2,1,1038,0,-1544
228,2.550032,0,1,0,1035,1,-1546
229,2.561212,1,2,1,1033,2,-1546
230,2.572369,1,2,1,1034,-2,-1545
231,2.583551,0,3,1,1035,0,-1544
232,2.594745,0,1,1,1031,0,-1544
233,2.605928,0,2,1,1031,-1,-1545
234,2.617112,0,3,1,1034,0,-1542
235,2.628295,1,3,1,1033,-4,-1545
236,2.639476,1,1,0,1034,4,-1543
237,2.650659,0,2,0,1033,-2,-1547
238,2.661842,-1,1,2,1033,2,-1541
239,2.673025,0,0,1,1036,1,-1541
240,2.684184,0,1,1,1037,-2,-1548
241,2.695365,0,1,1,1031,-1,-1546
242,2.706549,0,1,1,1034,2,-1545
243,2.717748,1,0,0,1031,1,-1551
244,2.728932,1,2,1,1033,2,-1547
245,2.740121,1,1,0,1033,-1,-1549
246,2.751303,0,1,1,1034,-3,-1553
247,2.762484,0,1,1,1035,0,-1547
248,2.773667,0,1,0,1034,-1,-1547
249,2.784852,0,1,1,1034,0,-1550
250,2.795999,1,-1,1,1040,0,-1548
251,2.807183,1,0,1,1032,-1,-1548
252,2.818365,0,0,1,1034,-1,-1548
253,2.829545,0,-1,2,1033,0,-1545
254,2.840735,0,-1,1,1027,0,-1541
255,2.851922,0,0,1,1033,-2,-1541
256,2.863105,1,0,2,1035,-4,-1545
257,2.87429,0,0,1,1033,1,-1549
258,2.885474,0,-1,2,1038,1,-1553
259,2.896667,0,-1,1,1035,-1,-1538
260,2.907813,0,-1,1,1034,-1,-1547
261,2.919013,0,0,0,1034,3,-1547
262,2.930198,1,2,1,1031,0,-1547
263,2.941383,0,1,1,1036,-1,-1547
264,2.95256,0,0,1,1033,-1,-1555
265,2.963742,0,1,2,1035,-1,-1546
266,2.974924,0,2,1,1036,-2,-1546
267,2.986103,1,1,2,1038,-2,-1551
268,2.997287,0,1,1,1032,3,-1548
269,3.008481,0,1,1,1033,1,-1544
270,3.019665,1,0,1,1036,0,-1546
271,3.030856,-1,1,0,1037,-1,-1548
272,3.042042,0,1,1,1035,-2,-1548
273,3.053225,0,1,2,1031,2,-1547
274,3.064369,0,1,1,1031,1,-1542
275,3.075554,0,2,1,1033,0,-1541
276,3.086736,1,1,1,1036,-3,-1545
277,3.097919,0,2,1,1034,0,-1548
278,3.109104,1,2,1,1037,0,-1548
279,3.120295,1,1,1,1037,2,-1548
280,3.131479,0,1,1,1033,0,-1547
281,3.142662,1,2,1,1033,-2,-1543
282,3.153845,1,3,1,1036,3,-1551
283,3.165028,1,3,1,1035,0,-1543
284,3.176187,1,2,1,1035,-1,-1546
285,3.187369,0,1,1,1034,-2,-1547
286,3.198549,1,3,1,1033,0,-1539
287,3.209744,1,1,0,1032,2,-1546
288,3.22093,0,2,1,1034,0,-1546
289,3.232117,0,2,1,1032,-4,-1548
290,3.243299,1,1,1,1032,-3,-1549
291,3.25448,1,2,2,1033,0,-1547
292,3.265659,0,2,1,1041,0,-1550
293,3.27686,0,2,1,1028,2,-1541
294,3.288051,0,1,1,1035,-1,-1553
295,3.299233,0,2,2,1035,0,-1544
296,3.310427,0,1,1,1034,0,-1545
297,3.321609,0,1,0,1035,3,-1549
298,3.332795,0,0,2,1036,-1,-1540
299,3.343993,-1,1,2,1036,1,-1543
300,3.355179,0,1,0,1033,0,-1545
301,3.366362,0,0,0,1034,2,-1542
302,3.377546,1,1,1,1029,0,-1541
303,3.388737,0,0,1,1033,-1,-1548
304,3.399929,0,0,1,1034,4,-1548
305,3.411115,0,2,1,1037,-4,-1545
306,3.422298,0,2,0,1034,0,-1543
307,3.43348,1,1,1,1035,0,-1543
308,3.444664,0,1,1,1035,-2,-1540
309,3.455815,0,1,1,1022,3,-1548
310,3.466997,0,0,0,1036,4,-1545
311,3.478179,0,0,1,1035,0,-1544
312,3.48936,0,0,1,1038,-2,-1548
313,3.500549,0,0,1,1032,0,-1544
314,3.511732,0,1,1,1038,0,-1547
315,3.522915,0,0,1,1031,2,-1546
316,3.534099,0,1,1,1037,1,-1543
317,3.545284,0,2,2,1030,-3,-1550
318,3.556478,1,1,1,1035,6,-1551
319,3.567661,-1,0,1,1035,0,-1544
320,3.578845,0,1,2,1033,1,-1538
321,3.590029,0,1,1,1038,-2,-1554
322,3.601213,0,1,1,1036,1,-1543
323,3.612367,1,1,1,1037,-2,-1545
324,3.623552,0,0,2,1033,3,-1538
325,3.634755,1,3,1,1037,1,-1545
326,3.645942,0,1,0,1033,1,-1554
327,3.65713,0,1,1,1034,1,-1543
328,3.668329,0,2,1,1033,0,-1545
329,3.679517,0,1,2,1036,0,-1544
330,3.690697,1,1,2,1037,0,-1548
331,3.701885,0,1,1,1031,0,-1548
332,3.713073,0,2,1,1032,0,-1541
333,3.724259,0,1,1,1035,-2,-1549
334,3.735445,-1,0,1,1036,0,-1542
335,3.746629,0,1,2,1035,0,-1543
336,3.757813,0,2,1,1035,-1,-1549
337,3.768996,0,2,1,1038,3,-1541
338,3.780188,0,1,1,1039,1,-1545
339,3.791375,0,1,1,1035,-1,-1551
340,3.802563,0,1,1,1035,5,-1548
341,3.813757,0,1,1,1035,-2,-1546
342,3.824942,0,0,1,1035,1,-1550
343,3.836142,0,-1,1,1035,0,-1544
344,3.847325,0,2,1,1035,-2,-1546
345,3.858516,0,2,1,1034,0,-1542
346,3.869706,0,2,1,1036,2,-1536
347,3.880889,0,2,1,1034,-1,-1546
348,3.892079,1,2,1,1035,-2,-1543
349,3.903264,1,2,1,1030,2,-1547
350,3.914448,1,2,1,1030,0,-1542
351,3.925633,0,1,1,1034,-3,-1543
352,3.936819,0,1,1,1038,1,-1545
353,3.948003,1,3,1,1038,-3,-1552
354,3.959187,0,2,0,1034,0,-1548
355,3.970392,0,2,0,1035,0,-1542
356,3.982075,1,2,0,1032,-2,-1549
357,3.99376,0,2,0,1036,0,-1543
358,4.005434,0,1,2,1035,1,-1545
359,4.017118,0,1,1,1033,3,-1544
360,4.028793,0,1,1,1034,0,-1549
361,4.040463,0,2,2,1034,0,-1547
362,4.052108,0,1,1,1034,0,-1545
363,4.063775,0,1,1,1029,1,-1550
364,4.075421,1,1,1,1033,1,-1546
365,4.087076,0,1,1,1035,0,-1549
366,4.09873,1,1,1,1036,-1,-1547
367,4.110375,0,1,0,1034,0,-1544
368,4.122026,0,1,1,1033,0,-1547
369,4.133704,1,2,1,1036,0,-1542
370,4.145379,0,2,1,1035,0,-1543
371,4.157034,0,1,1,1034,-2,-1553
372,4.16874,0,1,1,1033,-1,-1543
373,4.180375,0,1,1,1037,5,-1551
374,4.192031,0,1,1,1033,-1,-1546
375,4.203709,1,1,1,1039,-1,-1549
376,4.215353,0,0,1,1035,3,-1551
377,4.227003,0,2,1,1034,-2,-1543
378,4.238665,0,1,2,1034,0,-1546
379,4.250327,0,1,2,1032,-2,-1542
380,4.261978,0,1,1,1032,1,-1539
381,4.273656,1,1,1,1036,0,-1550
382,4.285326,0,1,2,1036,0,-1539
383,4.297019,0,2,0,1036,0,-1544
384,4.308674,0,0,0,1036,0,-1545
385,4.320357,0,1,1,1034,0,-1542
386,4.332014,0,2,1,1033,0,-1548
387,4.343653,-1,1,1,1033,-1,-1550
388,4.355329,0,1,0,1038,3,-1544
389,4.366979,1,1,1,1035,-3,-1549
390,4.378634,0,2,1,1036,0,-1548
391,4.390336,0,0,1,1035,2,-1549
392,4.401952,0,1,1,1032,0,-1550
393,4.413506,1,2,1,1032,0,-1549
394,4.425067,1,1,1,1037,-4,-1547
395,4.436646,0,1,1,1030,0,-1548
396,4.448222,0,1,1,1035,1,-1544
397,4.459836,1,2,2,1035,-1,-1548
398,4.471409,0,1,0,1035,-1,-1548
399,4.482969,0,0,1,1037,-3,-1547
400,4.494635,0,1,1,1037,0,-1539
401,4.506321,1,1,1,1033,0,-1546
402,4.517979,0,1,1,1032,-1,-1554
403,4.529631,0,1,2,1031,-3,-1549
404,4.541315,0,1,1,1030,-3,-1544
405,4.553002,0,1,1,1034,3,-1543
406,4.564628,0,1,0,1034,-3,-1546
407,4.576283,0,1,1,1035,-2,-1546
408,4.587976,0,2,0,1035,-1,-1547
409,4.599522,0,1,2,1033,1,-1547
410,4.611075,1,0,1,1036,1,-1540
411,4.622659,-1,0,1,1034,0,-1547
412,4.634228,0,1,1,1035,0,-1551
413,4.645812,1,1,1,1035,2,-1544
414,4.657387,0,1,1,1038,0,-1545
415,4.668949,0,1,1,1035,-1,-1543
416,4.680506,1,1,1,1037,0,-1548
417,4.692105,0,1,1,1036,0,-1537
418,4.703753,0,1,1,1032,0,-1540
419,4.715432,0,1,1,1034,0,-1548
420,4.727127,1,1,0,1036,0,-1545
421,4.73882,0,1,0,1033,1,-1541
422,4.750545,0,2,1,1035,0,-1547
423,4.76237,0,1,1,1033,-3,-1547
424,4.774125,0,2,1,1038,0,-1542
425,4.785787,0,0,1,1035,-3,-1545
426,4.797557,0,1,0,1036,0,-1550
427,4.809242,0,1,1,1033,0,-1550
428,4.820827,0,1,1,1034,1,-1545
429,4.832407,0,2,1,1034,0,-1548
430,4.84398,0,1,1,1036,0,-1542
431,4.855537,0,1,1,1035,1,-1555
432,4.867082,0,1,0,1036,0,-1552
433,4.878637,0,1,1,1031,0,-1545
434,4.890199,0,1,1,1034,3,-1544
435,4.90181,0,1,1,1032,4,-1546
436,4.913449,1,0,1,1035,2,-1543
437,4.925156,1,1,1,1030,1,-1544
438,4.936816,0,0,1,1037,4,-1548
439,4.948492,0,1,2,1036,-1,-1542
440,4.960122,1,1,1,1037,-1,-1542
441,4.97176,0,1,1,1027,-1,-1548
442,4.983402,0,0,1,1033,0,-1543
443,4.995078,0,2,0,1033,1,-1541
444,5.006729,0,1,0,1036,0,-1547
445,5.018405,-1,2,1,1033,0,-1548
446,5.029987,1,2,1,1037,1,-1541
447,5.041548,1,1,1,1033,-3,-1551
448,5.053131,0,1,1,1032,1,-1544
449,5.064708,0,1,1,1035,3,-1544
450,5.076326,0,2,1,1038,-2,-1546
451,5.087912,1,2,2,1035,1,-1552
452,5.099515,0,1,2,1033,3,-1550
453,5.111085,0,0,1,1036,1,-1543
454,5.122648,0,0,1,1030,-1,-1546
455,5.134224,0,1,1,1036,2,-1553
456,5.145808,-1,1,1,1033,5,-1547
457,5.157396,0,1,1,1032,0,-1545
458,5.168952,0,2,2,1032,1,-1545
459,5.180514,0,1,2,1037,4,-1552
460,5.192096,0,1,1,1035,0,-1547
461,5.203677,0,2,1,1037,2,-1545
462,5.215354,0,0,1,1035,-1,-1551
463,5.226992,0,1,1,1037,0,-1545
464,5.238676,0,1,1,1036,-1,-1541
465,5.250335,0,1,1,1035,0,-1545
466,5.261981,0,0,2,1035,-2,-1548
467,5.273626,0,1,1,1034,1,-1542
468,5.285294,0,1,2,1035,-2,-1546
469,5.296959,0,0,1,1035,0,-1548
470,5.308627,0,2,2,1037,0,-1541
471,5.320295,0,1,1,1033,-2,-1545
472,5.331981,1,0,1,1036,0,-1546
473,5.343619,1,1,1,1035,-1,-1548
474,5.35526,0,1,1,1036,0,-1543
475,5.366928,0,1,1,1032,0,-1543
476,5.378578,1,1,1,1037,-4,-1550
477,5.390223,0,1,1,1035,-1,-1548
478,5.40187,0,0,1,1036,0,-1547
479,5.413533,1,1,1,1036,-4,-1543
480,5.425227,1,1,1,1032,-2,-1546
481,5.436903,1,1,2,1034,2,-1546
482,5.448573,0,1,2,1033,-2,-1548
483,5.460245,1,1,1,1034,-1,-1546
484,5.471967,0,1,1,1039,-2,-1548
485,5.483604,-1,1,1,1033,3,-1546
486,5.495255,0,1,1,1036,4,-1549
487,5.506939,0,1,1,1034,1,-1545
488,5.518589,0,1,1,1035,-1,-1544
489,5.530268,-1,1,1,1034,1,-1549
490,5.541936,0,1,1,1034,0,-1548
491,5.553586,0,1,1,1035,3,-1547
492,5.565257,1,0,1,1035,-1,-1543
493,5.576878,0,1,1,1042,1,-1542
494,5.588539,1,1,0,1034,4,-1539
495,5.60023,0,1,1,1037,1,-1546
496,5.611861,0,1,1,1039,3,-1550
497,5.623507,0,2,0,1034,0,-1546
498,5.635189,0,1,1,1033,1,-1545
499,5.646943,-1,1,1,1034,0,-1545
500,5.658534,0,1,1,1038,1,-1546
501,5.670125,0,1,1,1032,0,-1550
502,5.681677,0,1,1,1036,1,-1547
503,5.693265,0,0,1,1042,-3,-1543
504,5.704815,0,1,1,1033,0,-1544
505,5.716377,0,1,1,1035,3,-1552
506,5.727928,0,2,0,1036,0,-1545
507,5.739494,-1,1,1,1032,3,-1545
508,5.751169,0,1,1,1035,-1,-1540
509,5.76284,1,1,1,1036,1,-1541
510,5.774496,0,0,0,1036,-1,-1543
511,5.786172,0,1,1,1035,0,-1549
512,5.797834,0,0,0,1034,-1,-1544
513,5.809488,0,1,2,1032,0,-1544
514,5.821174,0,0,1,1036,0,-1544
515,5.832967,-1,2,1,1038,0,-1544
516,5.844999,0,0,1,1034,-1,-1547
517,5.856661,1,1,1,1034,-1,-1548
518,5.868231,1,1,1,1033,0,-1541
519,5.879851,0,1,1,1037,0,-1538
520,5.891405,0,2,0,1039,0,-1537
521,5.902957,0,0,1,1036,0,-1546
522,5.914512,0,1,2,1035,1,-1548
523,5.926062,0,0,1,1035,-6,-1549
524,5.937641,0,1,1,1035,0,-1553
525,5.949218,0,1,1,1032,2,-1555
526,5.960919,1,1,1,1030,-1,-1544
527,5.972649,0,1,1,1032,0,-1541
528,5.98431,0,1,1,1034,-2,-1547
529,5.995983,-1,1,2,1031,-1,-1549
530,6.007645,0,1,1,1035,2,-1547
531,6.019288,0,0,1,1036,3,-1543
532,6.030957,0,1,1,1037,1,-1547
533,6.04266,0,0,1,1035,3,-1550
534,6.054467,0,0,0,1031,1,-1549
535,6.066045,0,1,0,1039,0,-1549
536,6.07764,0,2,1,1034,0,-1550
537,6.089193,0,2,1,1035,-2,-1544
538,6.100756,0,1,2,1034,-1,-1543
539,6.112327,0,1,1,1030,1,-1553
540,6.123899,0,1,1,1027,1,-1540
541,6.135464,0,1,1,1033,0,-1544
542,6.147023,0,1,1,1035,-4,-1546
543,6.158569,1,2,1,1035,-6,-1549
544,6.170146,0,1,0,1034,1,-1551
545,6.18169,0,1,1,1036,0,-1549
546,6.193228,1,2,1,1035,-1,-1552
547,6.204838,0,0,2,1036,1,-1546
548,6.216398,0,1,1,1032,-3,-1551
549,6.227974,0,1,1,1034,-2,-1539
550,6.239527,0,2,1,1031,0,-1546
551,6.251108,0,1,0,1032,1,-1544
552,6.262734,1,1,0,1038,2,-1538
553,6.274409,0,1,1,1034,4,-1550
554,6.286067,0,1,1,1029,-1,-1542
555,6.297721,0,1,1,1034,0,-1550
556,6.309425,0,1,1,1033,4,-1544
557,6.32108,0,1,1,1033,0,-1545
558,6.332779,1,1,1,1033,2,-1551
559,6.344452,1,1,1,1036,2,-1540
560,6.356139,0,0,1,1037,1,-1546
561,6.367847,0,1,0,1037,0,-1546
562,6.37941,1,1,1,1036,0,-1550
563,6.39096,1,2,1,1035,-3,-1544
564,6.402507,0,1,1,1036,2,-1543
565,6.414056,1,1,1,1037,1,-1545
566,6.425638,1,1,1,1034,3,-1550
567,6.437203,0,2,1,1033,0,-1548
568,6.448777,1,1,2,1036,-3,-1544
569,6.460349,1,1,0,1031,-1,-1544
570,6.472,0,2,1,1035,0,-1545
571,6.483673,0,1,1,1030,-1,-1549
572,6.495326,0,1,1,1033,0,-1544
573,6.506979,0,1,1,1036,4,-1549
574,6.518639,0,0,1,1035,2,-1547
575,6.530295,0,1,2,1035,-1,-1544
576,6.541951,1,2,1,1033,-2,-1542
577,6.553606,1,2,1,1034,0,-1544
578,6.565281,1,2,1,1036,0,-1546
579,6.57699,0,2,0,1035,0,-1547
580,6.588655,1,1,1,1036,0,-1542
581,6.600365,0,1,1,1035,0,-1543
582,6.612028,0,1,1,1036,0,-1549
583,6.623718,0,1,1,1031,0,-1540
584,6.635379,0,0,1,1029,0,-1546
585,6.647028,1,1,1,1039,0,-1544
586,6.658703,0,1,0,1037,1,-1545
587,6.67037,0,1,1,1034,0,-1549
588,6.682036,0,1,1,1036,0,-1545
589,6.69364,0,1,2,1035,0,-1550
590,6.705204,1,1,1,1033,-5,-1548
591,6.716768,0,1,2,1033,0,-1552
592,6.728328,0,1,1,1035,1,-1546
593,6.739898,0,0,1,1036,0,-1542
594,6.751444,0,1,1,1037,0,-1547
595,6.762989,1,1,1,1034,2,-1545
596,6.774546,0,1,1,1033,1,-1543
597,6.786187,0,1,1,1032,0,-1546
598,6.797835,0,1,1,1033,1,-1550
599,6.809487,0,1,1,1040,1,-1548
600,6.821144,1,1,0,1035,4,-1542
601,6.832811,0,2,1,1031,0,-1542
602,6.844498,0,1,1,1034,0,-1544
603,6.856175,0,2,1,1035,-1,-1545
604,6.867849,0,2,0,1038,1,-1546
605,6.87951,1,1,0,1034,0,-1546
606,6.891166,0,1,2,1037,0,-1542
607,6.90276,1,1,2,1037,2,-1547
608,6.914302,0,1,0,1038,1,-1542
609,6.925842,0,1,1,1034,1,-1545
610,6.937385,0,1,1,1035,0,-1548
611,6.948998,0,1,1,1036,0,-1547
612,6.960569,0,1,0,1033,1,-1545
613,6.972091,0,0,1,1034,2,-1546
614,6.983646,0,1,1,1035,-2,-1542
615,6.995322,0,1,1,1033,4,-1541
616,7.006975,0,1,0,1036,1,-1551
617,7.018618,0,1,1,1035,0,-1550
618,7.030269,0,1,0,1033,2,-1544
619,7.041935,0,1,1,1039,3,-1543
620,7.05358,0,0,1,1029,-2,-1544
621,7.06526,0,1,1,1035,0,-1551
622,7.076913,0,1,1,1034,0,-1549
623,7.088568,1,1,1,1037,0,-1540
624,7.100236,1,0,1,1034,-3,-1546
625,7.11186,0,1,0,1033,0,-1540
626,7.123538,0,0,0,1035,-3,-1537
627,7.135199,0,0,1,1038,0,-1546
628,7.146846,1,2,1,1032,-1,-1549
629,7.158507,0,2,1,1033,3,-1541
630,7.170168,1,2,1,1039,-1,-1545
631,7.181819,1,1,1,1032,0,-1553
632,7.193484,0,1,0,1036,0,-1546
633,7.205169,1,1,1,1033,-2,-1540
634,7.216736,0,0,1,1034,0,-1548
635,7.228305,0,1,1,1034,-1,-1550
636,7.23985,0,1,0,1037,2,-1543
637,7.251398,0,1,1,1029,1,-1552
638,7.26295,0,1,1,1035,-1,-1542
639,7.274509,1,1,1,1033,1,-1545
640,7.286049,0,1,1,1035,0,-1547
641,7.297601,0,1,1,1036,0,-1543
642,7.309246,1,1,1,1030,0,-1548
643,7.320943,0,1,1,1035,1,-1546
644,7.332643,0,1,1,1034,-2,-1545
645,7.344307,0,1,2,1033,0,-1553
646,7.355981,0,1,1,1036,0,-1542
647,7.367658,0,1,1,1035,1,-1542
648,7.379312,0,0,1,1034,0,-1548
649,7.390965,0,1,1,1031,0,-1547
650,7.402621,0,1,1,1035,0,-1538
651,7.414317,0,1,1,1035,0,-1548
652,7.425894,1,1,1,1035,-2,-1546
653,7.437442,1,1,1,1034,1,-1549
654,7.449005,0,0,1,1037,0,-1543
655,7.46058,0,2,1,1033,2,-1544
656,7.472149,0,2,0,1035,0,-1542
657,7.483736,0,1,1,1031,0,-1550
658,7.49529,0,1,0,1035,2,-1556
659,7.506943,0,1,0,1035,-6,-1546
660,7.518569,0,1,1,1033,-2,-1543
661,7.53025,0,1,1,1035,3,-1537
662,7.541924,0,1,1,1033,-1,-1544
663,7.553579,0,1,1,1033,0,-1550
664,7.565288,0,1,1,1035,0,-1546
665,7.576946,1,1,0,1033,-1,-1543
666,7.588629,0,1,1,1037,-3,-1547
667,7.600311,-1,1,1,1032,1,-1543
668,7.611996,0,1,1,1035,-1,-1550
669,7.623666,0,1,1,1037,-1,-1542
670,7.635218,0,0,2,1034,0,-1556
671,7.64676,0,1,0,1037,0,-1552
672,7.658323,0,1,1,1035,-1,-1544
673,7.669887,0,1,1,1037,0,-1546
674,7.68149,0,1,1,1037,0,-1546
675,7.693047,0,1,1,1035,-2,-1548
676,7.704573,0,0,1,1032,-1,-1553
677,7.71614,0,1,1,1034,0,-1551
678,7.727801,0,1,0,1037,-1,-1542
679,7.739472,0,1,0,1034,0,-1544
680,7.751138,0,2,1,1032,0,-1549
681,7.762802,0,2,1,1033,0,-1543
682,7.774456,1,1,1,1033,1,-1548
683,7.786107,0,1,1,1038,0,-1543
684,7.797781,0,2,0,1034,0,-1548
685,7.809431,0,2,1,1034,3,-1550
686,7.821097,0,0,2,1034,2,-1547
687,7.832776,0,1,1,1035,-3,-1551
688,7.844443,1,1,1,1033,0,-1543
689,7.856125,0,1,1,1035,0,-1549
690,7.86779,0,1,2,1036,-2,-1539
691,7.879443,0,2,1,1033,1,-1545
692,7.891086,0,2,1,1037,0,-1549
693,7.902732,1,1,1,1036,-6,-1548
694,7.914396,1,0,1,1036,1,-1540
695,7.926087,0,1,1,1035,1,-1547
696,7.937767,0,1,0,1033,-1,-1547
697,7.949435,0,1,1,1038,0,-1545
698,7.96108,0,2,1,1034,1,-1544
699,7.972752,0,1,0,1038,0,-1549
700,7.984432,0,1,0,1039,0,-1544
701,7.996106,0,1,1,1035,0,-1546
702,8.007753,0,0,1,1035,-4,-1543
703,8.019422,0,1,1,1034,1,-1556
704,8.031134,0,1,1,1035,2,-1547
705,8.042789,0,1,1,1034,2,-1546
706,8.054396,0,0,1,1034,-1,-1548
707,8.065994,0,2,1,1035,0,-1549
708,8.077543,0,1,1,1038,-1,-1547
709,8.089121,0,1,1,1036,1,-1548
710,8.100705,0,1,1,1030,3,-1546
711,8.112267,0,1,1,1037,0,-1550
712,8.123834,0,1,0,1030,1,-1547
713,8.135421,0,1,1,1040,3,-1544
714,8.147104,1,2,0,1035,3,-1539
715,8.158763,0,1,1,1035,0,-1545
716,8.170438,0,2,1,1033,-1,-1543
717,8.182087,0,2,1,1035,1,-1545
718,8.193769,0,1,1,1034,0,-1546
719,8.205438,0,2,1,1031,2,-1553
720,8.217121,1,1,1,1032,0,-1553
721,8.228788,1,1,1,1036,2,-1545
722,8.240471,1,1,0,1038,2,-1549
723,8.252116,0,1,1,1034,0,-1549
724,8.26367,0,1,1,1033,6,-1548
725,8.275222,-1,1,1,1037,-3,-1543
726,8.286769,0,1,0,1035,-4,-1550
727,8.298322,0,1,0,1032,-1,-1540
728,8.309896,1,0,0,1035,-3,-1540
729,8.321485,1,0,1,1036,-1,-1548
730,8.333076,0,1,1,1038,-4,-1540
731,8.344651,0,1,1,1034,2,-1546
732,8.356305,0,1,1,1034,0,-1546
733,8.367984,0,0,1,1033,2,-1543
734,8.379636,0,1,1,1032,0,-1547
735,8.391284,0,1,1,1038,-5,-1547
736,8.402944,0,1,1,1033,0,-1548
737,8.414592,0,1,1,1029,1,-1542
738,8.426288,0,1,2,1036,3,-1547
739,8.437941,0,1,1,1035,-3,-1557
740,8.449587,0,1,1,1035,0,-1545
741,8.461137,0,1,1,1035,-2,-1545
742,8.472716,1,1,1,1036,0,-1552
743,8.484269,1,1,2,1032,2,-1548
744,8.495856,0,1,1,1033,-1,-1547
745,8.507405,1,2,1,1036,2,-1541
746,8.518988,0,1,0,1032,-1,-1542
747,8.53053,0,1,1,1035,0,-1547
748,8.542074,0,1,1,1034,-1,-1547
749,8.553637,0,0,1,1031,-4,-1550
750,8.56537,1,1,0,1032,0,-1551
751,8.577033,0,1,1,1033,6,-1547
752,8.588694,1,1,0,1036,1,-1543
753,8.600391,0,1,1,1031,2,-1544
754,8.612047,0,1,1,1034,0,-1547
755,8.623702,0,2,1,1035,0,-1548
756,8.63536,1,0,1,1033,2,-1551
757,8.64702,0,1,1,1037,1,-1542
758,8.658691,1,1,1,1034,-3,-1548
759,8.670349,0,1,1,1034,-1,-1544
760,8.681914,0,2,1,1035,-3,-1544
761,8.693494,1,1,1,1034,1,-1546
762,8.705057,0,1,1,1031,0,-1547
763,8.716614,1,2,0,1032,0,-1549
764,8.728168,-1,1,1,1035,0,-1550
765,8.73972,0,1,1,1040,0,-1546
766,8.751282,0,1,1,1031,0,-1548
767,8.762872,0,1,1,1037,-1,-1542
768,8.774555,0,1,1,1035,0,-1549
769,8.786212,0,1,1,1038,3,-1546
770,8.797902,0,1,2,1034,0,-1544
771,8.809556,0,1,1,1036,-1,-1548
772,8.821218,0,1,1,1034,0,-1544
773,8.832889,0,1,1,1036,3,-1545
774,8.84457,0,2,1,1036,0,-1536
775,8.856265,0,1,1,1034,0,-1550
776,8.867946,1,1,1,1033,0,-1542
777,8.879623,0,1,1,1032,1,-1544
778,8.891188,0,2,1,1035,0,-1544
779,8.902747,1,1,0,1035,0,-1551
780,8.914304,1,0,1,1036,-1,-1539
781,8.925878,0,1,1,1036,0,-1547
782,8.937425,1,2,2,1034,-1,-1543
783,8.948986,0,2,1,1037,0,-1538
784,8.960571,1,1,2,1036,0,-1547
785,8.972112,1,2,1,1034,-3,-1547
786,8.983852,1,1,1,1036,0,-1542
787,8.995531,0,1,1,1040,3,-1546
788,9.007188,0,1,0,1036,4,-1551
789,9.01884,1,1,1,1039,1,-1549
790,9.030512,0,2,1,1036,0,-1545
791,9.042162,1,2,0,1035,-2,-1551
792,9.053818,0,1,2,1035,1,-1541
793,9.065473,0,1,1,1032,2,-1543
794,9.077169,1,1,1,1033,3,-1548
795,9.088826,0,2,1,1037,4,-1551
796,9.100518,0,1,1,1035,-1,-1537
797,9.112185,0,2,2,1032,0,-1547
798,9.123858,0,1,1,1037,3,-1546
799,9.135509,0,1,1,1030,1,-1545
800,9.147191,0,0,1,1036,3,-1544
801,9.158892,0,1,1,1035,0,-1545
802,9.170647,0,1,1,1034,1,-1548
803,9.1823,0,1,1,1037,-3,-1539
804,9.193867,0,1,0,1033,0,-1546
805,9.205416,0,1,1,1035,0,-1545
806,9.217014,-1,2,1,1033,-1,-1545
807,9.228574,1,1,1,1031,-5,-1544
808,9.240093,0,0,1,1033,-2,-1543
809,9.251639,0,1,1,1028,2,-1542
810,9.263184,0,0,1,1034,-1,-1549
811,9.274728,0,1,1,1034,2,-1542
812,9.286291,0,1,1,1034,-1,-1548
813,9.297913,0,1,1,1039,2,-1543
814,9.309569,0,1,1,1034,-2,-1548
815,9.321237,0,1,1,1040,0,-1540
816,9.332894,0,1,1,1032,0,-1547
817,9.344554,0,1,1,1034,1,-1548
818,9.356253,0,1,1,1035,1,-1545
819,9.367913,0,1,1,1030,-2,-1543
820,9.379561,0,0,1,1033,1,-1544
821,9.391225,1,1,1,1031,1,-1544
822,9.402885,1,1,1,1032,2,-1550
823,9.414498,0,0,1,1031,4,-1546
824,9.426056,1,1,1,1034,-3,-1537
825,9.437615,0,1,0,1032,-3,-1545
826,9.449213,0,1,1,1032,0,-1545
827,9.46077,0,1,1,1037,0,-1545
828,9.472341,0,0,1,1035,-2,-1549
829,9.48389,0,1,1,1033,0,-1544
830,9.495444,0,1,1,1033,-6,-1538
831,9.507065,0,2,1,1037,-1,-1549
832,9.518708,0,0,1,1034,0,-1540
833,9.530387,0,1,0,1036,-1,-1544
834,9.54205,-1,1,0,1037,1,-1547
835,9.553693,0,1,1,1036,1,-1545
836,9.565346,0,1,1,1034,0,-1539
837,9.577032,0,1,0,1035,-1,-1537
838,9.588696,1,0,1,1035,3,-1550
839,9.600374,0,0,1,1033,-1,-1545
840,9.61204,1,1,1,1035,2,-1543
841,9.623617,0,2,1,1032,-1,-1547
842,9.635176,1,1,0,1034,0,-1545
843,9.646738,0,1,1,1034,0,-1542
844,9.658281,0,1,0,1031,0,-1547
845,9.669822,0,2,2,1040,0,-1550
846,9.681375,0,1,1,1035,2,-1539
847,9.692957,0,1,1,1031,-3,-1544
848,9.704519,0,0,1,1034,0,-1549
849,9.716122,1,1,1,1033,-1,-1542
850,9.727784,0,1,1,1036,0,-1549
851,9.739435,0,0,1,1039,2,-1540
852,9.751087,0,1,1,1034,4,-1544
853,9.762757,0,1,1,1033,2,-1545
854,9.774419,0,1,0,1035,0,-1546
855,9.786065,0,1,1,1037,0,-1544
856,9.797715,-1,1,0,1035,-1,-1545
857,9.809408,-1,1,0,1033,0,-1545
858,9.821069,0,1,1,1035,0,-1548
859,9.832761,1,1,0,1032,0,-1553
860,9.844427,0,0,1,1031,-1,-1545
861,9.85612,0,1,1,1033,1,-1550
862,9.867781,0,1,1,1036,2,-1550
863,9.879429,0,1,1,1035,-1,-1549
864,9.891076,0,1,0,1032,2,-1546
865,9.90277,0,1,2,1037,-3,-1545
866,9.914458,0,1,1,1033,-1,-1551
867,9.926129,0,1,1,1034,-2,-1543
868,9.937784,0,1,1,1032,-1,-1551
869,9.949437,0,1,1,1036,1,-1553
870,9.961136,0,1,1,1031,1,-1546
871,9.972801,0,1,1,1038,1,-1538
872,9.984454,0,1,1,1033,-3,-1550
873,9.996114,0,2,0,1033,1,-1545
874,10.007772,0,1,1,1034,0,-1539
875,10.019494,0,1,1,1031,0,-1550
876,10.03118,0,2,2,1034,-1,-1541
877,10.042743,0,1,1,1034,-1,-1541
878,10.054331,0,1,1,1037,2,-1546
879,10.065887,0,1,1,1035,-2,-1549
880,10.077468,1,2,1,1031,2,-1545
881,10.089041,0,1,1,1030,-4,-1550
882,10.100575,0,0,1,1031,0,-1543
883,10.112093,0,0,2,1034,-1,-1545
884,10.123655,0,0,1,1032,-1,-1548
885,10.13528,0,1,1,1039,0,-1545
886,10.146937,1,1,1,1036,-1,-1547
887,10.158597,0,0,0,1037,0,-1539
888,10.170271,0,1,2,1037,-2,-1547
889,10.181934,0,1,1,1036,1,-1545
890,10.193716,1,1,1,1037,-4,-1548
891,10.205418,1,1,1,1034,1,-1543
892,10.217077,0,1,0,1037,2,-1551
893,10.228775,0,0,2,1036,0,-1543
894,10.240441,0,1,1,1035,2,-1545
895,10.252012,0,1,1,1035,2,-1548
896,10.263597,0,2,1,1035,0,-1543
897,10.275162,0,1,1,1031,1,-1542
898,10.286706,0,1,1,1036,0,-1546
899,10.298253,1,1,1,1034,0,-1547
900,10.309799,1,1,1,1034,0,-1546
901,10.321342,0,1,1,1035,-1,-1549
902,10.332927,0,1,1,1033,0,-1548
903,10.344554,0,1,1,1036,-5,-1550
904,10.356251,0,0,1,1035,-1,-1545
905,10.367911,0,1,1,1037,0,-1548
906,10.379561,0,2,1,1036,2,-1543
907,10.391229,0,2,1,1038,-1,-1545
908,10.402901,0,1,0,1035,-5,-1548
909,10.414557,0,1,1,1033,-1,-1542
910,10.426213,0,1,1,1037,1,-1545
911,10.437909,0,0,1,1034,-1,-1546
912,10.449556,0,1,2,1034,0,-1547
913,10.461122,0,1,0,1035,5,-1539
914,10.472691,0,2,1,1034,0,-1545
915,10.484244,1,1,1,1034,-1,-1539
916,10.495846,0,1,1,1036,0,-1543
917,10.507399,0,1,1,1034,-3,-1544
918,10.518975,0,0,0,1031,3,-1544
919,10.530517,-1,1,1,1036,3,-1539
920,10.542074,0,0,1,1038,0,-1557
921,10.553699,0,0,1,1031,-1,-1544
922,10.565385,1,1,1,1035,-2,-1543
923,10.577055,0,1,1,1036,0,-1548
924,10.588717,0,0,0,1035,0,-1551
925,10.600381,-1,1,1,1035,0,-1545
926,10.612039,0,1,1,1035,-3,-1546
927,10.623693,0,1,0,1035,2,-1543
928,10.63534,1,1,1,1032,0,-1551
929,10.647037,0,1,1,1034,-4,-1547
930,10.658691,0,0,1,1035,-2,-1537
931,10.67026,0,1,1,1034,-1,-1542
932,10.681858,0,1,1,1030,-1,-1546
933,10.693408,0,1,0,1035,-3,-1555
934,10.705017,0,1,0,1034,0,-1540
935,10.716576,0,1,0,1034,0,-1546
936,10.728135,-1,1,1,1033,1,-1546
937,10.739683,0,1,1,1032,-2,-1548
938,10.751291,0,1,2,1036,2,-1550
939,10.763135,0,1,1,1034,1,-1546
940,10.774828,0,0,1,1034,-3,-1550
941,10.786503,0,1,1,1038,-1,-1547
942,10.798153,1,1,1,1028,3,-1539
943,10.809812,1,2,1,1034,1,-1548
944,10.82149,1,1,0,1033,0,-1546
945,10.833149,0,0,1,1034,-2,-1539
946,10.844814,1,1,1,1036,0,-1539
947,10.856509,1,1,0,1033,-3,-1542
948,10.868102,0,1,1,1039,-2,-1545
949,10.879677,0,2,1,1039,2,-1542
950,10.891236,0,1,1,1034,2,-1544
951,10.902789,1,1,1,1036,-1,-1549
952,10.914356,0,1,1,1035,0,-1543
953,10.925899,0,1,1,1037,-2,-1546
954,10.937446,0,1,1,1032,1,-1549
955,10.948998,1,1,2,1036,0,-1549
956,10.960599,1,1,1,1034,2,-1549
957,10.972279,0,1,1,1033,-1,-1541
958,10.983934,0,1,1,1038,-3,-1545
959,10.995599,-1,1,0,1037,1,-1551
960,11.007264,0,1,0,1032,-3,-1545
961,11.018963,0,2,1,1036,1,-1546
962,11.030639,0,1,0,1034,0,-1549
963,11.042289,1,1,0,1036,1,-1545
964,11.053952,0,1,1,1039,0,-1543
965,11.065683,0,1,0,1034,0,-1549
966,11.077327,1,1,0,1038,1,-1542
967,11.089017,0,1,1,1033,0,-1549
968,11.100682,0,2,0,1034,1,-1548
969,11.112357,0,0,1,1033,0,-1545
970,11.124028,0,0,1,1034,4,-1548
971,11.135682,0,2,1,1035,-1,-1546
972,11.147327,0,1,1,1036,0,-1543
973,11.159048,0,1,1,1034,2,-1546
974,11.170735,1,1,0,1038,1,-1549
975,11.182306,0,2,0,1036,0,-1549
976,11.193867,1,1,1,1034,0,-1545
977,11.205421,1,1,1,1034,-3,-1542
978,11.217113,0,1,1,1031,0,-1548
979,11.228832,0,1,1,1035,-1,-1541
980,11.240396,0,0,1,1034,1,-1544
981,11.251978,0,1,1,1035,4,-1547
982,11.263559,0,1,1,1033,1,-1544
983,11.275127,1,1,2,1039,1,-1543
984,11.286728,1,2,0,1036,-1,-1543
985,11.298286,0,1,1,1041,1,-1546
986,11.309856,0,1,1,1033,0,-1548
987,11.321401,0,1,0,1037,0,-1549
988,11.332969,0,1,1,1035,1,-1541
989,11.344531,2,1,0,1036,0,-1548
990,11.356096,1,1,0,1030,3,-1553
991,11.367749,0,2,1,1036,0,-1549
992,11.379433,0,1,0,1035,0,-1541
993,11.391113,-1,2,1,1032,2,-1547
994,11.402794,0,1,1,1038,-2,-1544
995,11.414445,0,1,1,1030,2,-1543
996,11.426134,1,1,1,1031,0,-1547
997,11.437813,0,1,0,1034,0,-1545
998,11.449462,1,2,1,1036,-1,-1547
999,11.461151,0,1,0,1035,-2,-1556
1000,11.472831,0,0,1,1036,2,-1549
1001,11.484516,0,1,1,1037,-2,-1547
1002,11.496102,0,0,1,1036,0,-1549
1003,11.507649,0,1,1,1034,-2,-1552
1004,11.519197,0,0,1,1033,0,-1541
1005,11.530744,1,0,2,1033,0,-1544
1006,11.542293,0,1,1,1032,0,-1548
1007,11.553855,0,1,2,1039,0,-1551
1008,11.565433,0,1,1,1038,-1,-1544
1009,11.577002,0,1,0,1035,0,-1550
1010,11.588642,0,1,1,1034,-3,-1545
1011,11.600311,0,1,1,1036,3,-1551
1012,11.611993,0,1,0,1035,0,-1542
1013,11.623663,0,1,0,1032,0,-1547
1014,11.635325,1,1,1,1037,2,-1547
1015,11.646972,0,2,1,1033,5,-1550
1016,11.658651,1,1,1,1032,-1,-1547
1017,11.670309,0,1,1,1033,0,-1545
1018,11.681977,0,1,0,1034,2,-1545
1019,11.693664,0,1,0,1037,0,-1545
1020,11.70523,0,1,1,1032,3,-1545
1021,11.716805,0,0,1,1032,4,-1548
1022,11.728354,0,1,1,1035,-2,-1551
1023,11.739915,0,0,0,1036,2,-1546
1024,11.751493,0,1,1,1035,1,-1543
1025,11.763051,0,1,1,1037,-3,-1548
1026,11.774599,1,1,1,1034,0,-1542
1027,11.78614,0,1,2,1033,0,-1546
1028,11.797781,0,2,1,1032,0,-1547
1029,11.809449,0,1,1,1033,-3,-1545
1030,11.821139,0,2,1,1035,3,-1551
1031,11.8328,0,1,0,1035,2,-1553
1032,11.844448,-1,1,0,1034,0,-1545
1033,11.856129,1,1,1,1033,0,-1543
1034,11.867774,0,2,1,1040,1,-1543
1035,11.879422,0,1,1,1035,0,-1550
1036,11.891064,1,1,2,1034,-1,-1544
1037,11.902613,0,1,1,1034,1,-1543
1038,11.914157,0,1,1,1037,2,-1544
1039,11.925698,0,2,2,1033,0,-1543
1040,11.93725,0,2,1,1031,-1,-1547
1041,11.94884,1,1,1,1035,0,-1549
1042,11.960398,0,1,1,1030,1,-1548
1043,11.971977,1,1,2,1033,0,-1545
1044,11.98355,0,0,1,1033,-1,-1548
1045,11.995113,0,1,1,1033,0,-1545
1046,12.006759,0,0,1,1034,-2,-1550
1047,12.018413,1,1,0,1033,0,-1553
1048,12.030056,0,1,2,1034,0,-1548
1049,12.041706,0,1,2,1038,0,-1554
1050,12.053396,0,1,1,1035,1,-1548
1051,12.065049,0,1,1,1035,0,-1548
1052,12.076702,0,1,2,1035,0,-1543
1053,12.088382,0,2,1,1031,0,-1549
1054,12.100042,0,1,0,1035,-2,-1550
1055,12.111722,1,1,1,1032,-1,-1542
1056,12.123316,0,2,1,1033,-2,-1546
1057,12.134864,0,1,1,1029,0,-1541
1058,12.146408,0,1,0,1034,0,-1548
1059,12.157966,0,2,1,1033,2,-1545
1060,12.169522,0,1,1,1034,0,-1542
1061,12.181079,0,1,1,1035,-1,-1549
1062,12.192645,1,2,1,1037,0,-1546
1063,12.204246,0,1,1,1034,0,-1536
1064,12.21587,-1,1,1,1032,-1,-1547
1065,12.227536,0,1,1,1032,0,-1545
1066,12.239193,0,1,1,1039,0,-1549
1067,12.250859,0,1,1,1034,-1,-1544
1068,12.262526,0,2,1,1036,-3,-1546
1069,12.274169,0,2,1,1039,-2,-1544
1070,12.28582,0,1,1,1033,-1,-1547
1071,12.29749,0,1,1,1032,0,-1545
1072,12.30915,0,1,0,1030,0,-1546
1073,12.32082,0,1,1,1037,0,-1547
1074,12.332404,1,2,1,1032,-1,-1541
1075,12.343992,0,1,1,1036,0,-1546
1076,12.355578,0,0,1,1037,0,-1542
1077,12.367124,0,0,1,1032,1,-1545
1078,12.378675,0,1,1,1034,-2,-1547
1079,12.390225,0,0,1,1036,0,-1546
1080,12.401774,0,2,0,1038,-3,-1550
1081,12.413339,1,1,1,1032,0,-1553
1082,12.425041,1,1,1,1032,2,-1547
1083,12.436704,0,1,1,1034,-1,-1546
1084,12.448387,-1,1,0,1035,1,-1541
1085,12.460096,0,1,1,1032,-1,-1542
1086,12.471915,0,0,1,1036,1,-1548
1087,12.483589,0,1,1,1037,-1,-1552
1088,12.495287,0,1,1,1034,0,-1543
1089,12.506959,0,1,1,1036,1,-1549
1090,12.518659,0,1,0,1033,-2,-1550
1091,12.530369,0,1,1,1035,-1,-1550
1092,12.541963,0,0,2,1030,2,-1547
1093,12.55353,0,1,0,1031,3,-1545
1094,12.565059,1,1,1,1034,-2,-1544
1095,12.576573,1,2,0,1034,-1,-1548
1096,12.588093,0,2,0,1034,-1,-1542
1097,12.599636,1,0,1,1031,-4,-1542
1098,12.611181,1,1,0,1029,-1,-1544
1099,12.622744,0,1,1,1034,1,-1555
1100,12.634383,0,0,0,1039,-2,-1551
1101,12.646036,-1,0,1,1035,-2,-1551
1102,12.657686,0,2,1,1033,-3,-1545
1103,12.669323,0,1,1,1034,-1,-1544
1104,12.681009,0,1,2,1033,1,-1549
1105,12.692638,1,1,1,1032,-2,-1546
1106,12.704289,1,2,1,1034,0,-1543
1107,12.715938,0,1,0,1034,2,-1551
1108,12.72763,0,0,1,1037,3,-1544
1109,12.739279,0,1,2,1033,2,-1545
1110,12.75085,0,1,1,1034,2,-1551
1111,12.762443,0,1,0,1032,0,-1545
1112,12.774005,0,1,1,1033,2,-1546
1113,12.785564,-1,1,1,1036,0,-1547
1114,12.797127,0,1,1,1029,-1,-1545
1115,12.808717,0,1,1,1039,0,-1543
1116,12.820275,0,1,0,1031,0,-1545
1117,12.831867,0,1,1,1040,0,-1549
1118,12.843522,0,2,1,1032,-2,-1546
1119,12.855182,0,1,1,1033,0,-1546
1120,12.866886,1,1,1,1031,3,-1543
1121,12.878537,0,0,2,1035,2,-1539
1122,12.890184,-1,1,2,1032,0,-1548
1123,12.901859,0,1,1,1036,-2,-1548
1124,12.913512,1,1,1,1030,-2,-1555
1125,12.925165,0,0,1,1036,1,-1544
1126,12.936828,1,1,2,1036,0,-1546
1127,12.948392,0,1,1,1035,0,-1544
1128,12.959978,0,1,1,1036,0,-1545
1129,12.971549,0,1,1,1035,-3,-1550
1130,12.983087,0,0,0,1036,-2,-1545
1131,12.99463,1,1,0,1036,-2,-1543
1132,13.006216,0,2,1,1033,2,-1549
1133,13.01777,0,0,1,1034,0,-1545
1134,13.029328,1,0,1,1033,1,-1543
1135,13.040889,0,0,1,1028,2,-1545
1136,13.052525,0,1,0,1036,0,-1550
1137,13.06418,0,1,1,1033,0,-1546
1138,13.075865,0,1,1,1032,-4,-1547
1139,13.08752,0,1,1,1034,0,-1544
1140,13.099157,1,0,1,1032,1,-1549
1141,13.110804,0,1,0,1035,3,-1540
1142,13.122473,1,1,1,1037,-2,-1540
1143,13.13412,0,0,1,1036,-2,-1547
1144,13.145777,-1,1,1,1034,2,-1546
1145,13.157429,0,2,0,1033,-2,-1544
1146,13.169093,0,1,1,1036,0,-1545
1147,13.180768,0,1,1,1035,1,-1551
1148,13.192421,1,0,1,1036,0,-1544
1149,13.204101,0,1,0,1036,0,-1541
1150,13.215752,0,1,1,1035,0,-1549
1151,13.227394,0,2,1,1033,1,-1536
1152,13.23908,0,1,2,1032,6,-1544
1153,13.250766,0,1,2,1034,-3,-1541
1154,13.262416,1,1,1,1036,0,-1548
1155,13.274076,0,1,0,1035,3,-1546
1156,13.285766,-1,1,0,1034,-2,-1548
1157,13.297443,-1,1,0,1034,1,-1545
1158,13.309118,-1,1,1,1035,3,-1546
1159,13.320769,0,1,1,1036,2,-1544
1160,13.332427,0,1,1,1035,-2,-1554
1161,13.344091,0,1,1,1037,0,-1548
1162,13.355818,1,1,1,1033,2,-1547
1163,13.367498,0,1,1,1038,1,-1546
1164,13.379079,0,1,1,1036,3,-1544
1165,13.390624,1,0,1,1035,0,-1538
1166,13.402185,1,1,0,1035,0,-1551
1167,13.41376,0,1,1,1029,-2,-1543
1168,13.425308,0,1,0,1032,5,-1551
1169,13.436871,1,1,1,1031,3,-1546
1170,13.448461,0,0,0,1035,2,-1548
1171,13.46003,0,1,1,1032,0,-1548
1172,13.471655,-1,1,1,1033,1,-1546
1173,13.483323,1,1,1,1032,-3,-1548
1174,13.494982,0,1,0,1034,-2,-1548
1175,13.50664,0,1,1,1037,0,-1553
1176,13.518293,0,1,1,1035,0,-1547
1177,13.529982,1,1,1,1035,-1,-1548
1178,13.541636,1,1,1,1036,0,-1545
1179,13.5533,0,1,1,1040,-2,-1553
1180,13.564994,1,1,1,1032,3,-1543
1181,13.576636,0,1,0,1032,1,-1541
1182,13.58822,0,1,1,1039,6,-1543
1183,13.599772,0,1,1,1033,-3,-1543
1184,13.611348,0,1,0,1035,-2,-1548
1185,13.622948,0,2,1,1034,3,-1547
1186,13.634501,0,1,1,1033,1,-1547
1187,13.646078,0,2,1,1038,2,-1549
1188,13.657625,1,1,0,1035,-1,-1547
1189,13.669218,0,1,0,1035,0,-1543
1190,13.680905,1,1,1,1035,0,-1548
1191,13.692569,0,1,0,1034,1,-1540
1192,13.704267,0,1,1,1034,2,-1553
1193,13.715921,0,2,1,1039,0,-1547
1194,13.727587,0,1,1,1034,-1,-1551
1195,13.739262,0,2,1,1034,-1,-1551
1196,13.750916,0,0,1,1033,-2,-1542
1197,13.762573,1,1,1,1034,0,-1545
1198,13.774232,0,2,1,1037,-1,-1546
1199,13.785828,-1,1,1,1033,0,-1544
1200,13.797374,0,1,1,1034,0,-1545
1201,13.808946,1,1,1,1034,0,-1549
1202,13.820509,0,1,2,1033,-1,-1556
1203,13.832137,0,2,0,1031,0,-1546
1204,13.843741,1,1,1,1036,-1,-1543
1205,13.855319,0,1,2,1033,2,-1551
1206,13.866879,0,1,1,1035,-3,-1545
1207,13.878459,0,1,1,1033,1,-1542
1208,13.890137,1,1,1,1030,1,-1545
1209,13.901795,0,0,1,1035,1,-1543
1210,13.91345,1,1,1,1034,0,-1545
1211,13.925157,0,1,1,1037,0,-1548
1212,13.936821,0,1,0,1036,2,-1549
1213,13.948509,0,1,1,1033,-1,-1548
1214,13.960172,0,1,1,1035,1,-1548
1215,13.971863,0,1,0,1033,-6,-1544
1216,13.983575,0,1,2,1035,0,-1548
1217,13.995245,0,1,1,1033,-1,-1547
1218,14.006902,1,2,0,1034,0,-1548
1219,14.018567,1,1,1,1033,-4,-1549
1220,14.030248,1,1,1,1038,1,-1542
1221,14.041907,0,1,1,1037,0,-1545
1222,14.053553,0,1,2,1034,0,-1545
1223,14.06521,0,1,1,1034,0,-1542
1224,14.076928,0,0,1,1034,-3,-1541
1225,14.088623,0,0,1,1034,0,-1546
1226,14.100282,0,1,1,1035,-2,-1547
1227,14.111978,0,2,2,1036,-3,-1544
1228,14.123633,0,1,1,1033,-1,-1545
1229,14.13528,1,1,1,1034,0,-1539
1230,14.146942,0,1,1,1035,2,-1544
1231,14.158605,0,2,0,1034,-6,-1552
1232,14.170257,0,0,1,1032,0,-1548
1233,14.181943,0,2,1,1034,-1,-1545
1234,14.193601,0,1,1,1039,2,-1545
1235,14.205279,0,1,1,1031,0,-1544
1236,14.216951,1,0,1,1032,0,-1549
1237,14.228635,1,1,1,1038,3,-1548
1238,14.240293,1,1,2,1035,2,-1546
1239,14.251989,1,2,1,1035,-3,-1549
1240,14.263641,0,1,1,1036,1,-1541
1241,14.275293,0,2,2,1035,-3,-1542
1242,14.286961,0,1,1,1034,1,-1544
1243,14.298661,1,1,1,1032,-4,-1548
1244,14.310215,0,0,0,1035,-1,-1544
1245,14.321766,0,1,1,1033,-2,-1545
1246,14.33331,0,1,1,1033,0,-1542
1247,14.344884,0,1,1,1036,0,-1549
1248,14.35645,0,1,1,1035,1,-1546
1249,14.368014,-1,1,0,1032,-2,-1546
1250,14.379571,0,1,1,1033,-1,-1544
1251,14.391129,1,1,0,1033,-1,-1542
1252,14.402768,0,1,1,1037,1,-1546
1253,14.414427,0,1,1,1035,2,-1548
1254,14.426084,1,1,1,1035,0,-1541
1255,14.437766,0,1,1,1038,-1,-1541
1256,14.449419,0,1,1,1033,-4,-1547
1257,14.461067,0,1,1,1037,-4,-1544
1258,14.472741,1,1,0,1036,-1,-1547
1259,14.484375,0,1,1,1036,0,-1554
1260,14.49603,0,0,0,1034,0,-1549
1261,14.507703,-1,1,1,1031,5,-1543
1262,14.519304,0,1,0,1035,0,-1542
1263,14.530855,1,1,2,1032,0,-1549
1264,14.542451,1,1,1,1029,1,-1544
1265,14.554004,1,1,1,1033,-5,-1545
1266,14.565567,1,1,1,1035,-2,-1546
1267,14.577115,0,1,1,1034,-1,-1545
1268,14.588695,0,0,1,1031,3,-1550
1269,14.600264,0,2,2,1036,1,-1543
1270,14.611866,1,2,1,1033,-4,-1550
1271,14.62352,0,1,1,1034,1,-1545
1272,14.635173,0,2,1,1031,-2,-1542
1273,14.646846,0,1,0,1033,0,-1542
1274,14.658502,0,1,1,1034,3,-1540
1275,14.670163,0,0,1,1034,0,-1547
1276,14.681849,0,1,2,1027,-1,-1548
1277,14.693514,0,0,1,1036,0,-1551
1278,14.705167,1,1,1,1033,-4,-1540
1279,14.716864,0,0,1,1034,-2,-1542
1280,14.728458,0,1,2,1036,-3,-1542
1281,14.740024,0,1,1,1035,-1,-1543
1282,14.751569,0,1,1,1033,2,-1547
1283,14.763114,0,1,1,1033,-1,-1541
1284,14.774679,0,1,1,1038,0,-1548
1285,14.786229,1,1,1,1036,0,-1540
1286,14.797806,1,1,2,1037,-2,-1545
1287,14.809363,0,1,1,1035,-1,-1543
1288,14.821065,0,1,0,1036,3,-1543
1289,14.832758,0,1,2,1033,0,-1547
1290,14.844435,0,1,1,1036,4,-1550
1291,14.856121,0,1,1,1033,1,-1542
1292,14.86777,1,1,1,1033,1,-1545
1293,14.879419,0,0,0,1036,-1,-1555
1294,14.891089,0,1,1,1033,-2,-1544
1295,14.902742,0,1,0,1038,0,-1546
1296,14.914408,0,1,1,1036,0,-1549
1297,14.926066,0,1,1,1035,-1,-1543
1298,14.937624,0,1,1,1039,0,-1548
1299,14.949194,0,1,1,1034,1,-1547
1300,14.960766,0,1,1,1036,0,-1546
1301,14.972336,1,1,1,1036,-2,-1548
1302,14.983851,0,1,1,1036,2,-1545
1303,14.995396,0,0,1,1037,1,-1543
1304,15.006941,0,1,2,1033,0,-1549
1305,15.018509,1,1,2,1035,-1,-1536
1306,15.030133,1,1,1,1028,3,-1545
1307,15.041787,1,1,1,1035,1,-1543
1308,15.053437,0,1,1,1034,0,-1542
1309,15.065131,0,0,1,1033,-3,-1545
1310,15.076788,0,2,1,1035,0,-1551
1311,15.088498,0,1,1,1036,1,-1548
1312,15.100123,0,1,1,1035,3,-1548
1313,15.111767,0,1,1,1035,-4,-1548
1314,15.123426,0,1,0,1037,0,-1541
1315,15.135085,0,2,0,1033,0,-1541
1316,15.14671,0,1,1,1033,1,-1547
1317,15.15828,0,1,1,1037,-1,-1545
1318,15.169833,1,1,1,1037,0,-1542
1319,15.181376,0,1,1,1036,0,-1545
1320,15.192941,1,1,2,1032,-1,-1547
1321,15.204492,0,1,1,1037,0,-1537
1322,15.216085,0,1,1,1033,0,-1545
1323,15.227677,0,1,1,1037,1,-1535
1324,15.239298,1,1,1,1035,0,-1546
1325,15.250971,0,1,0,1034,0,-1545
1326,15.262615,-1,1,1,1033,1,-1550
1327,15.274264,-1,0,1,1035,-3,-1549
1328,15.285926,0,1,2,1038,0,-1546
1329,15.297605,0,1,1,1038,-2,-1543
1330,15.309282,0,1,1,1029,-1,-1541
1331,15.320961,1,0,1,1035,2,-1541
1332,15.332648,0,1,1,1032,-1,-1543
1333,15.344324,1,2,1,1036,-1,-1542
1334,15.355853,0,1,0,1036,2,-1549
1335,15.367401,0,1,1,1033,1,-1545
1336,15.37896,0,2,1,1035,-5,-1546
1337,15.390534,0,1,1,1032,-2,-1547
1338,15.402094,1,1,2,1030,5,-1547
1339,15.413697,0,1,1,1035,0,-1547
1340,15.425264,0,1,1,1034,0,-1540
1341,15.43683,0,0,1,1032,0,-1545
1342,15.448463,0,1,1,1037,0,-1548
1343,15.46012,1,1,2,1033,0,-1549
1344,15.471774,1,1,1,1034,0,-1548
1345,15.483443,0,1,1,1036,0,-1550
1346,15.495106,1,1,1,1034,0,-1550
1347,15.506757,1,1,1,1032,-2,-1538
1348,15.518433,1,1,1,1035,0,-1549
1349,15.530103,1,1,1,1036,1,-1550
1350,15.541767,0,1,1,1032,2,-1545
1351,15.553433,1,0,1,1035,0,-1547
1352,15.564989,0,1,0,1034,0,-1544
1353,15.576574,0,1,1,1032,-1,-1545
1354,15.588093,0,1,0,1032,0,-1538
1355,15.599636,0,1,1,1034,2,-1542
1356,15.611179,0,1,1,1035,0,-1544
1357,15.622725,1,1,1,1034,0,-1551
1358,15.634296,0,1,1,1037,-1,-1547
1359,15.645859,1,2,1,1032,-1,-1545
1360,15.657481,0,1,1,1039,0,-1541
1361,15.669149,0,0,1,1032,0,-1548
1362,15.680797,1,1,0,1036,-2,-1548
1363,15.692446,1,1,1,1036,1,-1544
1364,15.704122,1,2,1,1037,0,-1543
1365,15.71576,0,1,1,1033,0,-1544
1366,15.727405,1,0,1,1033,1,-1550
1367,15.739069,0,1,0,1032,-1,-1546
1368,15.750722,0,0,1,1032,-2,-1547
1369,15.76233,0,1,1,1036,0,-1546
1370,15.773941,0,2,1,1034,-1,-1550
1371,15.785497,0,1,1,1036,-1,-1548
1372,15.79706,0,1,1,1036,0,-1548
1373,15.808574,0,1,2,1035,-2,-1551
1374,15.820195,0,2,1,1035,1,-1547
1375,15.831771,0,1,1,1032,-2,-1546
1376,15.843321,0,1,0,1032,-4,-1542
1377,15.854884,1,1,1,1036,0,-1543
1378,15.866507,0,1,2,1030,-1,-1543
1379,15.878153,1,1,1,1036,0,-1543
1380,15.889854,1,1,1,1037,0,-1549
1381,15.901509,1,1,0,1033,-2,-1539
1382,15.913143,1,1,1,1033,-1,-1543
1383,15.924803,0,1,1,1033,2,-1545
1384,15.936506,0,0,1,1031,0,-1549
1385,15.94816,0,1,1,1033,1,-1549
1386,15.959877,1,1,1,1032,-5,-1549
1387,15.97153,0,1,1,1035,1,-1545
1388,15.983091,0,1,2,1033,0,-1549
1389,15.994673,0,1,1,1039,2,-1550
1390,16.006216,-1,1,0,1033,0,-1541
1391,16.01776,0,1,2,1035,2,-1550
1392,16.029311,0,1,1,1034,0,-1541
1393,16.040862,0,1,1,1038,1,-1542
1394,16.052413,0,1,1,1031,2,-1545
1395,16.063983,0,1,0,1034,2,-1546
1396,16.075612,-1,1,0,1035,-2,-1551
1397,16.087253,0,1,2,1034,0,-1548
1398,16.0989,0,1,1,1029,2,-1546
1399,16.110564,0,1,1,1033,0,-1539
1400,16.122222,0,1,1,1034,-1,-1548
1401,16.133868,0,1,1,1035,-2,-1552
1402,16.145517,0,1,1,1034,0,-1544
1403,16.157149,0,2,1,1035,0,-1546
1404,16.168815,0,0,1,1036,4,-1549
1405,16.180504,0,1,1,1032,-1,-1540
1406,16.192195,0,1,0,1033,0,-1543
1407,16.203862,0,1,1,1032,0,-1548
1408,16.215507,0,1,1,1032,0,-1546
1409,16.227155,0,0,0,1034,0,-1542
1410,16.2388,0,0,1,1034,0,-1545
1411,16.250458,1,0,1,1037,-3,-1549
1412,16.262136,0,0,1,1035,3,-1551
1413,16.273784,0,1,0,1033,-1,-1541
1414,16.285453,0,1,1,1033,-1,-1549
1415,16.297149,0,1,1,1034,0,-1543
1416,16.308834,0,1,0,1033,0,-1540
1417,16.32051,0,1,0,1034,2,-1549
1418,16.332187,0,1,1,1033,1,-1549
1419,16.343854,0,1,1,1035,-1,-1548
1420,16.355506,0,1,1,1034,0,-1547
1421,16.367156,0,2,1,1030,0,-1542
1422,16.378797,1,1,1,1033,2,-1545
1423,16.39035,1,1,1,1039,2,-1542
1424,16.401923,0,1,2,1034,0,-1550
1425,16.413459,0,1,1,1035,0,-1550
1426,16.425052,0,2,0,1036,-2,-1535
1427,16.436576,1,2,1,1034,-1,-1550
1428,16.448092,0,0,2,1033,-2,-1548
1429,16.459631,0,1,1,1032,3,-1545
1430,16.471175,0,1,1,1036,2,-1547
1431,16.482745,0,1,0,1034,-3,-1545
1432,16.494363,0,1,1,1033,1,-1544
1433,16.506014,0,2,0,1031,-3,-1541
1434,16.517676,0,1,1,1034,-1,-1543
1435,16.529319,0,1,2,1037,1,-1542
1436,16.541009,0,0,1,1036,0,-1546
1437,16.552634,1,1,1,1035,1,-1539
1438,16.564313,1,1,1,1034,-4,-1538
1439,16.575985,0,2,1,1033,0,-1550
1440,16.587643,0,2,0,1033,-2,-1547
1441,16.599325,0,1,0,1036,0,-1548
1442,16.610889,0,1,1,1033,0,-1545
1443,16.622445,0,1,0,1032,-1,-1548
1444,16.63402,0,1,0,1034,0,-1546
1445,16.645575,0,1,1,1035,1,-1550
1446,16.657172,0,1,1,1034,-2,-1547
1447,16.66873,0,2,1,1033,-3,-1543
1448,16.680318,1,1,1,1035,1,-1542
1449,16.691863,0,0,1,1031,2,-1546
1450,16.703488,0,1,1,1037,2,-1546
1451,16.715131,0,1,1,1035,0,-1547
1452,16.726781,0,2,0,1039,0,-1547
1453,16.738479,0,1,1,1037,2,-1538
1454,16.750162,1,1,0,1033,-3,-1550
1455,16.761951,0,1,1,1033,1,-1545
1456,16.773632,0,1,1,1033,3,-1549
1457,16.785314,0,0,1,1034,1,-1549
1458,16.797028,0,1,2,1036,2,-1545
1459,16.808744,0,1,0,1037,-1,-1553
1460,16.820324,0,1,1,1035,2,-1548
1461,16.831853,1,2,1,1035,0,-1546
1462,16.843425,0,1,2,1032,0,-1547
1463,16.854978,1,1,1,1035,1,-1544
1464,16.866544,0,0,1,1035,3,-1548
1465,16.878081,0,1,1,1034,-1,-1550
1466,16.88962,0,1,1,1033,0,-1547
1467,16.901189,0,1,1,1037,-2,-1538
1468,16.912914,-1,0,2,1032,0,-1537
1469,16.924623,0,1,1,1038,1,-1543
1470,16.936335,0,1,1,1036,-1,-1543
1471,16.948007,0,1,1,1038,1,-1542
1472,16.959661,1,1,1,1032,5,-1551
1473,16.971343,0,2,1,1035,-3,-1542
1474,16.983005,0,1,1,1037,1,-1551
1475,16.994704,0,0,1,1035,0,-1549
1476,17.006368,0,1,0,1031,0,-1548
1477,17.01806,1,1,1,1034,-2,-1540
1478,17.029649,1,2,0,1033,-3,-1544
1479,17.041203,1,1,1,1033,2,-1545
1480,17.052767,0,1,1,1033,0,-1542
1481,17.064336,0,1,0,1031,-2,-1549
1482,17.075851,0,1,1,1036,0,-1545
1483,17.087396,0,1,1,1035,-2,-1542
1484,17.098936,0,1,1,1033,0,-1549
1485,17.110492,0,1,1,1032,3,-1544
1486,17.122114,0,2,1,1035,-1,-1551
1487,17.133762,1,1,1,1032,0,-1549
1488,17.145404,1,2,1,1030,1,-1546
1489,17.157076,0,2,0,1033,-1,-1544
1490,17.16875,0,2,1,1035,-1,-1549
1491,17.180376,1,1,1,1032,-1,-1546
1492,17.192037,0,0,1,1034,0,-1541
1493,17.203701,0,1,1,1037,-1,-1543
1494,17.215365,1,1,0,1039,-1,-1547
1495,17.227036,0,1,1,1032,0,-1552
1496,17.238583,1,0,1,1037,-1,-1551
1497,17.250135,0,1,1,1035,-3,-1542
1498,17.261689,0,1,0,1032,-2,-1540
1499,17.273237,1,1,1,1031,-2,-1551
1500,17.284808,0,2,1,1037,0,-1547
1501,17.296405,1,1,1,1034,-2,-1547
1502,17.30799,0,1,1,1035,4,-1548
1503,17.319556,0,2,1,1035,-2,-1548
1504,17.33118,0,1,0,1034,1,-1543
1505,17.342858,0,2,1,1033,0,-1545
1506,17.354523,0,2,1,1035,0,-1544
1507,17.36621,1,1,0,1032,-1,-1539
1508,17.377867,1,1,1,1033,0,-1547
1509,17.389508,0,1,1,1036,2,-1545
1510,17.401148,1,1,0,1031,-2,-1545
1511,17.412824,0,1,0,1035,1,-1546
1512,17.424517,0,1,0,1034,-2,-1542
1513,17.436216,1,1,1,1029,0,-1542
1514,17.447791,1,1,1,1035,-3,-1545
1515,17.45935,0,1,1,1038,1,-1538
1516,17.470917,0,1,1,1038,-3,-1549
1517,17.482467,0,1,1,1035,0,-1550
1518,17.494043,1,0,1,1035,-2,-1544
1519,17.505587,0,1,0,1035,-1,-1544
1520,17.517136,1,1,1,1037,0,-1547
1521,17.528709,0,1,1,1031,0,-1548
1522,17.540385,0,0,1,1034,-2,-1542
1523,17.552111,0,1,1,1038,2,-1545
1524,17.563769,0,1,1,1034,0,-1548
1525,17.57541,1,1,0,1032,-1,-1547
1526,17.58707,0,1,1,1035,0,-1549
1527,17.598733,0,0,1,1030,-1,-1542
1528,17.610389,0,1,1,1036,0,-1548
1529,17.622064,0,1,1,1038,0,-1544
1530,17.633754,1,1,0,1029,-1,-1547
1531,17.645426,0,2,1,1036,-3,-1546
1532,17.656999,0,1,0,1037,-1,-1542
1533,17.668572,0,1,1,1035,0,-1538
1534,17.680156,0,0,1,1037,1,-1549
1535,17.691705,0,1,1,1034,-2,-1544
1536,17.70328,0,1,1,1037,1,-1542
1537,17.71483,0,1,1,1035,-2,-1545
1538,17.726407,0,0,1,1034,-4,-1542
1539,17.737977,0,1,1,1031,0,-1549
1540,17.749609,0,1,1,1035,2,-1550
1541,17.761278,1,2,1,1036,3,-1544
1542,17.772944,0,1,0,1035,0,-1545
1543,17.784626,0,1,1,1032,0,-1547
1544,17.796277,0,1,1,1034,1,-1548
1545,17.807932,0,0,2,1033,0,-1549
1546,17.819602,0,0,1,1033,0,-1551
1547,17.831244,0,1,1,1032,-1,-1549
1548,17.842905,0,1,1,1030,3,-1545
1549,17.854586,0,1,1,1037,2,-1539
1550,17.866153,0,1,1,1032,-2,-1538
1551,17.877702,0,1,1,1034,0,-1544
1552,17.889262,0,1,0,1037,1,-1546
1553,17.900819,0,0,1,1034,3,-1544
1554,17.912418,0,1,1,1034,-1,-1544
1555,17.923975,0,1,1,1033,0,-1546
1556,17.935534,0,1,1,1040,-1,-1543
1557,17.947088,0,1,0,1032,2,-1548
1558,17.958713,1,1,1,1034,-4,-1548
1559,17.970362,0,1,1,1032,-3,-1550
1560,17.98201,0,1,0,1035,0,-1549
1561,17.993697,0,1,2,1039,0,-1544
1562,18.005348,0,1,1,1031,-5,-1545
1563,18.017016,0,1,1,1034,-2,-1541
1564,18.028691,0,1,2,1033,-2,-1548
1565,18.040363,1,1,1,1034,0,-1550
1566,18.052109,0,1,1,1033,0,-1542
1567,18.063766,1,1,1,1032,1,-1551
1568,18.07532,1,1,1,1032,-4,-1544
1569,18.086872,0,1,2,1033,0,-1546
1570,18.098416,0,1,1,1036,-1,-1543
1571,18.109997,0,1,0,1039,0,-1547
1572,18.121546,0,1,1,1036,0,-1545
1573,18.133094,0,0,1,1033,-1,-1547
1574,18.144646,0,0,1,1033,0,-1544
1575,18.156227,1,0,1,1035,0,-1544
1576,18.170295,1,0,0,1029,2,-1552
1577,18.181982,0,1,1,1036,-2,-1551
1578,18.193638,1,1,0,1039,-1,-1547
1579,18.205285,1,1,1,1037,0,-1547
1580,18.216949,0,1,1,1034,-2,-1544
1581,18.228624,0,0,1,1035,-1,-1549
1582,18.240282,0,1,1,1036,0,-1542
1583,18.251943,0,1,0,1033,-1,-1545
1584,18.263709,0,1,1,1031,-2,-1542
1585,18.275369,0,1,1,1033,1,-1541
1586,18.28693,1,2,1,1035,0,-1543
1587,18.298519,0,1,1,1035,-1,-1545
1588,18.310072,0,1,1,1032,3,-1548
1589,18.321656,0,1,1,1033,-2,-1554
1590,18.333207,0,1,0,1033,-1,-1551
1591,18.344802,1,1,0,1037,0,-1544
1592,18.356344,0,1,1,1036,-4,-1545
1593,18.367909,1,1,2,1033,0,-1540
1594,18.379527,1,0,1,1036,0,-1544
1595,18.391199,1,1,1,1037,-1,-1545
1596,18.402853,0,1,1,1032,0,-1547
1597,18.414497,0,0,1,1033,0,-1545
1598,18.426195,-1,0,1,1033,0,-1546
1599,18.437844,0,0,1,1030,0,-1543
1600,18.449491,0,0,1,1036,-1,-1549
1601,18.461155,1,1,1,1037,-1,-1549
1602,18.472847,0,0,2,1034,0,-1544
1603,18.484542,0,1,0,1034,1,-1545
1604,18.496166,0,1,1,1032,0,-1540
1605,18.507721,1,1,1,1032,0,-1542
1606,18.519281,0,1,0,1037,-1,-1551
1607,18.53082,1,1,0,1032,0,-1544
1608,18.542363,0,1,1,1033,0,-1552
1609,18.55391,1,1,2,1034,1,-1543
1610,18.565464,0,1,2,1037,0,-1549
1611,18.577061,0,1,1,1036,0,-1551
1612,18.58878,1,1,1,1029,1,-1545
1613,18.600457,0,0,0,1037,1,-1542
1614,18.612124,0,2,1,1032,-2,-1546
1615,18.623797,0,0,1,1034,0,-1549
1616,18.635456,0,0,1,1034,0,-1545
1617,18.647113,-1,1,1,1036,2,-1541
1618,18.658757,1,2,1,1030,0,-1537
1619,18.670404,0,2,0,1036,1,-1551
1620,18.682087,0,0,1,1032,3,-1546
1621,18.693766,1,1,1,1035,-2,-1544
1622,18.705418,0,1,1,1037,1,-1547
1623,18.717088,1,0,1,1031,1,-1544
1624,18.728766,1,1,1,1037,-1,-1542
1625,18.740434,0,0,1,1033,0,-1545
1626,18.75211,0,0,1,1035,5,-1543
1627,18.763755,1,0,1,1033,0,-1545
1628,18.775403,0,1,0,1033,3,-1545
1629,18.787101,0,1,1,1034,1,-1543
1630,18.798778,0,2,2,1035,3,-1545
1631,18.810442,0,1,1,1032,-2,-1549
1632,18.822097,0,0,1,1030,-2,-1549
1633,18.833771,0,2,1,1031,2,-1539
1634,18.84542,0,1,0,1036,-2,-1549
1635,18.857105,0,1,1,1036,0,-1544
1636,18.868758,0,1,0,1032,0,-1546
1637,18.880413,0,1,0,1036,-2,-1549
1638,18.892162,0,2,0,1031,2,-1545
1639,18.903853,0,1,1,1037,0,-1548
1640,18.915417,0,1,0,1035,1,-1538
1641,18.926985,0,2,1,1033,0,-1546
1642,18.938538,0,1,0,1037,3,-1547
1643,18.950109,0,1,1,1035,0,-1546
1644,18.961676,0,1,1,1034,0,-1551
1645,18.973248,0,1,1,1037,3,-1547
1646,18.984802,1,1,1,1033,1,-1549
1647,18.996341,0,1,1,1035,-3,-1545
1648,19.007981,0,0,1,1037,0,-1543
1649,19.019632,0,0,1,1036,5,-1549
1650,19.031305,0,1,1,1036,0,-1545
1651,19.042956,0,1,1,1037,2,-1549
1652,19.054606,0,2,1,1033,0,-1545
1653,19.066253,0,0,1,1033,4,-1544
1654,19.077923,0,1,1,1032,-3,-1545
1655,19.089572,0,1,0,1034,0,-1549
1656,19.101231,0,1,1,1034,-1,-1546
1657,19.112892,0,1,1,1035,0,-1545
1658,19.124465,0,1,1,1035,1,-1543
1659,19.136038,0,1,0,1032,0,-1542
1660,19.147628,1,0,1,1029,-2,-1546
1661,19.159184,1,1,1,1039,-1,-1544
1662,19.170775,1,0,0,1036,0,-1546
1663,19.18232,1,1,1,1031,-2,-1550
1664,19.193873,1,1,2,1031,-2,-1549
1665,19.205442,0,1,0,1039,1,-1543
1666,19.217068,1,2,1,1033,0,-1546
1667,19.228782,0,1,1,1034,-3,-1547
1668,19.240489,0,1,1,1034,0,-1545
1669,19.25212,0,1,1,1038,0,-1544
1670,19.263792,0,2,1,1032,0,-1541
1671,19.275457,0,1,1,1034,-2,-1544
1672,19.287098,0,1,0,1033,0,-1546
1673,19.29875,1,1,1,1035,-1,-1550
1674,19.310448,1,1,1,1035,1,-1549
1675,19.322099,1,2,0,1035,-1,-1542
1676,19.333654,0,1,1,1032,2,-1545
1677,19.345233,0,0,1,1034,1,-1545
1678,19.356809,0,1,1,1033,-2,-1548
1679,19.368398,0,1,1,1032,4,-1544
1680,19.379957,0,1,0,1038,-2,-1545
1681,19.391503,-1,1,0,1034,0,-1546
1682,19.403052,1,1,1,1034,1,-1541
1683,19.414618,0,1,1,1029,-1,-1547
1684,19.426236,0,1,0,1034,2,-1548
1685,19.437887,0,1,1,1034,0,-1541
1686,19.449563,0,1,1,1034,0,-1543
1687,19.461212,0,0,1,1034,0,-1552
1688,19.472885,1,1,1,1033,0,-1543
1689,19.484562,0,1,1,1033,2,-1549
1690,19.496235,0,1,2,1034,2,-1543
1691,19.507861,0,0,2,1031,1,-1548
1692,19.519542,0,1,1,1032,2,-1543
1693,19.531209,0,1,0,1032,-3,-1550
1694,19.542785,0,1,1,1040,0,-1547
1695,19.554332,0,1,1,1033,0,-1543
1696,19.565891,1,2,1,1037,-1,-1548
1697,19.577452,0,1,1,1035,-1,-1540
1698,19.589007,1,0,1,1035,-2,-1540
1699,19.600597,0,1,1,1036,0,-1546
1700,19.612161,1,0,1,1031,0,-1554
1701,19.623735,0,1,0,1035,1,-1540
1702,19.635352,0,2,1,1030,-1,-1543
1703,19.64702,1,1,1,1035,5,-1542
1704,19.658715,0,2,1,1033,0,-1544
1705,19.670362,-1,1,1,1034,0,-1547
1706,19.682054,0,2,1,1032,-2,-1548
1707,19.693716,-1,2,1,1035,0,-1547
1708,19.705398,0,1,1,1032,0,-1547
1709,19.717085,0,1,1,1034,0,-1549
1710,19.728782,0,1,1,1035,0,-1546
1711,19.740441,0,1,1,1031,0,-1549
1712,19.752023,0,1,1,1033,-1,-1549
1713,19.763577,0,1,1,1036,0,-1545
1714,19.775138,1,1,2,1035,-3,-1548
1715,19.786675,1,2,2,1039,-3,-1545
1716,19.798215,1,2,1,1033,1,-1546
1717,19.809774,0,1,1,1034,0,-1546
1718,19.821314,0,1,0,1037,0,-1548
1719,19.832881,0,1,1,1035,0,-1545
1720,19.844518,0,1,0,1034,2,-1545
1721,19.856182,0,1,1,1034,0,-1543
1722,19.867846,0,1,1,1036,1,-1544
1723,19.879488,1,1,1,1032,-2,-1547
1724,19.891138,0,1,0,1034,2,-1549
1725,19.902809,0,1,1,1032,0,-1552
1726,19.914481,0,1,1,1035,0,-1541
1727,19.92614,0,1,1,1033,0,-1543
1728,19.937806,0,1,1,1034,2,-1544
1729,19.94946,0,1,0,1033,-1,-1549
1730,19.961053,1,0,0,1034,-4,-1547
1731,19.972671,0,1,1,1035,-3,-1540
1732,19.984274,0,1,1,1034,-1,-1544
1733,19.995839,0,1,1,1036,0,-1540
1734,20.007397,1,1,1,1034,0,-1547
1735,20.018965,0,2,0,1035,-2,-1541
1736,20.030519,0,1,0,1035,3,-1546
1737,20.042097,0,1,1,1033,5,-1545
1738,20.053759,0,1,1,1032,2,-1547
1739,20.065436,1,1,1,1035,4,-1548
1740,20.077117,1,1,1,1036,0,-1543
1741,20.088782,0,1,1,1032,-1,-1546
1742,20.100454,1,1,2,1037,0,-1545
1743,20.112119,0,1,1,1032,0,-1545
1744,20.123786,1,1,1,1036,-3,-1548
1745,20.135449,0,1,0,1030,0,-1548
1746,20.147103,0,1,0,1035,-1,-1547
1747,20.158766,0,1,1,1036,-1,-1545
1748,20.170313,0,1,1,1029,1,-1547
1749,20.181857,0,2,1,1036,2,-1546
1750,20.193402,0,1,1,1034,1,-1544
1751,20.204986,0,1,1,1034,2,-1545
1752,20.21656,0,1,1,1032,-1,-1549
1753,20.228139,1,1,1,1034,0,-1551
1754,20.23968,0,2,1,1036,-1,-1542
1755,20.251227,0,1,1,1035,0,-1551
1756,20.26285,0,1,0,1036,-2,-1546
1757,20.274522,0,1,1,1038,2,-1547
1758,20.286177,0,1,2,1038,1,-1542
1759,20.297829,1,2,1,1036,1,-1548
1760,20.309467,0,1,1,1034,1,-1549
1761,20.321134,0,1,0,1036,1,-1548
1762,20.332806,0,0,1,1035,2,-1551
1763,20.344471,1,0,0,1033,-1,-1548
1764,20.356132,0,0,1,1038,0,-1548
1765,20.367798,0,0,1,1032,0,-1546
1766,20.379385,-1,1,1,1033,1,-1553
1767,20.39094,0,1,1,1039,-2,-1545
1768,20.402515,1,1,1,1037,-2,-1544
1769,20.414062,0,1,1,1034,0,-1548
1770,20.425662,1,2,1,1036,0,-1547
1771,20.437259,0,2,1,1037,-2,-1545
1772,20.448817,0,2,1,1035,-1,-1546
1773,20.460378,1,1,2,1031,-2,-1546
1774,20.472063,0,1,1,1031,0,-1545
1775,20.483717,0,0,1,1034,0,-1544
1776,20.495387,0,1,1,1036,1,-1545
1777,20.507053,0,0,1,1031,2,-1546
1778,20.518707,0,1,1,1031,0,-1544
1779,20.530366,0,1,1,1036,3,-1542
1780,20.542039,0,0,1,1033,-2,-1544
1781,20.553695,0,0,1,1035,4,-1549
1782,20.565383,1,1,1,1035,1,-1540
1783,20.577076,0,1,0,1031,0,-1547
1784,20.588771,0,1,2,1038,0,-1543
1785,20.60044,0,1,1,1038,-1,-1548
1786,20.612129,0,1,1,1031,-2,-1549
1787,20.623803,0,1,1,1031,0,-1547
1788,20.63546,0,2,1,1039,0,-1545
1789,20.647163,0,1,1,1035,1,-1554
1790,20.658836,0,1,1,1034,-2,-1545
1791,20.670509,0,1,1,1035,-1,-1546
1792,20.682059,0,1,1,1035,-2,-1548
1793,20.693602,0,1,1,1036,1,-1544
1794,20.705181,1,0,1,1036,0,-1547
1795,20.716781,0,1,2,1033,0,-1543
1796,20.728341,0,2,1,1034,-1,-1549
1797,20.739894,1,1,1,1034,-1,-1543
1798,20.751435,0,1,1,1035,2,-1543
1799,20.763015,0,2,1,1032,3,-1552
1800,20.774696,0,1,1,1036,-3,-1540
1801,20.786353,0,1,0,1031,-1,-1546
1802,20.79804,0,1,1,1031,1,-1545
1803,20.8097,1,1,1,1034,-2,-1547
1804,20.821387,0,1,2,1033,1,-1539
1805,20.833077,0,1,1,1026,-2,-1541
1806,20.844776,0,1,1,1036,1,-1544
1807,20.856445,0,0,1,1033,1,-1552
1808,20.868156,1,1,1,1035,0,-1546
1809,20.879842,1,2,1,1033,-1,-1549
1810,20.891401,1,1,1,1034,2,-1544
1811,20.902981,0,1,0,1037,2,-1544
1812,20.914535,1,1,1,1033,1,-1544
1813,20.926118,0,1,0,1032,2,-1545
1814,20.937666,1,1,1,1036,-2,-1542
1815,20.949251,0,2,1,1035,-2,-1545
1816,20.960818,1,2,1,1033,2,-1540
1817,20.972403,1,1,0,1036,-4,-1551
1818,20.984044,0,1,1,1038,-1,-1546
1819,20.995693,1,1,1,1033,0,-1538
1820,21.007343,0,2,1,1037,4,-1541
1821,21.019035,1,1,2,1032,-1,-1549
1822,21.030685,1,1,2,1035,1,-1540
1823,21.042337,1,1,1,1036,-4,-1545
1824,21.053992,0,1,1,1033,0,-1539
1825,21.065641,0,2,1,1032,0,-1539
1826,21.077316,0,0,1,1035,0,-1543
1827,21.089003,-1,1,1,1034,0,-1548
1828,21.100582,0,1,1,1033,-1,-1542
1829,21.112138,0,1,0,1031,-1,-1549
1830,21.123683,1,0,1,1031,0,-1546
1831,21.135231,0,0,1,1032,-2,-1544
1832,21.146781,0,1,1,1032,-1,-1541
1833,21.158325,0,0,1,1031,-2,-1538
1834,21.169876,0,1,1,1035,3,-1541
1835,21.181442,1,1,1,1036,1,-1546
1836,21.19307,1,2,1,1035,1,-1546
1837,21.204756,0,1,1,1034,0,-1550
1838,21.216434,1,2,1,1036,-3,-1536
1839,21.228114,1,1,0,1031,2,-1549
1840,21.239779,1,1,0,1032,1,-1541
1841,21.251438,0,1,0,1036,-1,-1547
1842,21.263093,0,1,0,1033,4,-1548
1843,21.274743,1,1,1,1035,-1,-1550
1844,21.28639,1,1,1,1039,1,-1540
1845,21.298022,0,1,1,1036,1,-1549
1846,21.309566,0,1,1,1037,0,-1543
1847,21.321124,0,2,1,1032,-2,-1543
1848,21.332694,0,1,1,1034,0,-1545
1849,21.344256,1,1,0,1036,2,-1545
1850,21.355841,0,1,1,1036,2,-1545
1851,21.367393,-1,0,1,1035,0,-1542
1852,21.378942,0,0,0,1038,-2,-1547
1853,21.390533,0,1,1,1034,-1,-1546
1854,21.402158,0,1,1,1036,-2,-1547
1855,21.413809,1,1,1,1034,4,-1545
1856,21.425461,0,1,0,1034,-1,-1550
1857,21.437163,0,1,2,1035,0,-1549
1858,21.44884,0,0,1,1037,-2,-1548
1859,21.460531,0,1,1,1038,-3,-1549
1860,21.472194,0,1,1,1032,-1,-1549
1861,21.483869,0,1,1,1037,1,-1544
1862,21.495555,-1,1,0,1034,0,-1538
1863,21.507222,0,2,0,1033,1,-1547
1864,21.518793,0,0,0,1037,-1,-1546
1865,21.530375,1,1,1,1030,-2,-1553
1866,21.541921,0,1,1,1034,-3,-1546
1867,21.553462,1,1,0,1032,1,-1541
1868,21.565037,1,2,2,1032,0,-1544
1869,21.576573,0,0,1,1031,0,-1547
1870,21.58811,1,1,0,1031,-1,-1542
1871,21.599673,0,1,1,1036,-1,-1543
1872,21.611306,0,2,1,1033,-3,-1549
1873,21.62296,0,1,1,1035,0,-1551
1874,21.634613,0,1,1,1034,0,-1545
1875,21.646267,0,1,1,1034,-1,-1548
1876,21.657924,1,1,1,1036,0,-1539
1877,21.669577,1,1,1,1034,-2,-1544
1878,21.681223,0,1,1,1032,1,-1540
1879,21.692889,0,0,1,1035,1,-1547
1880,21.704565,0,1,1,1035,1,-1544
1881,21.716235,0,1,1,1037,-1,-1546
1882,21.7278,1,1,1,1032,4,-1543
1883,21.739373,0,1,1,1031,-1,-1544
1884,21.750923,0,1,1,1034,-3,-1547
1885,21.7625,0,2,2,1034,0,-1543
1886,21.774037,0,2,1,1034,0,-1547
1887,21.785572,0,2,1,1035,1,-1542
1888,21.797119,0,1,1,1032,1,-1548
1889,21.808701,0,1,0,1031,2,-1546
1890,21.820385,0,1,1,1031,2,-1545
1891,21.832056,0,1,2,1034,0,-1547
1892,21.843714,1,1,0,1033,-2,-1546
1893,21.855358,0,1,1,1034,-4,-1548
1894,21.867008,0,1,0,1034,-3,-1548
1895,21.87869,1,1,0,1034,0,-1546
1896,21.890333,1,1,1,1035,-4,-1542
1897,21.901982,1,1,1,1032,2,-1549
1898,21.913676,1,1,1,1032,0,-1546
1899,21.925345,0,1,1,1033,0,-1543
1900,21.936896,1,0,1,1038,-2,-1545
1901,21.948491,0,1,1,1033,1,-1545
1902,21.960045,1,0,1,1033,-1,-1543
1903,21.971594,1,0,1,1031,3,-1547
1904,21.983139,1,1,1,1034,-1,-1549
1905,21.994716,0,1,1,1036,2,-1549
1906,22.006267,0,1,1,1032,-1,-1542
1907,22.017826,0,2,1,1032,0,-1543
1908,22.029437,1,1,0,1033,-4,-1546
1909,22.041111,0,0,0,1035,-2,-1548
1910,22.052777,0,1,1,1039,0,-1548
1911,22.064436,0,1,1,1034,-2,-1542
1912,22.076119,0,1,1,1033,-2,-1551
1913,22.087773,0,1,1,1036,0,-1542
1914,22.09943,0,1,1,1037,1,-1542
1915,22.11108,0,1,2,1029,-1,-1542
1916,22.122733,1,1,1,1032,0,-1546
1917,22.134421,0,1,1,1037,0,-1542
1918,22.146073,1,1,1,1036,-2,-1546
1919,22.157719,1,1,1,1034,-2,-1545
1920,22.169404,0,1,0,1033,-2,-1545
1921,22.181064,0,1,0,1034,0,-1542
1922,22.192759,0,0,1,1033,0,-1553
1923,22.204423,0,0,0,1032,1,-1548
1924,22.216102,0,2,1,1038,3,-1544
1925,22.227844,0,1,2,1032,0,-1548
1926,22.239506,1,2,2,1036,1,-1546
1927,22.251108,1,1,0,1033,-1,-1543
1928,22.262665,0,1,1,1033,-2,-1544
1929,22.274247,0,1,2,1036,0,-1548
1930,22.285791,0,0,1,1036,0,-1547
1931,22.297337,0,1,1,1037,3,-1543
1932,22.308894,1,1,1,1033,-1,-1542
1933,22.320472,1,1,1,1035,0,-1541
1934,22.332044,1,1,1,1034,0,-1549
1935,22.343674,0,1,1,1035,0,-1544
1936,22.355323,0,1,1,1035,0,-1553
1937,22.366976,1,0,1,1041,0,-1544
1938,22.378623,1,1,2,1035,3,-1550
1939,22.390298,1,1,1,1035,-1,-1549
1940,22.401953,0,1,1,1034,-3,-1539
1941,22.413593,0,1,1,1034,-1,-1545
1942,22.425275,1,1,1,1030,3,-1549
1943,22.436965,0,0,1,1034,2,-1544
1944,22.448664,0,1,1,1030,2,-1540
1945,22.460319,1,1,0,1038,0,-1547
1946,22.471999,1,1,1,1032,-1,-1540
1947,22.483681,0,1,1,1037,2,-1544
1948,22.495326,0,1,2,1033,0,-1544
1949,22.507001,0,1,1,1035,2,-1547
1950,22.518687,0,1,1,1032,1,-1545
1951,22.530331,0,1,1,1034,-2,-1546
1952,22.542059,0,2,1,1035,0,-1548
1953,22.5537,-1,1,1,1035,0,-1546
1954,22.565281,1,0,1,1034,0,-1543
1955,22.576873,0,1,1,1030,0,-1537
1956,22.588446,1,1,1,1034,-1,-1545
1957,22.600009,0,1,1,1035,0,-1544
1958,22.611549,0,1,1,1033,-1,-1543
1959,22.623088,1,1,1,1034,-2,-1551
1960,22.634637,1,0,1,1038,-1,-1544
1961,22.646192,0,1,2,1034,1,-1545
1962,22.657809,0,2,2,1035,-5,-1545
1963,22.66946,1,1,0,1033,0,-1545
1964,22.681159,0,1,1,1036,0,-1550
1965,22.692805,1,1,2,1034,-2,-1541
1966,22.704526,0,1,0,1026,2,-1546
1967,22.716305,0,2,0,1031,-1,-1545
1968,22.727992,1,1,1,1030,0,-1547
1969,22.73967,0,1,1,1033,4,-1544
1970,22.75137,0,1,1,1034,2,-1543
1971,22.763146,0,1,2,1032,1,-1543
1972,22.774773,0,1,1,1034,0,-1546
1973,22.786378,0,1,1,1036,-3,-1546
1974,22.797968,0,2,1,1034,-1,-1552
1975,22.809526,0,2,1,1035,0,-1542
1976,22.821069,0,2,1,1034,0,-1540
1977,22.832621,0,2,1,1034,0,-1549
1978,22.844169,0,2,2,1033,-1,-1549
1979,22.855776,0,1,1,1036,0,-1556
1980,22.867323,0,1,1,1036,2,-1541
1981,22.878913,-1,1,1,1036,2,-1548
1982,22.890486,1,2,1,1036,1,-1542
1983,22.902031,0,1,1,1034,0,-1542
1984,22.913606,0,1,2,1033,0,-1543
1985,22.925178,0,2,1,1036,-4,-1546
1986,22.936749,0,1,1,1035,1,-1549
1987,22.94832,0,1,1,1035,-3,-1544
1988,22.95986,0,1,1,1034,-1,-1547
1989,22.971523,0,1,1,1036,-1,-1544
1990,22.983174,0,1,2,1035,2,-1548
1991,22.994824,0,1,0,1036,0,-1542
1992,23.006485,1,0,1,1035,1,-1548
1993,23.01815,1,1,1,1035,1,-1541
1994,23.029803,0,1,1,1033,-1,-1548
1995,23.041458,1,1,2,1036,-4,-1552
1996,23.053169,0,1,1,1035,1,-1540
1997,23.064833,0,1,1,1030,1,-1547
1998,23.076542,1,2,1,1031,3,-1544
1999,23.08811,0,1,0,1036,-3,-1540
