sample,t_s,gyro_x,gyro_y,gyro_z,accel_x,accel_y,accel_z
0,1.3e-05,2,-1,1,1046,-2,-1557
1,0.011245,0,-1,0,1048,0,-1563
2,0.022432,1,2,1,1048,2,-1560
3,0.033615,-1,1,1,1049,0,-1560
4,0.044778,1,2,1,1049,-2,-1556
5,0.055966,1,3,1,1042,-2,-1557
6,0.067149,1,1,1,1047,2,-1558
7,0.078337,2,3,-1,1046,-1,-1562
8,0.089548,1,0,0,1047,0,-1566
9,0.100737,0,1,1,1048,1,-1556
10,0.111919,2,1,1,1042,-1,-1557
11,0.123104,0,0,-1,1045,0,-1552
12,0.134285,1,1,1,1045,1,-1554
13,0.145472,2,2,-1,1047,-2,-1557
14,0.15666,2,3,2,1049,0,-1557
15,0.167845,2,2,1,1044,0,-1564
16,0.179029,2,2,-1,1045,1,-1555
17,0.190216,1,0,-1,1046,0,-1561
18,0.201405,1,3,2,1048,2,-1562
19,0.212594,0,-1,-1,1053,-3,-1557
20,0.223782,2,2,1,1047,0,-1557
21,0.23497,2,1,1,1047,-2,-1561
22,0.246156,1,2,-1,1048,2,-1562
23,0.257348,1,4,2,1049,-3,-1555
24,0.268536,1,1,0,1049,3,-1565
25,0.279721,0,2,-2,1045,1,-1564
26,0.290909,2,2,1,1051,-1,-1564
27,0.302092,2,2,1,1047,0,-1559
28,0.313277,3,-1,1,1045,-3,-1566
29,0.324466,1,4,0,1045,0,-1563
30,0.33565,2,0,2,1049,0,-1561
31,0.346835,1,1,0,1052,0,-1555
32,0.358021,1,0,1,1050,4,-1559
33,0.369211,0,0,0,1045,0,-1556
34,0.380407,1,0,2,1043,1,-1556
35,0.391593,2,-1,0,1049,-1,-1561
36,0.402779,0,-1,0,1046,0,-1554
37,0.413963,1,0,1,1045,2,-1559
38,0.425153,2,2,-2,1045,0,-1561
39,0.436342,1,1,1,1048,5,-1552
40,0.447532,3,2,0,1049,0,-1562
41,0.458716,1,1,0,1047,0,-1560
42,0.4699,0,0,0,1048,0,-1555
43,0.481088,0,4,0,1047,-1,-1554
44,0.492276,4,0,1,1049,0,-1556
45,0.503464,1,2,2,1049,0,-1556
46,0.51465,3,-1,1,1049,-3,-1561
47,0.525839,0,0,-1,1047,-1,-1558
48,0.537031,2,2,2,1048,0,-1560
49,0.548222,3,2,-1,1051,2,-1557
50,0.55941,1,0,0,1050,0,-1556
51,0.570592,2,1,2,1046,0,-1564
52,0.581778,2,0,1,1049,-1,-1561
53,0.592962,3,-2,0,1048,0,-1558
54,0.604152,1,2,2,1045,3,-1557
55,0.615339,1,1,-2,1048,-3,-1560
56,0.626525,2,0,0,1048,1,-1561
57,0.637708,2,3,-1,1047,3,-1557
58,0.648905,0,0,0,1045,2,-1560
59,0.660091,1,1,0,1050,-1,-1555
60,0.671282,2,1,-1,1047,0,-1555
61,0.682466,3,1,1,1046,-5,-1562
62,0.693652,3,1,-1,1047,3,-1567
63,0.704841,1,2,0,1047,0,-1556
64,0.716033,2,0,0,1049,2,-1559
65,0.727216,2,-1,-1,1047,4,-1559
66,0.738401,1,2,-1,1046,-2,-1559
67,0.749581,2,2,0,1046,1,-1559
68,0.760773,0,3,1,1045,0,-1561
69,0.771958,0,2,1,1047,3,-1560
70,0.783143,2,0,-1,1048,0,-1559
71,0.794325,2,1,2,1045,-2,-1559
72,0.805514,0,1,0,1046,0,-1562
73,0.816703,0,1,0,1050,0,-1561
74,0.827888,1,1,1,1044,0,-1559
75,0.839074,1,0,0,1046,2,-1561
76,0.850258,1,-1,-2,1048,0,-1558
77,0.86145,1,4,0,1046,0,-1553
78,0.872638,1,0,0,1044,0,-1556
79,0.883821,1,1,0,1046,1,-1563
80,0.895012,2,3,1,1044,-4,-1562
81,0.906198,2,2,-1,1051,2,-1561
82,0.917395,0,3,-1,1046,2,-1560
83,0.928593,0,1,2,1048,-4,-1563
84,0.939773,0,0,-2,1050,0,-1564
85,0.95096,4,-1,1,1052,2,-1564
86,0.962141,0,1,-2,1048,-1,-1564
87,0.973325,1,2,0,1047,0,-1563
88,0.984519,2,-1,1,1049,4,-1554
89,0.995705,0,0,-1,1048,-3,-1563
90,1.006888,0,2,1,1042,0,-1561
91,1.018075,0,1,0,1044,0,-1564
92,1.029264,2,1,0,1048,0,-1560
93,1.040454,1,0,1,1048,3,-1555
94,1.05164,2,3,0,1045,-2,-1558
95,1.062837,-1,0,-2,1048,-3,-1557
96,1.074028,1,2,-2,1048,2,-1562
97,1.085211,1,5,-1,1047,-2,-1560
98,1.096408,0,0,0,1048,0,-1562
99,1.107589,3,-3,-1,1050,1,-1567
100,1.118779,0,0,0,1050,0,-1557
101,1.129964,2,1,0,1047,-3,-1560
102,1.141148,1,0,-1,1049,2,-1560
103,1.152339,2,0,2,1046,1,-1559
104,1.16352,2,1,0,1049,0,-1565
105,1.174705,-1,-1,3,1047,0,-1556
106,1.185886,2,1,-1,1047,3,-1558
107,1.197081,1,2,0,1047,1,-1554
108,1.208221,4,1,1,1045,-4,-1561
109,1.219406,2,0,-2,1048,3,-1563
110,1.230587,1,4,0,1047,6,-1564
111,1.241767,3,2,1,1045,0,-1557
112,1.252959,0,1,0,1044,-2,-1557
113,1.264148,1,-1,-1,1047,0,-1558
114,1.275332,1,2,-3,1049,3,-1565
115,1.286519,2,3,-1,1047,2,-1559
116,1.297702,3,1,0,1046,-2,-1565
117,1.308895,0,1,0,1047,-1,-1561
118,1.320036,1,2,1,1047,0,-1560
119,1.331263,-1,-1,2,1049,-2,-1562
120,1.342561,2,0,1,1049,-2,-1557
121,1.35376,3,4,1,1050,1,-1553
122,1.364967,2,1,-2,1048,-3,-1561
123,1.376155,2,1,-1,1047,-1,-1568
124,1.387337,4,2,3,1046,-2,-1558
125,1.398519,2,0,-2,1048,0,-1564
126,1.409702,2,0,0,1047,-1,-1560
127,1.420888,1,2,1,1048,1,-1553
128,1.432037,0,1,-3,1049,2,-1561
129,1.443222,1,4,0,1049,1,-1560
130,1.454405,1,-1,1,1052,0,-1561
131,1.465637,1,-1,0,1046,0,-1554
132,1.476968,1,0,-1,1052,-2,-1565
133,1.488165,2,1,1,1049,-3,-1561
134,1.499353,1,0,-1,1050,-1,-1556
135,1.510541,2,3,-1,1047,-1,-1560
136,1.521725,2,0,1,1046,-3,-1562
137,1.532912,1,0,0,1045,0,-1562
138,1.544096,1,0,-1,1049,0,-1565
139,1.555277,1,2,-1,1047,0,-1561
140,1.56646,3,0,1,1048,0,-1568
141,1.577641,1,0,1,1049,-1,-1563
142,1.588825,2,-1,-1,1049,-1,-1558
143,1.600009,2,0,0,1043,1,-1563
144,1.611193,1,1,0,1047,2,-1559
145,1.62238,3,1,-2,1046,-2,-1559
146,1.633569,1,0,-1,1045,0,-1565
147,1.644772,1,2,0,1047,2,-1554
148,1.655953,1,1,2,1047,1,-1555
149,1.667137,-1,4,1,1049,-1,-1555
150,1.67832,1,1,-1,1045,0,-1557
151,1.689509,2,2,0,1046,0,-1558
152,1.700701,-1,1,2,1049,1,-1562
153,1.711881,4,1,1,1049,3,-1560
154,1.723066,0,0,0,1048,1,-1564
155,1.73425,0,4,0,1048,-2,-1562
156,1.745434,1,-1,0,1051,0,-1559
157,1.756592,2,1,2,1047,1,-1569
158,1.767775,-1,-1,1,1046,0,-1558
159,1.778955,1,0,0,1047,1,-1566
160,1.790139,1,1,-2,1049,-1,-1556
161,1.801321,1,-1,0,1046,0,-1560
162,1.812518,1,2,0,1047,-3,-1563
163,1.823699,2,2,0,1050,0,-1563
164,1.834883,2,2,-1,1048,1,-1559
165,1.846063,2,1,2,1049,2,-1559
166,1.857247,1,1,0,1045,0,-1558
167,1.868408,1,1,1,1048,0,-1562
168,1.879612,0,2,0,1050,-4,-1560
169,1.890799,1,2,0,1048,2,-1563
170,1.901984,2,2,1,1047,-1,-1564
171,1.913167,0,1,0,1049,-1,-1554
172,1.924351,0,1,-1,1049,2,-1560
173,1.935533,2,0,-1,1047,0,-1564
174,1.946713,1,-1,1,1045,-3,-1568
175,1.957893,0,3,-1,1048,1,-1566
176,1.969077,0,-1,1,1049,-3,-1559
177,1.980272,1,1,2,1048,0,-1558
178,1.991453,1,-1,-2,1045,-1,-1558
179,2.002634,-1,3,1,1050,0,-1565
180,2.013814,1,-1,-1,1047,1,-1564
181,2.024958,3,4,0,1046,2,-1563
182,2.036148,3,3,2,1047,1,-1560
183,2.047326,1,3,-1,1050,0,-1558
184,2.058504,1,2,1,1045,1,-1559
185,2.069684,0,1,0,1046,3,-1560
186,2.080879,1,2,1,1050,-1,-1563
187,2.092036,0,1,-1,1046,0,-1559
188,2.103216,2,3,0,1045,1,-1560
189,2.114396,1,1,-1,1049,2,-1567
190,2.125574,1,1,2,1049,-1,-1553
191,2.136837,1,3,0,1046,-1,-1556
192,2.148033,3,1,0,1045,-3,-1564
193,2.159216,2,0,-1,1045,-5,-1557
194,2.170398,0,0,0,1049,2,-1561
195,2.18158,2,1,0,1048,-2,-1563
196,2.192773,0,0,-1,1049,-2,-1563
197,2.203955,3,1,0,1048,-1,-1557
198,2.215139,-1,0,-1,1048,-1,-1564
199,2.226333,3,1,1,1049,1,-1561
200,2.237518,1,2,1,1047,0,-1561
201,2.248706,2,1,0,1046,3,-1566
202,2.259888,0,2,1,1049,0,-1556
203,2.271071,2,2,0,1051,0,-1562
204,2.282253,2,4,1,1049,1,-1559
205,2.293436,0,0,1,1050,-1,-1557
206,2.304591,2,2,1,1050,2,-1561
207,2.315771,1,0,0,1049,-1,-1553
208,2.326954,0,2,-2,1051,1,-1555
209,2.338133,2,2,-1,1050,-1,-1557
210,2.349315,1,3,0,1046,1,-1550
211,2.360499,3,2,1,1049,-1,-1551
212,2.37168,2,2,1,1049,2,-1561
213,2.382871,1,3,2,1052,-2,-1565
214,2.394053,0,0,0,1049,-2,-1567
215,2.405237,1,2,2,1047,2,-1564
216,2.416405,1,2,0,1046,-1,-1562
217,2.427586,1,1,0,1046,0,-1563
218,2.438763,-1,3,0,1047,4,-1562
219,2.44997,-1,0,1,1050,0,-1560
220,2.46115,1,0,1,1044,-2,-1559
221,2.472339,2,0,1,1047,1,-1562
222,2.483522,1,3,0,1048,-1,-1556
223,2.494701,0,1,-1,1046,-4,-1557
224,2.505883,2,2,2,1054,4,-1556
225,2.517073,0,2,-1,1046,0,-1561
226,2.528222,3,2,1,1048,1,-1559
227,2.539407,3,1,2,1048,1,-1556
228,2.550587,1,-1,2,1047,-1,-1559
229,2.561769,1,2,0,1044,4,-1559
230,2.57296,2,3,1,1045,1,-1556
231,2.584158,1,1,-2,1046,-1,-1561
232,2.595355,2,2,0,1045,-1,-1563
233,2.606538,2,1,0,1050,0,-1563
234,2.617732,2,0,4,1048,4,-1558
235,2.628919,1,0,0,1048,1,-1552
236,2.640107,1,1,-2,1049,0,-1563
237,2.651294,1,1,2,1049,0,-1560
238,2.662477,2,2,0,1049,-2,-1559
239,2.673662,1,1,-2,1047,1,-1553
240,2.684849,4,-1,-1,1047,1,-1564
241,2.696037,0,2,-2,1049,1,-1564
242,2.70722,3,1,-1,1048,1,-1556
243,2.718404,1,0,-1,1047,-1,-1560
244,2.729588,1,2,0,1048,3,-1565
245,2.740773,1,4,-1,1046,0,-1562
246,2.751957,3,2,-2,1044,-2,-1560
247,2.763134,1,1,0,1051,0,-1558
248,2.774314,0,2,0,1047,2,-1559
249,2.785493,0,0,0,1047,-1,-1557
250,2.796677,0,-1,1,1044,-2,-1556
251,2.807856,2,0,0,1051,-1,-1558
252,2.819037,0,2,0,1047,1,-1560
253,2.830218,1,0,1,1047,3,-1559
254,2.841401,1,1,0,1050,0,-1554
255,2.852593,1,0,1,1050,3,-1560
256,2.863775,3,4,0,1049,4,-1563
257,2.874958,3,0,-1,1048,1,-1559
258,2.886136,3,1,1,1049,1,-1562
259,2.897318,1,0,1,1045,0,-1557
260,2.908513,0,0,0,1047,3,-1556
261,2.919705,0,3,0,1048,5,-1556
262,2.930885,-1,1,-2,1046,1,-1559
263,2.942072,3,0,0,1046,-3,-1553
264,2.953253,3,2,1,1048,-1,-1562
265,2.964405,-1,1,0,1051,-1,-1556
266,2.975588,0,1,0,1046,0,-1559
267,2.98677,0,2,0,1047,1,-1554
268,2.997967,2,2,0,1043,0,-1557
269,3.009152,0,3,-1,1048,2,-1566
270,3.020339,2,3,0,1046,0,-1557
271,3.031522,1,2,0,1048,0,-1565
272,3.042705,1,2,1,1047,2,-1559
273,3.053886,1,0,2,1046,1,-1562
274,3.065072,1,2,0,1047,0,-1565
275,3.076222,2,4,1,1044,0,-1563
276,3.087407,1,2,-1,1046,0,-1560
277,3.098591,2,2,1,1047,-3,-1564
278,3.109778,2,2,2,1048,-2,-1557
279,3.120962,-1,1,0,1048,-1,-1556
280,3.132154,1,1,-1,1047,0,-1558
281,3.143343,1,1,0,1045,1,-1551
282,3.15453,3,4,0,1051,-3,-1558
283,3.165726,2,1,0,1045,0,-1557
284,3.176919,2,0,1,1049,0,-1556
285,3.188103,2,-1,2,1050,1,-1557
286,3.199287,0,1,0,1048,-1,-1562
287,3.210473,1,1,-1,1051,-1,-1562
288,3.221657,1,3,1,1042,0,-1555
289,3.232855,2,-1,1,1049,0,-1554
290,3.24404,3,1,1,1050,0,-1556
291,3.255231,0,-1,1,1046,3,-1554
292,3.266415,2,1,0,1046,4,-1564
293,3.277609,2,2,0,1047,3,-1559
294,3.288791,2,2,0,1050,0,-1560
295,3.299986,0,3,0,1045,-1,-1558
296,3.311168,1,1,0,1045,1,-1559
297,3.322353,2,2,0,1050,1,-1554
298,3.333531,1,1,0,1047,-1,-1557
299,3.344719,2,0,-1,1051,1,-1564
300,3.3559,2,-1,1,1050,-3,-1559
301,3.367087,0,2,1,1049,0,-1558
302,3.378267,1,0,0,1045,-1,-1560
303,3.389453,0,1,0,1046,1,-1558
304,3.400636,1,1,1,1048,-1,-1557
305,3.411823,1,3,1,1050,0,-1563
306,3.423004,1,2,-1,1051,-2,-1562
307,3.434184,2,3,1,1049,2,-1563
308,3.445363,1,1,2,1049,-2,-1556
309,3.456547,1,2,-3,1044,4,-1556
310,3.467728,2,1,0,1047,0,-1567
311,3.478913,1,2,-2,1048,-1,-1563
312,3.490094,2,3,-1,1047,0,-1559
313,3.501281,0,2,-1,1047,2,-1562
314,3.51247,1,3,0,1045,0,-1565
315,3.523651,2,0,1,1048,2,-1562
316,3.534842,1,3,0,1044,-3,-1559
317,3.546023,2,0,0,1045,-2,-1559
318,3.557214,0,2,1,1048,0,-1555
319,3.568406,2,4,2,1048,0,-1568
320,3.579586,-1,1,-1,1044,-5,-1561
321,3.590772,1,3,1,1048,1,-1566
322,3.601967,1,3,-1,1051,-1,-1557
323,3.613153,2,1,-1,1046,-1,-1564
324,3.624344,2,1,0,1048,1,-1555
325,3.635553,-1,1,-2,1047,0,-1555
326,3.646737,0,-1,0,1044,-1,-1563
327,3.657926,2,0,-1,1048,1,-1560
328,3.669109,0,2,0,1048,2,-1555
329,3.680297,1,1,-1,1049,-1,-1559
330,3.691476,1,0,0,1047,0,-1554
331,3.702656,1,0,1,1047,0,-1557
332,3.713838,2,2,-2,1047,-1,-1557
333,3.725024,1,1,-1,1046,2,-1561
334,3.736221,2,2,2,1048,0,-1560
335,3.747405,1,2,1,1045,-1,-1557
336,3.758585,-1,2,1,1045,0,-1560
337,3.769768,0,0,1,1042,0,-1552
338,3.780971,1,0,-1,1044,0,-1562
339,3.792154,2,3,0,1046,0,-1563
340,3.803343,0,0,2,1047,-1,-1551
341,3.814527,2,1,-1,1047,0,-1566
342,3.825714,1,1,-1,1047,3,-1562
343,3.836905,1,1,0,1045,-2,-1557
344,3.848088,3,2,-1,1047,-2,-1564
345,3.859275,3,2,1,1049,0,-1561
346,3.87046,2,2,0,1048,0,-1562
347,3.881644,1,1,1,1048,0,-1557
348,3.892839,2,3,-3,1045,0,-1557
349,3.904034,2,3,2,1047,2,-1559
350,3.91522,-1,-1,0,1048,0,-1551
351,3.926401,3,3,-1,1047,0,-1559
352,3.93759,1,2,1,1049,0,-1555
353,3.94878,4,2,0,1048,-1,-1555
354,3.959963,2,3,-2,1047,0,-1559
355,3.971159,2,3,-1,1048,-1,-1558
356,3.982721,1,2,0,1046,0,-1555
357,3.994371,1,1,1,1048,0,-1554
358,4.006021,2,4,0,1047,-1,-1559
359,4.017681,0,1,1,1045,2,-1561
360,4.029358,1,-1,0,1050,5,-1559
361,4.041016,2,0,-1,1046,4,-1556
362,4.052664,1,0,0,1049,-2,-1562
363,4.064334,-1,3,-1,1047,1,-1565
364,4.075997,1,2,-1,1047,-3,-1561
365,4.087638,1,0,0,1048,1,-1558
366,4.099281,1,1,-2,1049,2,-1556
367,4.110952,0,1,-1,1050,0,-1555
368,4.122606,-1,2,0,1049,0,-1555
369,4.134253,0,-1,0,1048,0,-1560
370,4.145898,1,2,-1,1049,2,-1563
371,4.157569,1,2,0,1048,-2,-1560
372,4.169239,1,2,0,1046,-2,-1562
373,4.180921,1,1,1,1046,1,-1559
374,4.192623,2,1,-1,1047,-2,-1558
375,4.204207,2,0,-1,1044,1,-1553
376,4.215804,0,2,0,1049,2,-1561
377,4.227362,0,-2,-2,1046,1,-1559
378,4.238931,1,1,1,1045,0,-1563
379,4.250471,3,1,1,1046,-2,-1561
380,4.262027,1,1,1,1044,-4,-1562
381,4.273582,1,2,-1,1051,-1,-1553
382,4.285188,2,1,1,1045,-1,-1553
383,4.296854,0,-1,0,1049,0,-1558
384,4.30852,1,1,-3,1047,4,-1556
385,4.320189,1,0,1,1047,1,-1566
386,4.331848,2,3,-4,1046,-1,-1559
387,4.343497,3,4,-1,1046,-1,-1556
388,4.355168,2,1,0,1047,2,-1557
389,4.366828,3,2,-1,1052,3,-1552
390,4.378475,1,1,1,1047,0,-1556
391,4.390134,2,2,-1,1049,0,-1558
392,4.401684,0,1,-1,1050,0,-1558
393,4.413288,0,-1,1,1053,1,-1558
394,4.424835,1,2,3,1048,0,-1560
395,4.43638,3,1,0,1046,0,-1555
396,4.447927,1,2,-1,1047,0,-1557
397,4.459474,1,0,0,1047,3,-1565
398,4.471044,0,2,-1,1047,1,-1557
399,4.482587,2,2,-1,1045,0,-1563
400,4.49414,1,3,0,1047,1,-1554
401,4.505764,-1,0,0,1047,1,-1559
402,4.51742,1,1,0,1048,0,-1564
403,4.529098,0,2,-1,1052,1,-1554
404,4.540756,2,1,2,1048,0,-1564
405,4.552405,1,1,3,1046,0,-1558
406,4.564077,1,1,-1,1048,2,-1561
407,4.575729,2,4,-1,1048,0,-1552
408,4.587371,1,1,1,1046,0,-1559
409,4.59903,1,1,-1,1050,1,-1560
410,4.610719,1,0,-3,1048,-3,-1560
411,4.622294,0,3,2,1049,0,-1560
412,4.633842,2,3,2,1044,0,-1561
413,4.645409,1,1,2,1046,0,-1563
414,4.656953,1,0,2,1047,-1,-1562
415,4.668501,-1,0,0,1048,-2,-1555
416,4.680062,2,3,-1,1050,1,-1558
417,4.691647,1,0,1,1051,-1,-1561
418,4.703208,3,1,3,1049,0,-1562
419,4.714829,0,1,1,1046,3,-1559
420,4.72651,2,3,1,1046,0,-1558
421,4.738178,2,3,0,1048,-2,-1559
422,4.749836,2,2,2,1047,1,-1557
423,4.761518,1,2,1,1047,1,-1564
424,4.773199,2,0,-1,1045,0,-1561
425,4.784853,2,2,3,1051,0,-1564
426,4.796507,0,2,0,1046,2,-1558
427,4.808187,0,0,1,1046,-2,-1558
428,4.819845,2,1,2,1048,0,-1564
429,4.831408,3,1,0,1049,0,-1558
430,4.842952,-1,2,1,1045,0,-1564
431,4.854495,2,1,1,1048,-5,-1556
432,4.866041,3,1,0,1047,0,-1560
433,4.877601,1,3,-1,1044,0,-1558
434,4.889165,1,5,2,1049,1,-1564
435,4.90072,1,1,0,1048,2,-1555
436,4.912315,0,1,0,1051,0,-1565
437,4.923949,1,0,-2,1049,1,-1558
438,4.935598,0,1,0,1050,-2,-1566
439,4.947301,3,0,2,1047,0,-1563
440,4.958969,1,-1,0,1049,0,-1559
441,4.970626,2,1,1,1048,-3,-1559
442,4.982297,2,1,-1,1048,0,-1556
443,4.993986,0,2,0,1047,2,-1562
444,5.005633,1,1,1,1048,0,-1556
445,5.017324,2,3,0,1044,2,-1560
446,5.028996,1,1,0,1053,2,-1562
447,5.040557,-1,2,0,1045,3,-1559
448,5.05215,1,1,1,1047,-1,-1554
449,5.063692,1,3,-1,1048,0,-1557
450,5.075228,1,1,0,1047,-1,-1554
451,5.086775,0,2,-1,1046,-1,-1556
452,5.09835,0,4,-1,1052,0,-1556
453,5.109897,1,4,0,1049,0,-1561
454,5.121481,2,4,1,1045,3,-1564
455,5.133112,0,4,0,1048,-4,-1559
456,5.144817,0,0,-1,1048,0,-1555
457,5.15649,1,-1,0,1053,1,-1557
458,5.168154,2,3,0,1045,2,-1550
459,5.179847,2,2,0,1048,0,-1561
460,5.191493,0,1,-1,1047,0,-1559
461,5.203148,1,3,2,1046,0,-1555
462,5.214835,1,1,0,1044,0,-1558
463,5.226492,1,0,-1,1049,4,-1553
464,5.23818,0,0,-1,1046,3,-1566
465,5.249729,1,1,1,1048,-4,-1557
466,5.261282,2,0,-2,1052,0,-1563
467,5.272862,1,2,1,1049,-3,-1563
468,5.284432,1,3,0,1050,-2,-1563
469,5.296014,0,0,0,1047,-1,-1566
470,5.307552,3,3,1,1046,0,-1556
471,5.31909,0,1,-1,1050,0,-1563
472,5.330648,-1,3,0,1050,0,-1561
473,5.342265,1,3,0,1048,1,-1555
474,5.35391,2,3,1,1050,0,-1559
475,5.365567,1,1,1,1047,0,-1559
476,5.377238,2,1,0,1048,-1,-1558
477,5.388851,1,4,-1,1047,-2,-1561
478,5.400506,3,1,0,1047,1,-1557
479,5.412203,2,1,-2,1047,0,-1561
480,5.423857,0,2,2,1049,2,-1559
481,5.435518,1,2,0,1048,-2,-1557
482,5.447185,-1,2,1,1045,4,-1564
483,5.458774,3,1,0,1044,0,-1562
484,5.470403,1,2,0,1048,-2,-1553
485,5.481987,-1,3,1,1054,1,-1553
486,5.493554,3,3,0,1046,1,-1558
487,5.505105,2,1,0,1047,-3,-1556
488,5.516677,-1,1,0,1049,0,-1559
489,5.528231,1,0,0,1047,5,-1562
490,5.539789,0,1,-1,1048,1,-1559
491,5.551466,1,2,0,1048,0,-1559
492,5.563123,-1,4,1,1044,1,-1559
493,5.574781,1,3,0,1049,0,-1556
494,5.586451,1,1,1,1048,-1,-1552
495,5.598096,3,2,-1,1048,-1,-1557
496,5.609739,1,3,2,1045,-2,-1557
497,5.621373,3,1,0,1047,3,-1557
498,5.633046,0,0,0,1049,0,-1558
499,5.644734,1,0,0,1047,-1,-1559
500,5.656413,1,0,1,1046,0,-1563
501,5.667974,2,-1,-1,1049,4,-1559
502,5.679529,1,2,0,1046,0,-1561
503,5.691081,2,1,0,1052,3,-1559
504,5.702625,0,2,1,1049,2,-1554
505,5.714172,0,3,-3,1048,2,-1554
506,5.725723,2,1,3,1048,0,-1556
507,5.737281,2,2,0,1048,2,-1558
508,5.748806,0,2,0,1052,0,-1564
509,5.760471,2,1,0,1043,3,-1558
510,5.77213,0,2,1,1048,1,-1555
511,5.783825,1,4,1,1048,0,-1557
512,5.795473,1,0,1,1044,-3,-1564
513,5.807124,2,1,1,1049,1,-1552
514,5.818805,0,2,0,1048,-1,-1555
515,5.83045,1,1,-1,1052,0,-1559
516,5.842128,2,1,3,1049,2,-1556
517,5.853825,1,1,0,1048,0,-1556
518,5.865517,1,0,-1,1049,-1,-1560
519,5.87704,1,-1,1,1049,0,-1553
520,5.888559,0,2,0,1049,0,-1559
521,5.900079,0,1,-1,1047,0,-1558
522,5.911623,2,2,0,1043,6,-1561
523,5.923167,-1,1,0,1045,4,-1564
524,5.934707,2,1,0,1045,-2,-1561
525,5.94625,0,3,1,1045,0,-1560
526,5.957808,0,1,0,1048,0,-1556
527,5.969443,1,1,1,1048,3,-1565
528,5.981113,3,2,1,1047,0,-1561
529,5.992775,1,1,1,1046,0,-1561
530,6.004465,1,2,0,1047,0,-1563
531,6.016084,1,2,-2,1046,0,-1559
532,6.027729,3,1,0,1045,0,-1558
533,6.039391,2,2,2,1052,1,-1558
534,6.051056,2,0,-1,1045,0,-1554
535,6.062717,1,2,1,1047,2,-1557
536,6.074369,2,0,-1,1046,1,-1561
537,6.086041,1,2,-1,1048,0,-1558
538,6.097702,2,1,0,1048,1,-1554
539,6.109378,2,0,2,1044,2,-1558
540,6.121052,-1,-1,0,1050,1,-1566
541,6.132723,3,2,-1,1048,2,-1557
542,6.144391,2,2,0,1044,2,-1557
543,6.156072,1,1,0,1050,0,-1559
544,6.167749,3,0,-1,1047,0,-1554
545,6.179422,2,3,1,1050,1,-1558
546,6.191069,3,4,3,1049,-1,-1556
547,6.202715,2,1,1,1051,2,-1561
548,6.214413,1,1,0,1048,0,-1559
549,6.226066,0,0,4,1047,-4,-1556
550,6.237734,3,1,-2,1049,0,-1565
551,6.249375,1,3,1,1049,2,-1555
552,6.261056,3,2,1,1047,-1,-1566
553,6.272728,0,0,1,1050,0,-1557
554,6.284391,2,2,0,1045,0,-1558
555,6.295955,2,3,-1,1046,2,-1561
556,6.307518,2,3,-1,1046,2,-1557
557,6.319069,3,0,-3,1045,2,-1554
558,6.330634,1,1,1,1047,1,-1560
559,6.34219,1,1,2,1046,-3,-1559
560,6.353761,2,1,0,1050,0,-1564
561,6.365284,1,2,-1,1047,4,-1561
562,6.376876,1,0,0,1049,4,-1555
563,6.3885,2,2,1,1045,1,-1557
564,6.400164,1,2,-1,1047,-1,-1556
565,6.411815,3,-1,-1,1051,0,-1555
566,6.423466,1,1,1,1046,-2,-1562
567,6.435118,-1,0,1,1050,5,-1559
568,6.446765,1,1,-1,1044,2,-1560
569,6.458417,0,1,0,1047,3,-1559
570,6.470084,0,2,-1,1046,0,-1555
571,6.481736,1,2,-2,1046,2,-1558
572,6.493392,0,1,-1,1050,1,-1553
573,6.505053,1,0,-1,1049,0,-1564
574,6.516732,1,0,1,1045,0,-1562
575,6.528408,2,1,0,1048,0,-1559
576,6.540084,2,2,-3,1047,-2,-1558
577,6.55175,0,3,0,1045,1,-1563
578,6.563426,3,1,-1,1046,0,-1555
579,6.575076,2,0,-1,1049,1,-1554
580,6.586857,3,1,1,1043,-2,-1559
581,6.598513,1,2,0,1046,0,-1555
582,6.610129,1,-2,-2,1046,0,-1568
583,6.621683,3,2,-1,1045,0,-1554
584,6.633259,1,1,-2,1047,0,-1563
585,6.644795,1,1,-1,1045,3,-1560
586,6.656313,1,1,-1,1047,1,-1559
587,6.667852,0,1,1,1045,-2,-1561
588,6.679393,2,3,2,1050,2,-1558
589,6.690947,1,2,-1,1044,1,-1557
590,6.702564,0,2,0,1046,-1,-1562
591,6.71422,0,1,1,1050,-3,-1562
592,6.725886,0,0,3,1046,-2,-1557
593,6.73756,0,0,-1,1046,0,-1560
594,6.749246,3,1,-1,1046,-1,-1556
595,6.760906,0,1,-1,1046,-4,-1564
596,6.772587,-1,0,0,1047,1,-1562
597,6.784249,1,1,1,1048,1,-1566
598,6.795915,1,3,0,1046,0,-1555
599,6.807565,2,1,0,1051,0,-1562
600,6.819131,4,1,2,1047,0,-1564
601,6.830702,1,-1,0,1046,0,-1565
602,6.842259,1,1,2,1046,2,-1557
603,6.853812,1,1,2,1046,3,-1557
604,6.865379,3,-2,2,1049,2,-1568
605,6.876928,0,1,1,1044,0,-1559
606,6.888477,1,0,1,1043,1,-1562
607,6.900038,2,1,0,1046,1,-1562
608,6.911696,2,3,1,1048,-5,-1562
609,6.92335,1,3,0,1050,0,-1565
610,6.935044,1,5,0,1046,-3,-1560
611,6.946713,2,1,0,1048,3,-1557
612,6.95836,1,0,0,1048,0,-1559
613,6.970032,2,2,0,1047,2,-1556
614,6.981693,2,1,0,1046,4,-1558
615,6.993367,1,1,1,1047,0,-1564
616,7.005037,1,1,1,1046,-2,-1563
617,7.016704,2,3,1,1050,2,-1565
618,7.028258,2,0,-1,1046,1,-1557
619,7.0398,2,3,0,1047,3,-1561
620,7.05136,2,2,-1,1044,-2,-1558
621,7.062908,-1,2,0,1046,-3,-1564
622,7.07445,1,1,0,1047,3,-1557
623,7.08599,0,3,0,1046,0,-1555
624,7.097538,2,1,0,1050,-4,-1557
625,7.109126,0,1,1,1046,-1,-1556
626,7.120817,2,1,2,1049,0,-1557
627,7.13249,1,3,0,1053,1,-1560
628,7.144137,-1,1,0,1049,0,-1563
629,7.155797,1,0,2,1048,0,-1563
630,7.167449,1,0,0,1047,0,-1555
631,7.179093,1,1,1,1046,1,-1558
632,7.19074,1,1,1,1047,0,-1562
633,7.20241,2,1,0,1049,0,-1562
634,7.214063,2,3,0,1049,0,-1557
635,7.225712,2,3,-1,1051,0,-1557
636,7.237393,1,0,0,1041,4,-1557
637,7.249042,2,0,-1,1048,-1,-1566
638,7.260722,1,0,-1,1047,-1,-1560
639,7.272403,0,1,2,1049,2,-1563
640,7.284079,1,1,2,1051,0,-1560
641,7.295726,3,0,0,1049,1,-1560
642,7.307393,0,0,0,1049,-2,-1559
643,7.319081,2,-1,-2,1049,1,-1561
644,7.330785,2,0,-1,1044,0,-1557
645,7.342367,2,3,1,1050,-1,-1559
646,7.353935,3,1,1,1047,0,-1561
647,7.365512,1,1,0,1048,0,-1561
648,7.377043,0,3,0,1047,5,-1556
649,7.388613,3,1,-2,1047,6,-1561
650,7.400207,2,2,1,1047,2,-1567
651,7.411839,1,0,-2,1047,0,-1562
652,7.423405,3,1,-1,1046,-2,-1561
653,7.434951,-1,1,-1,1046,0,-1556
654,7.446498,2,0,-2,1051,1,-1555
655,7.458051,1,1,-1,1044,0,-1558
656,7.469648,0,2,0,1049,-3,-1559
657,7.481282,1,2,2,1046,-1,-1562
658,7.492856,0,1,2,1048,0,-1560
659,7.504442,1,1,0,1046,-1,-1561
660,7.516004,3,0,2,1049,0,-1556
661,7.527662,1,4,0,1046,-1,-1558
662,7.539309,1,2,1,1044,3,-1556
663,7.551021,2,3,1,1045,-2,-1564
664,7.562673,2,1,-2,1046,0,-1560
665,7.574322,1,0,1,1050,0,-1564
666,7.585992,2,0,-1,1044,3,-1562
667,7.597663,2,2,0,1049,-1,-1563
668,7.609352,1,0,0,1047,2,-1562
669,7.62103,2,3,-1,1048,1,-1557
670,7.632686,0,-1,-1,1048,0,-1559
671,7.644343,2,2,0,1050,0,-1564
672,7.656017,2,0,1,1048,2,-1552
673,7.667672,3,4,0,1044,0,-1564
674,7.679323,2,2,-1,1048,0,-1552
675,7.691032,1,1,2,1045,0,-1556
676,7.702672,1,2,0,1050,-3,-1556
677,7.71432,3,3,-2,1047,0,-1554
678,7.726006,3,2,-2,1046,2,-1560
679,7.73769,2,2,0,1048,0,-1557
680,7.749393,0,2,2,1052,4,-1564
681,7.76105,1,0,-1,1045,0,-1560
682,7.772759,2,2,-1,1044,2,-1565
683,7.784414,2,2,1,1048,0,-1559
684,7.796083,3,1,0,1044,4,-1554
685,7.807758,1,2,2,1045,2,-1554
686,7.819407,2,3,2,1049,0,-1558
687,7.831054,0,1,-1,1045,-3,-1561
688,7.84278,1,2,-1,1047,4,-1564
689,7.854415,2,0,-1,1048,2,-1560
690,7.865985,1,3,1,1051,2,-1560
691,7.877533,2,2,-1,1052,-3,-1558
692,7.889107,2,2,2,1044,2,-1558
693,7.900675,1,-1,0,1046,2,-1565
694,7.912222,2,2,0,1046,3,-1557
695,7.923767,2,1,0,1043,0,-1559
696,7.935333,1,1,0,1047,2,-1558
697,7.946889,0,4,-1,1048,2,-1555
698,7.958591,2,1,-1,1050,-1,-1562
699,7.970241,2,-1,0,1048,-1,-1554
700,7.981915,2,2,-1,1044,1,-1550
701,7.993574,0,2,2,1048,0,-1559
702,8.005247,3,0,-1,1047,4,-1559
703,8.016909,1,1,0,1048,-2,-1558
704,8.028606,2,1,1,1047,1,-1563
705,8.040285,0,0,1,1043,-1,-1563
706,8.051945,2,1,1,1045,-2,-1559
707,8.063658,1,1,2,1050,-3,-1561
708,8.075232,0,0,0,1044,0,-1559
709,8.086795,2,2,2,1046,2,-1560
710,8.098345,1,1,0,1047,2,-1560
711,8.109892,0,2,-1,1049,-1,-1565
712,8.121449,1,1,0,1050,-4,-1558
713,8.133025,1,2,0,1047,-3,-1553
714,8.144563,2,2,2,1048,-1,-1557
715,8.156129,2,1,0,1050,0,-1563
716,8.167775,1,-2,1,1047,2,-1554
717,8.17943,1,2,0,1048,-4,-1561
718,8.19107,2,-1,0,1048,0,-1560
719,8.202715,3,1,1,1046,0,-1557
720,8.214384,1,2,-1,1048,3,-1567
721,8.226028,1,0,-1,1045,-1,-1554
722,8.237673,1,1,0,1042,-2,-1560
723,8.249368,1,0,-2,1046,1,-1562
724,8.261042,3,-1,0,1047,-1,-1556
725,8.272722,0,1,-1,1047,1,-1560
726,8.284401,1,3,-1,1049,0,-1559
727,8.296076,2,0,0,1048,-1,-1558
728,8.30775,1,3,0,1041,3,-1563
729,8.319405,1,4,0,1048,0,-1557
730,8.331053,3,0,1,1050,-1,-1557
731,8.342707,3,2,1,1050,-1,-1565
732,8.354352,1,0,-1,1049,-3,-1561
733,8.366029,1,2,0,1046,0,-1562
734,8.377699,-1,2,-2,1044,3,-1561
735,8.389285,0,1,-1,1046,0,-1558
736,8.400861,2,2,0,1051,-1,-1558
737,8.412453,2,4,-1,1046,0,-1560
738,8.424003,3,2,1,1048,0,-1555
739,8.435598,0,1,-1,1045,0,-1557
740,8.447138,0,2,0,1046,-2,-1565
741,8.458694,2,0,-1,1045,4,-1558
742,8.470253,1,2,0,1044,-1,-1561
743,8.481893,0,3,0,1049,0,-1563
744,8.493551,1,1,-1,1047,0,-1555
745,8.505272,0,3,-2,1048,1,-1562
746,8.516922,1,2,0,1046,0,-1557
747,8.528608,2,1,0,1047,-2,-1557
748,8.540272,1,1,0,1043,-3,-1554
749,8.551922,1,1,-2,1047,5,-1559
750,8.563575,2,1,2,1046,0,-1564
751,8.575235,1,2,0,1047,1,-1561
752,8.586919,1,1,0,1045,2,-1552
753,8.598474,2,2,0,1050,0,-1558
754,8.610019,1,4,2,1047,1,-1555
755,8.62157,2,1,0,1045,0,-1558
756,8.633118,3,0,2,1043,0,-1559
757,8.644677,2,0,1,1045,0,-1563
758,8.656225,3,3,-1,1051,4,-1557
759,8.667788,0,3,-2,1047,0,-1556
760,8.679359,0,2,0,1049,4,-1555
761,8.691012,2,2,0,1049,0,-1561
762,8.702673,1,2,0,1050,0,-1561
763,8.714317,1,0,0,1044,0,-1560
764,8.725987,1,2,-2,1047,4,-1560
765,8.737651,0,-1,1,1045,4,-1559
766,8.749293,2,3,1,1048,0,-1554
767,8.760983,2,2,3,1042,-3,-1559
768,8.772656,1,1,1,1049,0,-1560
769,8.784317,1,2,0,1045,0,-1560
770,8.79587,0,0,0,1052,-3,-1557
771,8.807446,0,1,-2,1044,0,-1557
772,8.818997,2,2,-1,1050,3,-1564
773,8.830592,2,1,-1,1046,2,-1565
774,8.842141,0,2,1,1046,1,-1560
775,8.853705,1,0,-1,1048,-1,-1558
776,8.865267,3,1,-1,1049,0,-1565
777,8.876795,1,3,2,1050,2,-1555
778,8.888326,1,0,0,1047,-1,-1561
779,8.89995,3,2,0,1050,2,-1557
780,8.911597,1,2,1,1045,0,-1561
781,8.923255,1,1,1,1048,0,-1560
782,8.934906,2,1,-1,1047,-2,-1562
783,8.946542,0,1,0,1049,-2,-1558
784,8.958189,4,-1,-2,1050,1,-1559
785,8.969856,3,1,-2,1046,0,-1560
786,8.981521,1,3,1,1048,1,-1560
787,8.99319,1,2,-1,1046,0,-1565
788,9.004865,3,0,0,1049,0,-1564
789,9.016466,1,3,1,1048,-1,-1559
790,9.028012,1,3,0,1049,-1,-1558
791,9.039566,2,1,0,1047,0,-1554
792,9.051112,1,2,0,1046,1,-1561
793,9.062678,2,1,0,1046,0,-1564
794,9.074219,2,1,0,1048,-1,-1561
795,9.085757,0,1,0,1046,-1,-1559
796,9.097287,-1,0,-1,1048,-2,-1561
797,9.108918,1,3,1,1045,1,-1550
798,9.120598,1,3,-2,1047,2,-1557
799,9.132259,2,0,0,1047,-2,-1552
800,9.143912,2,2,-1,1046,-3,-1558
801,9.155553,0,0,0,1047,0,-1561
802,9.167199,1,2,0,1045,-3,-1559
803,9.178889,0,0,0,1047,-1,-1560
804,9.190533,2,0,0,1049,0,-1565
805,9.202211,0,1,-2,1046,0,-1565
806,9.213875,1,2,0,1049,1,-1559
807,9.225456,0,1,0,1047,0,-1560
808,9.237026,1,1,0,1047,0,-1559
809,9.248555,0,2,0,1046,0,-1562
810,9.260073,0,2,0,1048,0,-1562
811,9.271617,2,0,0,1046,3,-1558
812,9.283161,2,0,0,1048,0,-1564
813,9.294724,1,1,-1,1046,3,-1557
814,9.30641,2,1,1,1043,0,-1565
815,9.318034,1,2,-2,1049,0,-1557
816,9.329695,3,1,-1,1048,-4,-1562
817,9.341383,1,-1,0,1046,1,-1562
818,9.353036,1,-1,0,1051,2,-1553
819,9.364718,-1,1,0,1046,3,-1562
820,9.376391,2,0,0,1047,0,-1559
821,9.388059,2,2,0,1044,0,-1554
822,9.399709,2,2,0,1045,1,-1559
823,9.411394,1,0,0,1047,0,-1553
824,9.423043,2,-1,-2,1043,1,-1555
825,9.434689,1,1,2,1050,1,-1564
826,9.446362,0,1,2,1046,0,-1555
827,9.458016,-1,2,-2,1049,2,-1560
828,9.469698,1,0,-1,1049,0,-1560
829,9.481374,0,4,-3,1049,1,-1553
830,9.493027,2,3,-2,1046,-1,-1564
831,9.504679,1,3,1,1047,-1,-1562
832,9.51637,1,-2,-1,1045,0,-1556
833,9.528066,0,3,0,1042,0,-1560
834,9.539631,1,1,0,1044,0,-1556
835,9.551221,2,2,3,1046,-1,-1562
836,9.562769,0,0,-3,1049,4,-1559
837,9.574333,1,3,-1,1047,0,-1562
838,9.585923,2,0,2,1045,0,-1556
839,9.597479,1,0,-1,1050,0,-1560
840,9.609051,1,1,-1,1048,1,-1551
841,9.620667,3,1,-2,1046,4,-1561
842,9.632301,1,-1,1,1047,-2,-1560
843,9.643982,2,3,0,1049,-1,-1560
844,9.655638,2,0,0,1042,1,-1562
845,9.667286,1,1,0,1051,-1,-1567
846,9.678934,1,3,1,1046,-2,-1555
847,9.69058,3,1,0,1047,0,-1558
848,9.702234,0,1,-1,1046,1,-1557
849,9.71389,1,0,0,1047,0,-1556
850,9.725551,1,2,1,1048,3,-1557
851,9.73725,1,3,0,1048,1,-1569
852,9.74891,2,0,0,1047,-1,-1558
853,9.760582,4,0,0,1043,0,-1553
854,9.772244,2,2,0,1048,1,-1563
855,9.783895,2,1,2,1045,-2,-1555
856,9.795536,1,3,0,1045,0,-1561
857,9.807181,1,1,1,1049,0,-1563
858,9.818838,1,0,-1,1044,0,-1551
859,9.830558,2,1,0,1046,0,-1561
860,9.842224,0,3,-1,1045,-2,-1557
861,9.853826,1,0,-1,1046,-3,-1562
862,9.865407,1,1,0,1047,2,-1562
863,9.876967,1,2,0,1046,1,-1567
864,9.888538,0,1,-1,1050,1,-1555
865,9.900075,0,2,0,1043,2,-1565
866,9.91168,1,2,-2,1046,0,-1561
867,9.923231,2,-1,0,1047,4,-1559
868,9.934819,3,0,1,1046,1,-1554
869,9.946456,2,0,0,1047,5,-1558
870,9.958118,-1,1,1,1049,3,-1561
871,9.969769,2,3,-1,1045,4,-1561
872,9.981442,1,2,1,1052,2,-1564
873,9.993111,1,1,-1,1048,1,-1559
874,10.004772,1,1,1,1048,-2,-1554
875,10.016462,2,1,-1,1049,-1,-1558
876,10.028124,0,1,0,1045,0,-1556
877,10.039785,1,0,1,1048,0,-1560
878,10.051447,0,3,-2,1049,0,-1566
879,10.062998,0,0,0,1048,-2,-1557
880,10.074566,1,2,0,1045,1,-1559
881,10.086118,0,0,0,1048,1,-1568
882,10.097686,2,1,1,1051,-1,-1558
883,10.109252,1,1,2,1046,-1,-1562
884,10.120804,2,2,-1,1049,3,-1558
885,10.132313,2,1,0,1047,1,-1558
886,10.143867,3,2,0,1046,0,-1562
887,10.155493,3,1,0,1047,-3,-1559
888,10.167146,1,2,0,1048,2,-1554
889,10.178792,1,3,-2,1047,0,-1552
890,10.190457,1,1,0,1046,0,-1565
891,10.202123,2,2,0,1047,-1,-1561
892,10.213767,2,2,0,1046,-1,-1556
893,10.225432,1,1,1,1047,-1,-1558
894,10.237113,3,2,0,1049,4,-1562
895,10.248776,1,1,1,1045,1,-1558
896,10.260467,0,-2,1,1048,-2,-1563
897,10.272134,1,2,1,1047,0,-1563
898,10.283826,0,1,0,1046,0,-1554
899,10.295479,3,1,1,1049,-1,-1560
900,10.307136,1,2,0,1048,2,-1564
901,10.318834,-1,0,0,1045,0,-1558
902,10.330582,1,0,0,1050,3,-1559
903,10.342258,1,-1,-2,1048,-2,-1562
904,10.353914,1,2,1,1045,2,-1560
905,10.365624,1,1,1,1049,-1,-1559
906,10.377193,0,1,0,1048,0,-1563
907,10.388738,3,2,0,1045,3,-1560
908,10.400306,1,2,-1,1048,-2,-1557
909,10.411853,1,2,-1,1044,-1,-1557
910,10.4234,1,-1,-2,1048,0,-1556
911,10.434949,1,0,-1,1048,0,-1560
912,10.446531,1,1,1,1048,0,-1554
913,10.458093,1,1,0,1045,0,-1559
914,10.469735,1,2,2,1047,0,-1561
915,10.481379,2,0,0,1046,1,-1563
916,10.49303,2,1,2,1046,-1,-1554
917,10.504677,2,-1,2,1046,-1,-1561
918,10.516348,2,1,1,1049,-1,-1558
919,10.527989,1,-1,1,1049,0,-1555
920,10.539635,1,0,-2,1049,0,-1552
921,10.55128,1,-1,1,1048,0,-1559
922,10.562953,0,1,-1,1048,2,-1556
923,10.574609,1,2,0,1046,2,-1557
924,10.586249,0,3,-1,1052,0,-1564
925,10.597897,1,2,1,1048,-3,-1559
926,10.609556,0,0,0,1049,-2,-1561
927,10.621242,0,2,1,1049,1,-1556
928,10.632893,0,0,2,1044,2,-1557
929,10.644578,0,0,0,1051,0,-1563
930,10.656272,2,0,-1,1045,0,-1552
931,10.66795,1,2,0,1048,2,-1554
932,10.679618,1,1,2,1050,0,-1562
933,10.691279,1,0,-1,1048,-2,-1560
934,10.702927,3,2,2,1048,-1,-1558
935,10.714597,2,1,-2,1047,0,-1556
936,10.726234,2,2,-2,1044,1,-1561
937,10.737884,2,2,1,1048,0,-1561
938,10.749544,1,1,2,1050,-4,-1560
939,10.761231,0,0,0,1048,3,-1560
940,10.772887,1,1,1,1047,2,-1558
941,10.784554,1,0,0,1052,0,-1563
942,10.796224,1,1,-2,1047,5,-1565
943,10.807874,3,1,0,1047,-2,-1560
944,10.819521,1,1,-1,1048,2,-1565
945,10.831179,0,2,1,1050,1,-1562
946,10.842852,0,4,-1,1048,0,-1557
947,10.854499,0,2,0,1047,3,-1561
948,10.866147,0,-1,1,1049,0,-1560
949,10.877822,2,2,0,1049,1,-1567
950,10.889499,1,2,1,1050,-1,-1563
951,10.901147,1,3,0,1047,2,-1555
952,10.912839,0,0,0,1049,2,-1552
953,10.9245,3,2,1,1047,2,-1561
954,10.936154,2,3,-1,1048,0,-1562
955,10.947823,-1,0,-2,1047,1,-1558
956,10.959477,1,1,0,1052,1,-1562
957,10.971127,1,0,0,1049,0,-1560
958,10.982798,1,1,1,1050,-1,-1561
959,10.99446,3,-1,0,1048,-1,-1559
960,11.006115,2,1,0,1047,0,-1563
961,11.017755,1,0,0,1045,-1,-1565
962,11.029446,0,1,3,1049,0,-1552
963,11.041112,2,2,1,1047,-2,-1560
964,11.05278,2,-1,0,1047,0,-1561
965,11.064473,2,1,0,1045,0,-1557
966,11.07613,0,2,-3,1050,-1,-1558
967,11.087772,1,2,1,1047,-2,-1557
968,11.099326,1,0,1,1044,0,-1560
969,11.110891,2,0,2,1047,-2,-1554
970,11.122428,1,3,-2,1046,0,-1557
971,11.133969,2,1,1,1044,0,-1558
972,11.14552,1,0,1,1047,0,-1559
973,11.157051,1,0,2,1048,2,-1562
974,11.168598,0,2,1,1046,-2,-1567
975,11.180143,-1,0,0,1045,-3,-1559
976,11.191742,3,1,1,1048,0,-1559
977,11.203375,0,3,2,1049,0,-1555
978,11.215036,1,1,4,1045,0,-1553
979,11.22669,-1,1,1,1045,0,-1556
980,11.238363,0,2,-1,1048,1,-1560
981,11.250018,2,3,-1,1044,-4,-1561
982,11.261673,1,-3,-2,1046,1,-1560
983,11.273367,0,0,1,1050,0,-1558
984,11.285024,0,2,-2,1046,2,-1565
985,11.296693,1,1,-2,1048,-1,-1559
986,11.308344,-1,-1,-1,1046,3,-1560
987,11.319994,0,2,3,1046,0,-1561
988,11.331641,1,3,-3,1043,-2,-1556
989,11.343329,2,0,0,1051,0,-1557
990,11.355024,0,2,0,1044,2,-1561
991,11.366682,-1,2,0,1047,4,-1554
992,11.378354,1,2,0,1049,0,-1551
993,11.390001,3,1,2,1048,-2,-1570
994,11.401749,0,1,1,1045,0,-1559
995,11.413401,4,1,1,1049,0,-1562
996,11.424976,1,-1,-1,1046,0,-1557
997,11.436556,3,2,0,1044,2,-1555
998,11.448131,1,3,1,1049,4,-1562
999,11.459677,0,1,1,1046,-3,-1557
1000,11.47122,1,1,0,1045,3,-1558
1001,11.482776,1,4,1,1045,3,-1560
1002,11.494322,1,0,-1,1045,0,-1560
1003,11.505882,1,1,2,1052,0,-1559
1004,11.517523,2,1,1,1047,3,-1561
1005,11.529198,0,-1,2,1052,-4,-1557
1006,11.54086,1,1,1,1045,0,-1556
1007,11.552519,3,2,0,1047,-2,-1557
1008,11.564211,0,1,1,1047,0,-1553
1009,11.575896,1,1,3,1048,0,-1561
1010,11.587649,0,-1,0,1047,1,-1566
1011,11.599326,0,1,-1,1046,0,-1554
1012,11.610997,0,0,1,1051,1,-1553
1013,11.622708,2,0,-1,1049,2,-1565
1014,11.634289,3,0,0,1050,2,-1559
1015,11.645835,3,1,1,1045,1,-1560
1016,11.65741,1,1,3,1049,0,-1558
1017,11.668969,1,2,0,1046,1,-1561
1018,11.68056,1,0,0,1047,2,-1556
1019,11.692152,0,1,-1,1045,0,-1558
1020,11.703707,1,2,-1,1046,1,-1562
1021,11.715302,3,-1,0,1050,-2,-1564
1022,11.726922,1,1,2,1046,0,-1559
1023,11.738586,2,3,-1,1043,5,-1557
1024,11.750233,2,2,0,1051,-3,-1564
1025,11.761879,2,0,1,1052,0,-1559
1026,11.77359,2,0,0,1050,-2,-1560
1027,11.78526,-1,2,1,1046,0,-1556
1028,11.796976,0,1,1,1046,1,-1555
1029,11.808598,1,2,0,1049,2,-1560
1030,11.820262,1,1,-1,1046,0,-1558
1031,11.83193,2,2,1,1049,0,-1562
1032,11.843486,2,2,0,1045,-2,-1560
1033,11.855044,1,3,0,1046,1,-1558
1034,11.866597,3,3,0,1048,0,-1556
1035,11.878158,-1,1,0,1050,0,-1569
1036,11.889697,2,1,2,1051,4,-1562
1037,11.901278,1,1,0,1051,3,-1563
1038,11.912799,-1,0,0,1049,-1,-1557
1039,11.924332,1,1,0,1048,0,-1562
1040,11.935963,2,1,0,1049,-2,-1554
1041,11.947617,2,1,0,1046,3,-1558
1042,11.959272,2,3,-2,1050,2,-1556
1043,11.970939,2,-1,0,1045,0,-1557
1044,11.982592,2,0,1,1047,0,-1563
1045,11.994236,1,2,0,1048,-2,-1561
1046,12.005885,2,3,-1,1047,-4,-1556
1047,12.017536,0,0,-2,1046,-1,-1557
1048,12.029208,0,3,1,1049,0,-1558
1049,12.04086,1,2,0,1051,0,-1558
1050,12.052442,0,3,0,1049,1,-1563
1051,12.064029,0,2,-1,1046,-3,-1563
1052,12.075573,1,1,0,1045,-2,-1562
1053,12.087116,-1,2,0,1044,0,-1560
1054,12.098667,1,3,-2,1044,1,-1556
1055,12.11021,4,-1,0,1045,0,-1557
1056,12.121783,1,0,0,1050,0,-1558
1057,12.133338,1,2,1,1046,1,-1558
1058,12.144992,1,1,0,1051,-2,-1560
1059,12.15665,2,4,0,1045,0,-1559
1060,12.168345,3,0,0,1046,-3,-1559
1061,12.179997,2,1,-2,1048,0,-1555
1062,12.191635,2,1,-1,1046,-2,-1560
1063,12.203301,1,1,3,1048,-2,-1559
1064,12.214964,3,1,-1,1045,2,-1555
1065,12.226604,1,1,1,1047,3,-1560
1066,12.238263,1,1,0,1043,3,-1557
1067,12.249927,1,1,2,1049,2,-1562
1068,12.261516,3,0,-1,1046,1,-1554
1069,12.273045,1,0,1,1049,-1,-1562
1070,12.284576,2,1,0,1050,-1,-1562
1071,12.296127,0,-1,1,1051,1,-1556
1072,12.307669,1,2,3,1049,0,-1560
1073,12.319249,-1,3,1,1047,1,-1562
1074,12.330798,0,1,1,1048,-3,-1558
1075,12.342369,2,2,2,1047,1,-1558
1076,12.353992,2,2,0,1050,-3,-1562
1077,12.365637,1,3,1,1045,1,-1556
1078,12.37741,1,1,0,1048,-1,-1556
1079,12.389103,0,4,-1,1043,-1,-1558
1080,12.400767,1,3,3,1051,4,-1570
1081,12.412417,1,2,-3,1045,-1,-1559
1082,12.424081,1,1,1,1046,4,-1560
1083,12.435739,1,3,1,1045,2,-1562
1084,12.447398,1,2,-1,1047,1,-1562
1085,12.459081,0,-1,0,1045,1,-1560
1086,12.470655,-1,-1,1,1048,-3,-1553
1087,12.482195,0,3,0,1047,3,-1551
1088,12.493747,2,3,2,1050,0,-1555
1089,12.505282,1,-1,1,1047,0,-1563
1090,12.516914,1,3,1,1048,0,-1559
1091,12.528499,1,1,0,1049,0,-1557
1092,12.540076,2,1,0,1048,-1,-1562
1093,12.551659,2,1,2,1046,-4,-1555
1094,12.563277,2,1,-2,1045,-1,-1558
1095,12.574947,2,1,1,1048,0,-1559
1096,12.586597,1,-1,-1,1049,-1,-1552
1097,12.598246,0,1,-1,1048,1,-1558
1098,12.609907,2,1,-3,1048,0,-1560
1099,12.621573,1,3,2,1046,-1,-1562
1100,12.633236,-1,-1,2,1047,0,-1565
1101,12.644855,0,1,0,1046,0,-1550
1102,12.656536,0,1,0,1044,3,-1560
1103,12.668225,0,1,0,1046,-1,-1560
1104,12.679876,1,0,0,1048,0,-1561
1105,12.691549,2,1,-1,1047,0,-1560
1106,12.703203,2,1,1,1049,2,-1562
1107,12.714849,3,1,0,1046,0,-1554
1108,12.726496,0,1,2,1049,0,-1552
1109,12.738152,2,0,0,1049,-1,-1561
1110,12.749811,3,1,-1,1046,1,-1557
1111,12.761519,2,2,-1,1047,0,-1569
1112,12.773185,1,1,-2,1049,0,-1555
1113,12.784855,0,2,-2,1048,-3,-1560
1114,12.796522,1,3,0,1051,-4,-1560
1115,12.808211,2,-1,0,1048,2,-1560
1116,12.81986,-1,0,1,1048,-2,-1563
1117,12.831518,1,2,-1,1043,0,-1559
1118,12.843183,1,1,1,1049,-1,-1559
1119,12.854838,1,2,2,1049,1,-1557
1120,12.866506,2,2,0,1045,2,-1564
1121,12.878202,1,1,-1,1050,0,-1553
1122,12.889854,0,3,1,1042,-1,-1560
1123,12.901506,2,2,-1,1044,0,-1555
1124,12.913176,1,1,0,1049,0,-1561
1125,12.924849,1,-1,1,1047,-3,-1563
1126,12.936498,1,1,1,1042,0,-1554
1127,12.948145,1,1,1,1046,-1,-1562
1128,12.959818,3,0,1,1047,-1,-1559
1129,12.971475,1,2,0,1051,0,-1563
1130,12.983172,1,0,1,1049,0,-1557
1131,12.994772,3,1,0,1048,-2,-1568
1132,13.006316,1,1,-1,1049,-2,-1558
1133,13.017872,2,-1,-3,1047,-2,-1557
1134,13.02943,2,1,-2,1048,1,-1560
1135,13.041001,3,1,0,1047,2,-1562
1136,13.052571,-1,1,2,1048,1,-1558
1137,13.064147,1,0,0,1048,-2,-1556
1138,13.075716,0,2,1,1047,-2,-1562
1139,13.087335,1,2,0,1051,0,-1555
1140,13.098997,0,2,0,1047,-1,-1558
1141,13.110644,1,2,1,1049,-2,-1560
1142,13.122297,2,1,0,1048,0,-1563
1143,13.133995,2,2,2,1049,1,-1562
1144,13.145668,0,0,1,1048,0,-1560
1145,13.157348,2,2,0,1045,0,-1560
1146,13.16905,2,2,0,1048,-1,-1559
1147,13.180744,3,2,-1,1047,-2,-1557
1148,13.192399,3,2,-1,1046,-3,-1554
1149,13.203988,2,0,1,1047,0,-1554
1150,13.215542,3,3,-1,1050,0,-1559
1151,13.22713,0,2,-1,1051,6,-1560
1152,13.238673,0,1,-2,1047,1,-1560
1153,13.250239,1,0,0,1048,-1,-1556
1154,13.261786,0,2,-1,1051,3,-1562
1155,13.273332,2,2,0,1048,-2,-1560
1156,13.284909,2,0,1,1046,-3,-1555
1157,13.296615,1,0,-1,1051,1,-1561
1158,13.308326,1,1,-1,1046,-1,-1559
1159,13.319986,1,0,2,1047,-2,-1553
1160,13.331669,1,2,0,1046,0,-1559
1161,13.343321,1,3,-1,1049,-1,-1558
1162,13.354979,1,0,-2,1042,1,-1564
1163,13.366673,0,3,-1,1048,3,-1563
1164,13.378321,2,1,0,1044,0,-1554
1165,13.390001,1,2,1,1045,2,-1553
1166,13.401813,1,1,0,1049,2,-1566
1167,13.413398,1,1,0,1046,-1,-1556
1168,13.424993,1,-1,0,1047,1,-1557
1169,13.43656,2,2,2,1048,2,-1563
1170,13.448128,3,3,1,1047,0,-1553
1171,13.45969,2,1,-1,1047,3,-1556
1172,13.471485,1,3,-1,1050,0,-1556
1173,13.483168,1,1,0,1048,0,-1557
1174,13.494742,1,0,1,1046,0,-1557
1175,13.506303,2,1,0,1051,0,-1564
1176,13.517862,2,0,3,1048,3,-1558
1177,13.529422,1,1,-2,1044,-3,-1560
1178,13.54102,3,-2,1,1045,-1,-1557
1179,13.552691,2,3,0,1045,1,-1561
1180,13.564251,1,1,1,1049,2,-1558
1181,13.575803,3,2,0,1047,0,-1557
1182,13.587367,2,2,1,1048,3,-1557
1183,13.598921,1,2,0,1046,-2,-1558
1184,13.610472,2,0,0,1049,2,-1557
1185,13.622067,2,0,1,1050,0,-1563
1186,13.633635,1,3,0,1048,0,-1556
1187,13.645194,4,3,2,1045,0,-1551
1188,13.65679,2,2,-1,1051,-2,-1557
1189,13.668377,1,0,-2,1051,1,-1564
1190,13.679925,2,1,-1,1048,-1,-1553
1191,13.691513,0,2,0,1048,0,-1561
1192,13.703207,-1,1,1,1048,3,-1558
1193,13.714867,0,2,-1,1046,0,-1553
1194,13.726548,1,2,0,1046,-2,-1563
1195,13.738187,2,2,1,1047,1,-1553
1196,13.749836,1,0,2,1052,0,-1552
1197,13.761517,1,2,1,1047,0,-1558
1198,13.773187,1,2,1,1050,1,-1560
1199,13.784859,2,1,-1,1047,-3,-1558
1200,13.796557,1,1,-1,1049,0,-1560
1201,13.808219,2,0,-1,1051,2,-1563
1202,13.819778,3,0,0,1047,1,-1559
1203,13.831383,1,1,0,1046,3,-1557
1204,13.842939,2,2,2,1044,4,-1558
1205,13.854501,2,3,0,1047,4,-1558
1206,13.866045,1,3,-1,1046,0,-1557
1207,13.877588,1,0,1,1048,5,-1559
1208,13.889161,0,3,2,1043,2,-1564
1209,13.90072,1,4,-1,1046,2,-1557
1210,13.912401,1,1,-2,1049,-1,-1562
1211,13.924081,1,3,0,1045,-1,-1561
1212,13.935733,0,1,-1,1046,0,-1559
1213,13.947411,1,2,1,1048,2,-1558
1214,13.959052,1,5,1,1048,-1,-1564
1215,13.970703,1,2,-1,1051,0,-1557
1216,13.982357,-1,4,1,1048,-1,-1563
1217,13.994047,2,2,1,1049,-1,-1555
1218,14.005694,0,2,-1,1047,-1,-1561
1219,14.017283,0,0,-1,1050,0,-1560
1220,14.028796,2,1,0,1046,4,-1562
1221,14.040315,2,0,1,1045,-2,-1562
1222,14.051861,2,-3,1,1046,2,-1561
1223,14.063409,1,1,2,1048,3,-1560
1224,14.074956,1,3,0,1047,0,-1563
1225,14.086516,1,3,0,1045,3,-1560
1226,14.098113,2,4,0,1046,4,-1555
1227,14.109744,1,1,-1,1048,-1,-1559
1228,14.121393,1,1,1,1044,-3,-1557
1229,14.133046,-1,-2,-1,1045,-4,-1551
1230,14.144721,0,0,-1,1046,0,-1557
1231,14.156398,0,0,1,1046,1,-1560
1232,14.168082,2,4,0,1051,-1,-1558
1233,14.179748,3,1,0,1049,0,-1557
1234,14.1914,3,-1,2,1044,2,-1555
1235,14.203072,2,2,0,1048,1,-1555
1236,14.214734,0,1,1,1051,2,-1558
1237,14.226296,3,-1,-2,1046,3,-1564
1238,14.237866,2,0,0,1045,2,-1556
1239,14.249414,1,2,-2,1047,0,-1565
1240,14.260973,2,0,0,1045,2,-1559
1241,14.272546,2,1,-1,1045,0,-1559
1242,14.284074,2,1,1,1046,4,-1561
1243,14.295616,2,2,1,1049,1,-1557
1244,14.307177,0,2,-1,1046,0,-1558
1245,14.318805,1,2,1,1046,0,-1557
1246,14.330459,2,0,-2,1046,2,-1558
1247,14.342116,0,0,1,1046,1,-1558
1248,14.353758,0,0,0,1048,1,-1562
1249,14.365521,3,1,3,1046,2,-1555
1250,14.377181,0,2,3,1054,-3,-1555
1251,14.388883,0,1,0,1049,1,-1558
1252,14.400547,2,2,1,1049,3,-1566
1253,14.412221,3,-2,0,1046,-2,-1563
1254,14.423903,0,3,-1,1048,0,-1564
1255,14.43547,2,1,2,1047,0,-1559
1256,14.447017,1,0,0,1047,2,-1563
1257,14.458558,-1,2,0,1047,3,-1561
1258,14.470102,2,1,0,1047,-1,-1559
1259,14.48165,3,0,0,1046,0,-1566
1260,14.493233,1,1,0,1046,1,-1555
1261,14.504797,0,-1,0,1050,0,-1556
1262,14.516381,2,1,-1,1048,0,-1557
1263,14.528009,0,3,0,1049,-2,-1562
1264,14.539666,2,2,1,1044,2,-1557
1265,14.551316,1,0,-1,1048,-1,-1559
1266,14.562967,2,3,1,1046,0,-1560
1267,14.57464,1,1,1,1050,1,-1556
1268,14.58629,3,0,0,1050,3,-1557
1269,14.597936,1,3,1,1049,0,-1558
1270,14.609634,1,3,-2,1048,0,-1554
1271,14.62131,1,0,1,1046,1,-1566
1272,14.632995,1,1,1,1046,3,-1561
1273,14.644665,2,3,-1,1045,3,-1564
1274,14.656329,1,2,1,1048,0,-1558
1275,14.667987,3,3,1,1050,1,-1565
1276,14.67966,1,3,-1,1048,3,-1557
1277,14.691308,3,1,2,1050,0,-1559
1278,14.70295,3,1,1,1046,2,-1559
1279,14.714591,2,0,2,1044,1,-1557
1280,14.726301,0,1,-1,1044,0,-1558
1281,14.737975,1,1,-1,1049,-2,-1561
1282,14.749619,2,2,3,1050,2,-1562
1283,14.761316,1,2,1,1048,0,-1554
1284,14.772982,0,1,0,1046,0,-1559
1285,14.784598,0,-1,-1,1049,0,-1563
1286,14.796272,0,4,1,1047,0,-1561
1287,14.807917,1,3,0,1050,-2,-1562
1288,14.819567,1,0,1,1046,1,-1561
1289,14.831244,1,2,1,1046,3,-1561
1290,14.842911,2,0,1,1046,0,-1561
1291,14.854562,1,2,-2,1046,2,-1557
1292,14.866211,0,0,1,1049,-1,-1564
1293,14.877869,1,1,0,1051,-2,-1556
1294,14.889533,3,3,0,1044,-2,-1559
1295,14.90118,0,1,-1,1047,0,-1557
1296,14.912864,2,1,0,1048,1,-1562
1297,14.924518,0,2,-1,1045,0,-1559
1298,14.93621,0,2,1,1043,1,-1558
1299,14.947864,1,2,0,1047,-1,-1560
1300,14.959536,1,2,-1,1049,3,-1557
1301,14.971182,0,2,0,1044,-3,-1564
1302,14.982842,0,0,0,1047,1,-1553
1303,14.994492,1,1,-1,1052,-1,-1559
1304,15.006142,2,3,-1,1049,0,-1557
1305,15.01781,1,0,0,1050,0,-1555
1306,15.029505,1,1,0,1048,-3,-1557
1307,15.041248,2,1,0,1049,0,-1556
1308,15.052937,-1,0,-1,1045,0,-1559
1309,15.064507,1,-1,0,1050,1,-1558
1310,15.076069,1,0,0,1049,-3,-1560
1311,15.087619,1,0,1,1046,-2,-1551
1312,15.099187,2,1,1,1049,0,-1559
1313,15.110765,1,2,-1,1047,-3,-1557
1314,15.122344,1,0,1,1046,-1,-1557
1315,15.133901,2,-1,-1,1043,0,-1560
1316,15.145468,2,0,1,1051,0,-1561
1317,15.157111,2,4,1,1047,0,-1555
1318,15.168775,-1,2,-1,1049,0,-1564
1319,15.180458,2,-1,0,1045,-1,-1561
1320,15.192084,1,1,-2,1049,2,-1552
1321,15.20375,0,2,3,1049,1,-1563
1322,15.215406,2,1,-2,1049,0,-1561
1323,15.227056,2,1,1,1044,1,-1564
1324,15.238705,0,4,-1,1047,4,-1557
1325,15.250381,2,0,1,1051,2,-1560
1326,15.262041,0,-1,-1,1049,1,-1560
1327,15.273604,1,3,1,1046,-1,-1562
1328,15.285165,2,2,0,1048,1,-1564
1329,15.296736,0,2,0,1047,0,-1566
1330,15.308315,1,2,1,1048,-2,-1558
1331,15.319865,2,2,1,1047,1,-1559
1332,15.331416,3,1,0,1049,-4,-1564
1333,15.342982,2,1,0,1049,-3,-1561
1334,15.354545,1,1,-1,1047,3,-1563
1335,15.366176,0,-1,1,1048,-1,-1560
1336,15.377826,0,1,-2,1047,0,-1563
1337,15.389527,0,1,-2,1050,0,-1556
1338,15.401194,1,2,1,1042,-1,-1561
1339,15.41286,1,-1,-2,1050,1,-1559
1340,15.424529,0,0,2,1045,0,-1566
1341,15.43621,2,2,2,1047,-3,-1558
1342,15.447876,1,0,-1,1048,-2,-1558
1343,15.459558,4,2,-2,1046,2,-1555
1344,15.471219,2,4,0,1047,1,-1559
1345,15.482806,1,2,2,1049,-3,-1555
1346,15.494353,-1,0,-2,1046,0,-1564
1347,15.505927,1,0,1,1048,-2,-1559
1348,15.517503,0,3,-2,1047,0,-1554
1349,15.529036,2,0,-1,1046,0,-1562
1350,15.540558,1,1,1,1047,0,-1557
1351,15.552072,1,0,-1,1046,-1,-1558
1352,15.563626,1,1,-1,1048,2,-1560
1353,15.575259,-1,4,1,1046,1,-1557
1354,15.586912,3,2,0,1050,-1,-1555
1355,15.598558,0,0,0,1052,-3,-1565
1356,15.610219,1,0,-1,1048,4,-1557
1357,15.621884,2,2,1,1047,0,-1560
1358,15.633539,2,3,2,1048,3,-1563
1359,15.645185,1,1,0,1047,-1,-1563
1360,15.656872,3,1,0,1049,0,-1560
1361,15.668545,2,2,0,1045,3,-1566
1362,15.680215,2,0,1,1042,2,-1560
1363,15.691882,1,1,1,1048,0,-1554
1364,15.703533,3,2,1,1048,1,-1557
1365,15.715177,0,1,-1,1043,2,-1560
1366,15.726816,0,1,-1,1050,0,-1560
1367,15.738482,2,1,1,1050,0,-1563
1368,15.750141,1,2,1,1045,1,-1564
1369,15.761794,2,2,1,1047,0,-1569
1370,15.773468,2,1,0,1046,0,-1561
1371,15.78513,1,0,-1,1051,0,-1562
1372,15.796787,3,2,2,1046,-2,-1560
1373,15.808474,-1,1,-1,1048,1,-1559
1374,15.820145,1,0,-3,1048,1,-1564
1375,15.831791,0,3,-2,1041,-1,-1557
1376,15.843473,2,1,1,1047,-2,-1561
1377,15.855134,-1,0,1,1048,-1,-1559
1378,15.866789,0,1,0,1049,1,-1556
1379,15.878491,-1,1,1,1045,-2,-1555
1380,15.890145,0,-2,2,1043,1,-1558
1381,15.901794,2,0,0,1046,-2,-1557
1382,15.913441,1,0,-1,1050,0,-1560
1383,15.925126,3,2,0,1046,-2,-1560
1384,15.936788,1,3,0,1047,0,-1561
1385,15.948479,0,3,2,1047,-1,-1563
1386,15.960151,0,2,0,1045,2,-1557
1387,15.971798,2,2,0,1050,1,-1563
1388,15.983451,0,1,-1,1049,0,-1561
1389,15.995101,2,2,-1,1044,1,-1564
1390,16.006765,2,1,-1,1047,0,-1561
1391,16.018408,1,1,1,1047,0,-1562
1392,16.030058,2,1,1,1046,0,-1557
1393,16.041716,0,2,1,1046,0,-1563
1394,16.053384,1,1,1,1047,1,-1562
1395,16.065044,2,1,2,1050,-4,-1563
1396,16.076736,2,0,0,1050,1,-1567
1397,16.088426,1,2,0,1048,0,-1562
1398,16.100081,1,4,-1,1047,0,-1553
1399,16.11175,2,1,2,1048,0,-1561
1400,16.123401,3,0,-2,1046,0,-1566
1401,16.135049,0,2,1,1047,1,-1563
1402,16.14671,3,-1,2,1048,1,-1555
1403,16.158373,2,-2,-1,1048,-1,-1562
1404,16.170029,1,2,2,1046,1,-1562
1405,16.181676,3,0,1,1047,0,-1558
1406,16.1934,1,-1,0,1044,0,-1557
1407,16.205051,1,-1,-1,1049,0,-1556
1408,16.216751,0,1,1,1046,2,-1559
1409,16.228408,3,2,0,1048,-2,-1559
1410,16.240079,2,-1,-3,1052,2,-1566
1411,16.25174,2,0,1,1044,0,-1560
1412,16.263396,1,0,-1,1051,0,-1562
1413,16.275042,0,1,1,1047,0,-1555
1414,16.286681,0,1,1,1049,3,-1555
1415,16.298343,1,4,0,1047,0,-1560
1416,16.310026,0,2,0,1047,1,-1561
1417,16.3216,2,1,1,1046,4,-1563
1418,16.333178,3,1,2,1050,-1,-1557
1419,16.344735,2,0,0,1047,0,-1559
1420,16.356305,0,2,-2,1045,0,-1560
1421,16.367859,2,1,-1,1049,0,-1561
1422,16.379438,1,0,-1,1050,3,-1557
1423,16.390985,1,2,0,1046,0,-1559
1424,16.402556,1,1,1,1044,-2,-1560
1425,16.414171,1,1,-1,1049,2,-1572
1426,16.425834,1,0,0,1048,5,-1554
1427,16.437516,3,-1,2,1047,-1,-1555
1428,16.449176,3,3,0,1047,1,-1559
1429,16.460867,0,1,-2,1051,0,-1558
1430,16.472577,3,2,0,1046,0,-1562
1431,16.484254,1,2,-1,1046,0,-1558
1432,16.495909,1,-1,1,1052,0,-1553
1433,16.507579,2,0,2,1047,0,-1555
1434,16.519239,1,0,1,1047,-1,-1560
1435,16.530793,1,0,2,1041,6,-1557
1436,16.542341,2,0,1,1046,-2,-1561
1437,16.553905,0,-2,2,1046,-1,-1557
1438,16.565466,0,3,-1,1047,-1,-1560
1439,16.57703,0,1,0,1047,0,-1560
1440,16.588594,1,1,2,1045,-2,-1563
1441,16.600133,2,1,-1,1051,2,-1555
1442,16.611693,3,3,0,1050,-2,-1560
1443,16.623371,1,1,1,1050,1,-1553
1444,16.635028,2,0,1,1045,-1,-1560
1445,16.646679,2,-1,1,1045,0,-1563
1446,16.658335,0,2,-1,1049,-1,-1565
1447,16.669979,0,2,-1,1048,1,-1561
1448,16.681637,1,0,0,1045,-2,-1561
1449,16.693287,2,0,1,1049,-4,-1554
1450,16.704936,2,1,0,1050,0,-1557
1451,16.716621,2,1,-1,1047,2,-1557
1452,16.728275,1,1,0,1047,1,-1555
1453,16.73984,0,3,-1,1048,4,-1563
1454,16.751391,0,3,1,1047,-1,-1557
1455,16.762959,0,1,-1,1048,0,-1562
1456,16.774527,1,0,-1,1047,0,-1559
1457,16.786088,2,3,1,1046,1,-1559
1458,16.797641,3,0,0,1049,1,-1559
1459,16.809211,3,0,-1,1048,5,-1563
1460,16.820793,-1,2,0,1047,-2,-1559
1461,16.832415,1,2,0,1045,3,-1564
1462,16.844078,1,2,0,1046,-6,-1560
1463,16.855756,3,4,-1,1048,0,-1567
1464,16.86741,2,2,-1,1049,-1,-1559
1465,16.87905,1,1,1,1045,3,-1563
1466,16.890722,0,2,1,1048,1,-1559
1467,16.902386,0,2,2,1047,0,-1562
1468,16.914021,1,2,-1,1049,1,-1559
1469,16.925677,2,4,-1,1049,2,-1559
1470,16.93737,1,0,2,1043,0,-1560
1471,16.948943,2,1,1,1049,0,-1562
1472,16.960561,1,0,0,1046,0,-1548
1473,16.972117,1,3,-1,1046,0,-1557
1474,16.983706,2,1,0,1047,0,-1559
1475,16.995279,2,1,1,1047,2,-1561
1476,17.006846,0,2,1,1049,1,-1565
1477,17.018402,2,1,-2,1048,0,-1560
1478,17.029992,1,2,0,1045,-3,-1562
1479,17.041619,1,1,1,1048,0,-1562
1480,17.053273,0,2,1,1047,0,-1566
1481,17.064931,1,0,1,1049,-1,-1557
1482,17.076615,0,0,-1,1048,0,-1557
1483,17.088265,1,1,1,1047,-1,-1558
1484,17.099915,1,1,-1,1048,4,-1558
1485,17.111587,2,3,0,1054,0,-1566
1486,17.123253,0,2,2,1048,-1,-1557
1487,17.134921,2,1,0,1048,1,-1565
1488,17.146591,0,0,-2,1046,-2,-1557
1489,17.15814,2,1,0,1045,3,-1557
1490,17.169695,0,0,-2,1045,0,-1560
1491,17.181264,2,0,0,1047,0,-1568
1492,17.192795,3,3,0,1051,0,-1555
1493,17.204314,2,2,1,1046,-1,-1559
1494,17.215861,2,0,-1,1050,-2,-1557
1495,17.227436,0,-1,1,1046,-1,-1556
1496,17.238995,3,2,-1,1048,0,-1565
1497,17.250617,1,1,0,1046,3,-1565
1498,17.262273,3,3,1,1047,-2,-1558
1499,17.273921,0,2,0,1053,2,-1559
1500,17.285606,1,0,0,1051,0,-1557
1501,17.29727,2,1,-2,1045,0,-1561
1502,17.308925,1,2,0,1049,0,-1559
1503,17.320624,0,1,1,1045,3,-1559
1504,17.332274,1,3,0,1050,-1,-1559
1505,17.343932,0,2,1,1051,1,-1554
1506,17.355615,3,0,0,1045,0,-1558
1507,17.367201,3,0,0,1050,3,-1562
1508,17.378747,2,1,3,1042,-1,-1558
1509,17.390298,0,2,0,1048,1,-1565
1510,17.401847,1,1,-1,1045,1,-1559
1511,17.413425,2,1,0,1045,0,-1555
1512,17.424985,3,3,2,1050,0,-1557
1513,17.436594,0,0,-1,1045,0,-1561
1514,17.448201,1,0,0,1050,1,-1559
1515,17.459836,0,1,0,1047,0,-1560
1516,17.471515,1,1,0,1048,0,-1555
1517,17.483175,1,2,1,1051,2,-1560
1518,17.494868,-1,1,1,1045,0,-1558
1519,17.506526,2,1,0,1047,0,-1559
1520,17.51819,2,1,-1,1047,0,-1563
1521,17.529854,3,2,1,1042,0,-1561
1522,17.541523,2,1,2,1048,0,-1556
1523,17.553189,0,0,1,1047,0,-1561
1524,17.564747,1,4,-2,1053,0,-1564
1525,17.576314,2,2,-1,1051,0,-1562
1526,17.587865,2,0,0,1047,-2,-1559
1527,17.599437,3,1,-1,1047,1,-1556
1528,17.610984,2,5,-1,1051,1,-1555
1529,17.622562,1,1,1,1050,1,-1566
1530,17.634104,1,2,-1,1049,-1,-1553
1531,17.645657,3,2,2,1049,2,-1558
1532,17.657226,1,0,-1,1048,-1,-1560
1533,17.668867,2,1,1,1046,0,-1561
1534,17.680525,0,1,1,1044,5,-1560
1535,17.692243,3,0,1,1045,0,-1562
1536,17.70389,1,4,0,1047,-1,-1561
1537,17.715539,1,2,-1,1047,-1,-1559
1538,17.727231,1,0,0,1048,-1,-1555
1539,17.73888,0,0,-2,1049,2,-1563
1540,17.750529,2,1,1,1048,0,-1558
1541,17.762188,1,-1,1,1048,0,-1560
1542,17.773879,2,3,0,1049,-5,-1556
1543,17.785447,0,3,0,1045,0,-1564
1544,17.797018,0,1,0,1049,-3,-1561
1545,17.808561,2,0,4,1044,1,-1558
1546,17.820074,2,2,0,1048,-2,-1557
1547,17.831627,2,0,-1,1044,1,-1558
1548,17.843227,2,-1,1,1047,0,-1554
1549,17.854915,2,0,0,1050,0,-1562
1550,17.866488,0,0,0,1047,0,-1564
1551,17.878063,0,2,-1,1047,-1,-1563
1552,17.889618,0,0,0,1048,4,-1562
1553,17.901192,0,1,0,1048,0,-1560
1554,17.912741,2,0,0,1047,0,-1561
1555,17.924318,0,1,1,1049,0,-1563
1556,17.935856,1,1,1,1047,0,-1560
1557,17.947411,0,0,0,1049,-2,-1556
1558,17.958957,1,3,1,1049,-1,-1562
1559,17.970506,1,1,0,1046,-1,-1558
1560,17.982148,0,0,-1,1047,1,-1561
1561,17.993792,1,-1,1,1048,0,-1563
1562,18.005464,2,2,-1,1048,0,-1552
1563,18.017122,2,1,1,1051,-1,-1561
1564,18.028783,1,0,1,1047,-2,-1558
1565,18.04047,-1,0,1,1048,0,-1557
1566,18.052085,0,1,1,1047,3,-1558
1567,18.063783,2,0,0,1046,0,-1557
1568,18.075449,1,0,-1,1047,-2,-1557
1569,18.087112,1,1,0,1048,0,-1557
1570,18.098783,3,1,1,1048,2,-1558
1571,18.110423,1,2,1,1048,-1,-1564
1572,18.122071,3,2,0,1046,0,-1561
1573,18.133734,1,0,-1,1047,-3,-1564
1574,18.145368,0,3,0,1046,5,-1554
1575,18.157023,2,1,-1,1047,-2,-1559
1576,18.168682,2,1,-1,1047,-1,-1558
1577,18.182758,1,-1,0,1046,2,-1557
1578,18.194489,1,2,-2,1047,-2,-1560
1579,18.206071,1,2,1,1048,1,-1564
1580,18.217629,2,2,1,1048,0,-1558
1581,18.229193,2,1,0,1047,0,-1552
1582,18.240738,0,1,0,1045,4,-1567
1583,18.252308,2,2,-1,1048,0,-1559
1584,18.263858,2,1,0,1040,3,-1556
1585,18.275435,1,2,2,1045,1,-1562
1586,18.286986,1,2,-1,1049,-2,-1556
1587,18.298612,1,1,0,1050,-1,-1562
1588,18.310261,1,1,1,1046,0,-1560
1589,18.321914,1,0,1,1047,-2,-1558
1590,18.333596,2,2,0,1049,-1,-1560
1591,18.345247,1,0,0,1048,0,-1555
1592,18.356909,0,3,2,1049,-2,-1556
1593,18.368595,4,2,-1,1046,-1,-1551
1594,18.380243,0,-1,-2,1047,-2,-1560
1595,18.391906,1,0,0,1047,0,-1558
1596,18.403571,2,0,0,1048,-3,-1564
1597,18.415148,2,4,-1,1049,-1,-1555
1598,18.426703,2,1,0,1048,3,-1556
1599,18.438248,-1,4,-1,1049,-1,-1558
1600,18.44984,1,1,1,1047,3,-1558
1601,18.461416,2,1,1,1047,-2,-1563
1602,18.472991,2,1,2,1050,2,-1560
1603,18.484582,1,0,0,1051,0,-1558
1604,18.496164,-1,1,1,1045,0,-1556
1605,18.507781,1,2,0,1046,1,-1556
1606,18.519456,2,1,0,1047,-1,-1559
1607,18.531116,2,3,0,1045,2,-1559
1608,18.542771,3,3,1,1044,2,-1555
1609,18.55441,0,1,0,1049,0,-1563
1610,18.566053,3,1,0,1049,0,-1559
1611,18.577722,0,2,-1,1050,2,-1556
1612,18.589367,2,2,-1,1046,-2,-1561
1613,18.601031,1,3,0,1047,-1,-1563
1614,18.612706,1,1,1,1044,1,-1554
1615,18.624268,2,2,1,1046,3,-1562
1616,18.635824,0,1,0,1046,0,-1561
1617,18.64739,0,2,-1,1047,0,-1559
1618,18.658943,2,2,0,1049,-1,-1560
1619,18.670527,1,2,-1,1045,2,-1560
1620,18.682081,1,1,-1,1050,-1,-1559
1621,18.693664,1,2,1,1048,1,-1560
1622,18.705223,1,-1,1,1047,3,-1560
1623,18.716858,2,4,1,1051,-2,-1559
1624,18.728512,2,2,-1,1049,-3,-1563
1625,18.740156,2,1,0,1038,3,-1561
1626,18.75183,1,0,-1,1046,0,-1562
1627,18.763478,1,0,0,1048,4,-1562
1628,18.775131,2,0,0,1049,-1,-1557
1629,18.786777,2,1,1,1047,-1,-1559
1630,18.798438,1,4,0,1046,0,-1558
1631,18.810152,2,4,0,1050,6,-1560
1632,18.821805,1,0,1,1046,0,-1564
1633,18.833355,1,1,0,1045,-1,-1559
1634,18.844949,1,2,2,1044,0,-1558
1635,18.856499,2,1,0,1050,2,-1560
1636,18.868068,1,1,0,1047,1,-1557
1637,18.879649,0,1,1,1050,0,-1562
1638,18.891194,1,1,0,1048,2,-1560
1639,18.90275,1,1,0,1053,-1,-1557
1640,18.914311,0,3,-2,1048,0,-1552
1641,18.925921,2,1,1,1048,-1,-1555
1642,18.937608,2,0,-1,1048,3,-1561
1643,18.949266,1,2,2,1049,2,-1561
1644,18.960944,0,1,0,1044,0,-1558
1645,18.972601,3,1,0,1051,0,-1559
1646,18.98426,0,2,-1,1045,0,-1561
1647,18.995921,2,1,0,1050,-1,-1558
1648,19.007588,2,1,0,1047,0,-1559
1649,19.01925,2,3,1,1049,0,-1560
1650,19.030916,1,3,1,1051,0,-1557
1651,19.042493,1,0,-1,1051,0,-1558
1652,19.054058,2,2,1,1046,-1,-1555
1653,19.065621,1,2,1,1045,1,-1556
1654,19.077179,1,0,-2,1048,1,-1559
1655,19.088728,1,2,0,1051,0,-1568
1656,19.100302,2,1,0,1045,0,-1555
1657,19.111867,1,2,1,1048,0,-1557
1658,19.123429,1,2,-1,1045,-2,-1556
1659,19.135139,2,0,-1,1045,3,-1552
1660,19.146837,3,-1,0,1050,-3,-1555
1661,19.158481,0,1,0,1050,0,-1555
1662,19.170124,2,1,0,1043,0,-1560
1663,19.181814,0,1,0,1045,2,-1559
1664,19.193485,2,1,-1,1052,0,-1551
1665,19.205114,2,3,-1,1046,-2,-1564
1666,19.216799,0,2,0,1043,1,-1560
1667,19.228495,0,2,0,1047,0,-1554
1668,19.240202,-1,3,-1,1044,-1,-1563
1669,19.251789,0,-1,-2,1049,-1,-1556
1670,19.263336,2,0,2,1047,-1,-1553
1671,19.274883,1,3,1,1048,0,-1565
1672,19.286437,2,1,-1,1047,-5,-1559
1673,19.298016,1,1,0,1049,0,-1561
1674,19.309558,1,-1,1,1044,2,-1558
1675,19.321107,0,2,1,1045,-1,-1560
1676,19.332698,0,1,1,1046,-1,-1560
1677,19.344343,0,1,-1,1050,1,-1557
1678,19.355997,1,1,2,1047,-2,-1562
1679,19.367656,1,-1,-3,1047,-2,-1561
1680,19.379323,2,0,-1,1049,0,-1557
1681,19.390977,3,2,2,1051,0,-1560
1682,19.402629,1,1,0,1049,0,-1558
1683,19.414295,1,3,0,1050,0,-1560
1684,19.425944,1,3,1,1048,-1,-1559
1685,19.43764,2,2,0,1048,0,-1560
1686,19.4493,2,2,-2,1052,0,-1557
1687,19.460948,0,3,-2,1048,-1,-1558
1688,19.472691,2,0,1,1048,2,-1562
1689,19.484252,0,0,0,1048,1,-1555
1690,19.495809,0,0,0,1046,0,-1559
1691,19.507365,1,1,0,1049,-4,-1554
1692,19.518923,1,0,-1,1047,0,-1554
1693,19.530471,-1,1,0,1051,-1,-1562
1694,19.54207,1,4,0,1046,0,-1562
1695,19.553693,1,1,1,1048,1,-1555
1696,19.565278,3,2,3,1045,-1,-1560
1697,19.576804,1,3,1,1048,0,-1562
1698,19.588378,-1,2,0,1047,-1,-1560
1699,19.599931,3,2,1,1050,-3,-1561
1700,19.611535,1,3,1,1043,2,-1559
1701,19.623085,3,0,-1,1048,2,-1558
1702,19.634652,1,1,0,1046,0,-1556
1703,19.646206,1,5,2,1047,0,-1559
1704,19.657888,1,1,1,1049,0,-1563
1705,19.669579,2,3,1,1044,2,-1561
1706,19.681246,1,1,0,1047,0,-1559
1707,19.692926,0,2,-2,1049,2,-1556
1708,19.704603,0,0,-1,1043,3,-1562
1709,19.71626,0,2,-1,1048,0,-1564
1710,19.72793,1,-1,1,1043,1,-1559
1711,19.739586,1,2,0,1043,2,-1563
1712,19.751258,1,2,-3,1044,0,-1562
1713,19.762946,0,0,1,1047,-1,-1555
1714,19.774536,2,1,-1,1045,0,-1556
1715,19.78608,2,1,-2,1048,-1,-1562
1716,19.797632,2,0,2,1049,0,-1559
1717,19.809185,1,0,0,1047,0,-1556
1718,19.820791,1,1,1,1045,0,-1562
1719,19.832313,4,-1,1,1049,0,-1556
1720,19.843864,2,-1,-1,1042,0,-1555
1721,19.855427,2,2,0,1040,-1,-1553
1722,19.867076,1,1,-1,1045,3,-1560
1723,19.878725,2,1,0,1046,1,-1557
1724,19.890412,1,1,3,1049,-2,-1559
1725,19.902209,2,1,0,1045,-2,-1562
1726,19.913879,0,2,-2,1048,4,-1554
1727,19.925575,-1,2,2,1049,-1,-1562
1728,19.937245,-1,2,1,1044,0,-1557
1729,19.948922,1,2,0,1048,-1,-1556
1730,19.960642,2,1,0,1048,-2,-1560
1731,19.972333,2,3,-1,1047,1,-1557
1732,19.98391,0,1,0,1048,0,-1557
1733,19.99546,2,3,0,1048,1,-1558
1734,20.007016,1,2,-1,1046,-1,-1559
1735,20.018563,1,1,-1,1050,0,-1559
1736,20.030111,1,-1,0,1048,0,-1560
1737,20.041657,1,0,2,1047,1,-1562
1738,20.053229,1,1,0,1050,1,-1560
1739,20.064805,2,3,0,1045,0,-1565
1740,20.07649,1,0,1,1052,-2,-1563
1741,20.088149,1,2,0,1044,1,-1562
1742,20.0998,2,2,-1,1049,0,-1555
1743,20.111465,1,1,1,1048,0,-1558
1744,20.123115,1,2,-2,1048,2,-1559
1745,20.134765,1,3,-2,1046,-1,-1559
1746,20.146449,2,3,2,1047,-3,-1559
1747,20.15809,3,0,1,1049,3,-1566
1748,20.169759,1,1,0,1049,0,-1561
1749,20.181432,1,1,0,1048,-1,-1556
1750,20.193032,2,2,0,1048,2,-1566
1751,20.204555,1,4,0,1049,-6,-1559
1752,20.216073,3,3,2,1046,1,-1566
1753,20.227623,2,2,0,1047,-1,-1549
1754,20.239174,2,-1,1,1047,0,-1557
1755,20.250716,2,2,-1,1045,0,-1563
1756,20.262262,0,0,1,1043,3,-1555
1757,20.273817,1,1,0,1048,-2,-1558
1758,20.285575,2,1,0,1048,1,-1554
1759,20.297249,2,-1,2,1044,0,-1567
1760,20.30893,3,3,2,1047,0,-1558
1761,20.320598,2,2,-1,1047,0,-1556
1762,20.332277,1,4,-1,1050,1,-1563
1763,20.34393,1,2,2,1051,1,-1557
1764,20.355589,1,3,2,1051,4,-1563
1765,20.367248,0,2,0,1048,-2,-1567
1766,20.378911,1,2,1,1050,-1,-1553
1767,20.390574,-1,1,-1,1049,0,-1562
1768,20.402232,2,1,-3,1047,-3,-1562
1769,20.413887,0,0,1,1049,1,-1560
1770,20.425588,-1,2,0,1048,-3,-1562
1771,20.437253,1,1,1,1051,0,-1562
1772,20.448947,0,1,0,1043,2,-1561
1773,20.460604,1,2,-2,1047,0,-1563
1774,20.472258,0,1,-1,1051,0,-1556
1775,20.48391,2,-1,1,1047,0,-1559
1776,20.495457,0,0,1,1046,0,-1563
1777,20.507007,1,1,1,1048,0,-1566
1778,20.518554,1,0,1,1049,3,-1563
1779,20.530097,0,1,2,1050,0,-1559
1780,20.541645,2,1,1,1046,2,-1559
1781,20.553205,1,1,-1,1045,-2,-1560
1782,20.564796,0,2,0,1048,2,-1559
1783,20.576323,2,1,3,1045,2,-1566
1784,20.587932,2,1,1,1046,-1,-1556
1785,20.599564,2,2,1,1045,2,-1559
1786,20.611233,0,5,1,1048,1,-1558
1787,20.622886,3,3,1,1048,1,-1564
1788,20.634546,0,0,0,1049,0,-1563
1789,20.646215,0,4,0,1044,1,-1557
1790,20.657885,1,1,1,1047,0,-1563
1791,20.669541,1,1,0,1046,0,-1567
1792,20.681235,0,2,1,1047,-1,-1559
1793,20.692865,2,2,0,1047,-3,-1560
1794,20.704543,0,2,1,1048,0,-1557
1795,20.716218,2,-1,1,1048,-1,-1559
1796,20.727863,1,1,1,1045,0,-1549
1797,20.73951,2,0,-1,1041,0,-1565
1798,20.751181,0,0,1,1045,4,-1560
1799,20.762824,1,1,0,1047,-2,-1555
1800,20.774467,3,2,-1,1048,0,-1554
1801,20.786115,1,2,1,1047,3,-1560
1802,20.7978,3,0,-1,1049,0,-1562
1803,20.809461,0,0,1,1043,0,-1560
1804,20.821112,2,0,1,1047,-3,-1565
1805,20.832768,1,3,-2,1050,1,-1558
1806,20.844462,-1,2,0,1047,2,-1557
1807,20.856085,1,1,-3,1049,0,-1563
1808,20.867733,3,1,0,1047,-3,-1557
1809,20.879389,2,1,0,1046,1,-1551
1810,20.891053,0,-1,0,1047,0,-1564
1811,20.902735,2,2,1,1044,3,-1556
1812,20.914409,0,1,-2,1045,0,-1562
1813,20.926068,1,4,2,1053,0,-1557
1814,20.937718,0,0,0,1053,1,-1565
1815,20.949369,-1,3,1,1047,0,-1560
1816,20.961043,1,1,1,1049,-1,-1561
1817,20.972715,1,1,-2,1046,2,-1560
1818,20.984343,1,1,1,1046,4,-1557
1819,20.99599,3,3,2,1046,1,-1557
1820,21.007647,3,1,-1,1051,1,-1560
1821,21.019308,2,0,-1,1051,-1,-1555
1822,21.030979,1,2,0,1049,4,-1558
1823,21.042623,3,1,0,1051,0,-1558
1824,21.054273,1,1,1,1044,-4,-1565
1825,21.065941,1,2,1,1050,3,-1563
1826,21.077633,2,1,0,1047,-2,-1565
1827,21.089307,1,1,1,1046,2,-1556
1828,21.10098,2,1,-1,1048,-1,-1559
1829,21.112697,1,0,-1,1046,0,-1564
1830,21.124343,1,0,1,1045,-2,-1559
1831,21.135992,1,0,-1,1047,3,-1558
1832,21.147659,3,0,-1,1048,0,-1562
1833,21.159317,2,1,1,1048,-2,-1558
1834,21.170964,0,1,1,1052,0,-1559
1835,21.182611,1,0,0,1047,-6,-1557
1836,21.194276,0,4,0,1048,0,-1565
1837,21.205939,0,2,0,1048,4,-1554
1838,21.217616,-1,1,1,1049,-2,-1565
1839,21.229179,1,4,2,1047,-2,-1557
1840,21.240729,1,1,-1,1052,0,-1560
1841,21.252298,0,3,1,1050,-2,-1563
1842,21.263874,1,2,0,1047,0,-1558
1843,21.275421,3,-1,1,1046,-2,-1559
1844,21.287001,1,3,-3,1045,3,-1560
1845,21.298543,1,2,2,1047,-1,-1562
1846,21.310081,0,1,1,1049,0,-1553
1847,21.321644,0,1,1,1046,-1,-1557
1848,21.333266,1,2,2,1047,1,-1559
1849,21.344966,1,2,2,1046,0,-1558
1850,21.356598,3,3,1,1049,0,-1561
1851,21.36825,3,1,0,1047,2,-1558
1852,21.379916,0,4,1,1050,0,-1561
1853,21.391566,2,1,1,1046,1,-1557
1854,21.403245,3,1,0,1047,0,-1560
1855,21.414912,1,1,1,1048,2,-1556
1856,21.426573,2,1,0,1044,0,-1563
1857,21.438245,0,3,1,1049,-1,-1557
1858,21.449806,3,3,-1,1045,-1,-1557
1859,21.461385,0,2,-1,1048,0,-1560
1860,21.472963,2,1,1,1047,2,-1558
1861,21.484542,1,1,0,1048,2,-1565
1862,21.496073,2,2,0,1047,0,-1562
1863,21.507627,1,0,0,1046,0,-1557
1864,21.519173,1,1,0,1048,0,-1565
1865,21.530733,2,0,1,1043,0,-1560
1866,21.542398,2,-1,0,1049,-2,-1561
1867,21.554068,0,2,-1,1046,-2,-1563
1868,21.565723,2,0,0,1044,-3,-1561
1869,21.577385,1,2,1,1046,0,-1560
1870,21.589052,2,3,1,1048,-2,-1559
1871,21.60073,2,2,0,1049,0,-1562
1872,21.612403,2,2,1,1045,3,-1561
1873,21.624077,2,2,0,1046,0,-1553
1874,21.635746,1,1,-1,1050,1,-1561
1875,21.647422,2,2,-1,1046,1,-1561
1876,21.658991,1,2,0,1047,-1,-1560
1877,21.670544,0,1,0,1047,1,-1560
1878,21.682121,-1,2,1,1047,2,-1560
1879,21.693672,1,1,-1,1045,0,-1561
1880,21.70525,3,1,-1,1048,3,-1560
1881,21.716799,2,1,0,1046,-1,-1556
1882,21.728319,1,1,1,1047,2,-1564
1883,21.73988,2,0,-1,1043,-2,-1555
1884,21.751495,1,0,0,1047,2,-1558
1885,21.763158,2,2,1,1046,-2,-1563
1886,21.774842,2,0,0,1051,1,-1563
1887,21.786511,0,2,-1,1046,2,-1563
1888,21.798158,2,4,0,1046,-1,-1563
1889,21.809827,1,1,1,1048,0,-1560
1890,21.821555,2,2,0,1043,0,-1560
1891,21.833285,2,0,0,1049,0,-1558
1892,21.845003,0,1,-1,1048,1,-1558
1893,21.856714,1,2,-1,1051,1,-1556
1894,21.868303,-1,3,2,1043,-3,-1555
1895,21.879857,2,2,-2,1049,-2,-1561
1896,21.891403,3,0,-1,1047,-1,-1555
1897,21.903009,0,0,-2,1044,-4,-1560
1898,21.914564,2,2,-1,1046,3,-1561
1899,21.92613,1,0,0,1053,-2,-1560
1900,21.937674,0,2,0,1049,4,-1562
1901,21.949236,1,0,-2,1044,0,-1560
1902,21.960861,3,0,0,1050,4,-1559
1903,21.972521,4,0,0,1047,-2,-1562
1904,21.984199,2,0,1,1053,2,-1555
1905,21.995852,2,2,0,1049,1,-1563
1906,22.00749,1,1,2,1050,0,-1559
1907,22.019165,1,-1,1,1048,1,-1562
1908,22.030817,2,2,0,1048,2,-1563
1909,22.042454,0,1,0,1047,0,-1558
1910,22.054113,1,2,0,1045,-1,-1552
1911,22.06577,2,1,0,1048,1,-1558
1912,22.077344,0,1,1,1049,2,-1560
1913,22.088914,2,2,1,1048,0,-1558
1914,22.100461,2,1,1,1047,1,-1560
1915,22.112007,0,1,2,1050,3,-1563
1916,22.123547,2,2,0,1053,1,-1560
1917,22.135102,1,0,0,1045,-1,-1561
1918,22.146679,1,2,-1,1047,1,-1561
1919,22.158224,2,-1,0,1045,0,-1560
1920,22.169853,0,1,-1,1049,0,-1561
1921,22.181546,2,2,0,1045,1,-1558
1922,22.193233,0,1,0,1045,1,-1560
1923,22.204856,2,2,-1,1046,-4,-1557
1924,22.216514,1,1,0,1046,-2,-1561
1925,22.228202,2,2,2,1047,-2,-1557
1926,22.239846,1,3,3,1047,1,-1562
1927,22.25149,2,3,-1,1046,0,-1566
1928,22.263174,1,2,1,1049,1,-1560
1929,22.274807,1,-1,-1,1048,3,-1559
1930,22.286373,2,0,0,1048,1,-1559
1931,22.297917,1,1,-2,1044,0,-1561
1932,22.30949,0,0,2,1045,4,-1561
1933,22.321033,2,1,1,1045,1,-1559
1934,22.33255,2,1,0,1045,1,-1552
1935,22.344061,2,1,-1,1048,0,-1556
1936,22.35561,2,0,-1,1048,0,-1554
1937,22.367168,3,2,2,1046,-1,-1561
1938,22.378802,1,3,-2,1052,0,-1557
1939,22.390461,2,2,1,1047,1,-1563
1940,22.402105,1,3,-2,1046,0,-1562
1941,22.413755,-1,1,0,1048,1,-1557
1942,22.425448,2,1,0,1044,3,-1564
1943,22.437133,0,1,-1,1045,0,-1561
1944,22.448802,2,1,2,1049,0,-1561
1945,22.460468,1,1,-2,1050,-4,-1561
1946,22.472158,1,2,1,1048,-1,-1560
1947,22.483808,2,0,2,1050,2,-1561
1948,22.495459,2,1,-2,1051,-2,-1562
1949,22.507121,3,2,0,1048,-2,-1559
1950,22.518802,2,1,2,1046,-1,-1563
1951,22.53045,2,2,0,1044,1,-1563
1952,22.542099,0,0,-2,1051,-1,-1560
1953,22.553783,0,0,-1,1050,-3,-1564
1954,22.565442,1,0,-2,1049,4,-1555
1955,22.577155,1,0,2,1046,-3,-1559
1956,22.588841,1,1,0,1045,0,-1559
1957,22.600507,1,1,1,1046,4,-1557
1958,22.612205,2,2,0,1049,0,-1558
1959,22.623879,1,3,1,1047,2,-1557
1960,22.635535,0,2,2,1046,0,-1558
1961,22.647184,2,3,1,1050,2,-1556
1962,22.658835,0,-1,1,1045,-1,-1567
1963,22.670482,2,2,0,1050,0,-1562
1964,22.682204,1,0,-1,1045,-4,-1555
1965,22.693845,0,2,-1,1051,-2,-1567
1966,22.705421,2,1,-1,1046,4,-1558
1967,22.717006,2,0,0,1049,-1,-1557
1968,22.72856,1,2,0,1046,0,-1560
1969,22.740122,2,0,1,1049,-3,-1561
1970,22.751663,1,3,2,1051,-2,-1554
1971,22.763213,1,4,-1,1049,1,-1560
1972,22.774763,1,2,1,1046,0,-1556
1973,22.786321,1,0,1,1051,1,-1556
1974,22.797938,2,1,1,1049,1,-1561
1975,22.809625,1,-1,1,1046,-2,-1559
1976,22.821302,1,1,1,1046,0,-1560
1977,22.832967,0,1,-1,1049,0,-1554
1978,22.8446,0,0,0,1048,0,-1558
1979,22.856268,1,0,-1,1046,0,-1563
1980,22.867928,2,2,0,1050,0,-1561
1981,22.879584,1,2,-1,1052,2,-1553
1982,22.891272,2,1,-2,1051,0,-1560
1983,22.902938,0,2,1,1049,0,-1560
1984,22.914502,0,1,-1,1048,0,-1558
1985,22.926063,2,2,2,1050,1,-1557
1986,22.937611,1,3,-1,1047,-1,-1564
1987,22.949162,3,1,0,1045,2,-1560
1988,22.960714,0,1,1,1049,2,-1565
1989,22.972263,2,-1,-2,1050,0,-1563
1990,22.983847,2,1,-1,1046,2,-1557
1991,22.99541,1,1,-1,1052,2,-1557
1992,23.007037,2,2,1,1050,1,-1557
1993,23.018695,1,2,-1,1052,4,-1556
1994,23.03034,1,3,1,1047,1,-1558
1995,23.041987,1,1,2,1044,-2,-1552
1996,23.053655,1,2,1,1044,0,-1557
1997,23.065304,2,1,1,1047,3,-1553
1998,23.076975,2,4,0,1051,0,-1556
1999,23.088656,1,3,0,1047,-1,-1562
