sample,t_s,gyro_x,gyro_y,gyro_z,accel_x,accel_y,accel_z
0,1.1e-05,1,8,10,14,21,-1030
1,0.011312,1,7,11,16,23,-1032
2,0.022513,3,7,9,11,26,-1034
3,0.033702,0,6,8,10,23,-1034
4,0.044887,2,6,10,13,27,-1032
5,0.056071,2,7,8,14,23,-1033
6,0.067255,2,4,9,14,23,-1033
7,0.078456,1,5,9,11,25,-1037
8,0.089639,3,5,10,13,25,-1039
9,0.100821,4,7,8,13,25,-1032
10,0.112001,2,7,10,14,22,-1034
11,0.123184,2,6,9,16,26,-1030
12,0.134378,3,7,9,14,24,-1039
13,0.145561,2,6,10,13,22,-1037
14,0.156745,2,5,9,15,25,-1036
15,0.167928,3,5,8,10,27,-1034
16,0.17911,1,6,10,13,25,-1033
17,0.190277,2,6,9,14,23,-1037
18,0.201463,1,9,10,18,28,-1035
19,0.212652,2,6,9,16,25,-1030
20,0.223845,2,8,9,14,26,-1032
21,0.235031,2,6,8,9,27,-1032
22,0.246226,2,7,9,12,27,-1037
23,0.257429,3,6,11,15,22,-1037
24,0.26861,3,4,10,15,22,-1030
25,0.279795,1,4,11,15,27,-1039
26,0.290983,3,6,8,14,26,-1028
27,0.302169,3,7,10,11,27,-1033
28,0.313359,3,8,10,14,23,-1030
29,0.324543,1,8,9,12,25,-1040
30,0.335733,3,6,10,13,27,-1033
31,0.346916,1,6,7,11,30,-1035
32,0.358089,4,5,8,12,25,-1032
33,0.369274,2,8,10,14,25,-1031
34,0.380464,2,6,10,11,26,-1035
35,0.391652,2,6,8,10,22,-1034
36,0.402839,2,7,9,9,26,-1033
37,0.414029,4,7,9,12,26,-1036
38,0.425211,2,8,8,18,25,-1031
39,0.436393,2,4,7,17,23,-1041
40,0.447577,1,7,8,13,26,-1033
41,0.458766,2,6,8,14,24,-1034
42,0.469949,1,6,9,14,27,-1032
43,0.481132,3,8,8,14,23,-1037
44,0.492311,1,5,7,14,22,-1031
45,0.503491,3,4,9,14,24,-1036
46,0.514656,4,6,10,9,26,-1037
47,0.525845,2,9,9,16,27,-1033
48,0.537028,3,4,9,15,27,-1030
49,0.548215,3,6,8,9,26,-1034
50,0.559399,1,5,9,14,29,-1038
51,0.570588,2,7,10,12,26,-1035
52,0.581779,1,6,9,11,24,-1033
53,0.592966,4,7,11,13,22,-1036
54,0.604153,3,6,9,13,26,-1032
55,0.615348,3,7,9,14,27,-1033
56,0.626535,1,7,9,13,28,-1036
57,0.637724,4,6,9,17,23,-1037
58,0.648907,0,7,8,16,27,-1038
59,0.660091,3,5,9,12,23,-1033
60,0.671275,3,6,9,9,26,-1035
61,0.682462,2,7,11,16,23,-1041
62,0.693649,6,5,10,10,27,-1028
63,0.704833,3,5,9,15,22,-1034
64,0.716024,4,7,11,11,26,-1036
65,0.727208,2,7,8,12,23,-1035
66,0.738395,2,6,10,15,25,-1034
67,0.749576,1,5,8,12,29,-1034
68,0.760775,1,8,9,12,25,-1034
69,0.771966,1,5,9,17,22,-1029
70,0.783153,3,7,9,13,21,-1030
71,0.794344,2,8,8,12,25,-1038
72,0.805529,1,6,11,13,23,-1036
73,0.816712,2,6,11,12,27,-1030
74,0.827898,2,7,10,14,27,-1031
75,0.839083,1,8,10,12,28,-1036
76,0.850278,2,6,9,13,26,-1035
77,0.861468,3,7,9,16,27,-1038
78,0.872651,1,7,9,14,29,-1026
79,0.883836,2,5,8,11,29,-1034
80,0.895019,2,7,11,10,31,-1029
81,0.906205,3,6,10,13,21,-1038
82,0.917392,4,8,10,15,26,-1034
83,0.928577,2,4,7,13,26,-1033
84,0.939764,2,8,10,18,22,-1035
85,0.95095,2,7,11,16,23,-1028
86,0.962145,2,8,10,14,27,-1036
87,0.973356,1,6,10,14,25,-1029
88,0.984539,2,7,9,12,28,-1034
89,0.99572,3,6,9,13,28,-1035
90,1.006903,1,7,11,16,30,-1036
91,1.01809,0,6,11,15,29,-1036
92,1.029278,2,7,7,14,25,-1039
93,1.040462,2,6,10,13,27,-1030
94,1.051647,2,5,9,16,26,-1032
95,1.062831,0,8,7,13,27,-1033
96,1.074024,1,8,10,13,23,-1033
97,1.085211,1,5,9,14,26,-1031
98,1.096394,4,9,9,14,30,-1036
99,1.107584,1,9,8,12,28,-1037
100,1.11878,1,6,11,12,23,-1027
101,1.129967,2,5,9,12,26,-1035
102,1.14115,2,8,9,14,24,-1038
103,1.152332,4,5,11,12,24,-1038
104,1.163515,2,5,9,16,27,-1031
105,1.174703,2,6,8,15,26,-1032
106,1.1859,2,7,8,14,23,-1033
107,1.197083,3,7,9,14,29,-1032
108,1.208262,2,6,10,10,24,-1030
109,1.219448,2,7,11,16,28,-1036
110,1.230639,3,7,10,12,24,-1037
111,1.241822,2,4,7,15,23,-1031
112,1.253005,2,8,10,13,26,-1032
113,1.26419,2,5,11,9,25,-1033
114,1.275376,2,7,10,12,29,-1034
115,1.286572,2,5,11,14,24,-1036
116,1.297761,1,8,8,11,26,-1036
117,1.308944,0,6,10,12,27,-1036
118,1.320128,4,6,9,12,30,-1036
119,1.331324,2,7,10,8,27,-1037
120,1.342509,4,7,11,13,22,-1033
121,1.353701,2,6,9,14,25,-1031
122,1.364885,2,8,9,11,22,-1034
123,1.376071,1,7,10,14,24,-1036
124,1.387263,3,7,9,16,29,-1039
125,1.398453,4,6,7,14,25,-1032
126,1.409637,3,8,10,13,29,-1033
127,1.420822,3,8,8,17,27,-1030
128,1.432003,2,6,8,14,21,-1034
129,1.44319,3,6,10,17,25,-1033
130,1.454383,1,4,9,13,23,-1033
131,1.465564,3,5,8,10,23,-1030
132,1.476756,2,5,10,10,26,-1038
133,1.487939,1,6,11,16,27,-1037
134,1.499124,2,6,8,19,21,-1036
135,1.510274,2,6,10,16,22,-1034
136,1.521457,3,6,12,11,26,-1028
137,1.53264,5,5,10,12,23,-1030
138,1.543835,3,6,9,17,24,-1033
139,1.55502,2,7,8,12,22,-1038
140,1.566203,3,5,11,11,24,-1036
141,1.577384,1,6,8,13,27,-1033
142,1.588569,1,6,8,14,24,-1036
143,1.599754,2,7,11,15,23,-1038
144,1.61094,0,7,10,16,29,-1032
145,1.62209,2,5,11,11,25,-1034
146,1.633272,2,7,7,14,26,-1037
147,1.644453,2,4,9,14,26,-1035
148,1.655637,2,7,8,13,26,-1034
149,1.666828,2,5,8,13,29,-1030
150,1.678025,2,9,9,17,22,-1038
151,1.689234,1,5,12,16,25,-1029
152,1.700576,4,6,9,18,22,-1032
153,1.711833,2,5,8,15,26,-1034
154,1.723021,4,7,8,17,26,-1030
155,1.734216,3,6,9,13,29,-1043
156,1.745407,3,5,10,12,24,-1036
157,1.756591,2,9,10,12,28,-1036
158,1.767781,4,7,11,14,25,-1037
159,1.77897,2,9,10,14,22,-1032
160,1.790183,2,6,10,15,27,-1035
161,1.801376,3,6,9,13,28,-1029
162,1.812559,2,7,10,16,28,-1035
163,1.823743,2,6,10,13,22,-1034
164,1.834968,2,7,8,15,26,-1038
165,1.846155,3,6,9,12,23,-1038
166,1.857339,2,2,10,14,26,-1037
167,1.868522,3,7,8,10,30,-1033
168,1.879706,1,7,9,13,24,-1036
169,1.89089,2,6,10,14,25,-1034
170,1.902086,3,6,7,16,26,-1038
171,1.913271,2,6,10,15,24,-1033
172,1.924452,2,6,9,15,21,-1033
173,1.935644,1,7,9,12,26,-1037
174,1.946829,2,7,11,14,26,-1036
175,1.958023,1,7,9,14,25,-1041
176,1.96921,1,9,7,11,27,-1035
177,1.980392,2,7,8,12,22,-1027
178,1.991579,2,6,9,11,28,-1029
179,2.002771,2,9,8,13,26,-1034
180,2.01396,4,6,8,13,29,-1037
181,2.025145,0,3,8,12,29,-1037
182,2.03633,4,8,10,14,26,-1030
183,2.047514,2,7,11,12,26,-1037
184,2.058701,3,6,8,13,22,-1029
185,2.069898,2,7,10,11,25,-1032
186,2.081082,2,8,9,15,29,-1038
187,2.092266,2,7,10,14,28,-1031
188,2.103446,4,7,9,13,31,-1028
189,2.114639,4,6,9,13,25,-1033
190,2.12582,2,6,8,10,29,-1036
191,2.137001,4,5,9,10,24,-1041
192,2.148184,2,6,8,17,24,-1034
193,2.159363,2,7,10,11,24,-1035
194,2.170546,4,4,10,10,26,-1038
195,2.18173,3,6,10,15,24,-1043
196,2.192927,3,8,9,12,27,-1044
197,2.204114,3,8,10,12,23,-1034
198,2.215303,2,8,9,15,27,-1037
199,2.22646,3,6,9,13,26,-1035
200,2.237659,3,5,10,11,26,-1040
201,2.248844,1,6,9,12,26,-1034
202,2.260034,5,6,11,16,26,-1033
203,2.271226,2,5,7,15,22,-1034
204,2.282413,3,7,10,13,24,-1027
205,2.293599,1,8,9,12,25,-1039
206,2.304787,3,7,10,17,26,-1040
207,2.315972,1,7,11,11,27,-1032
208,2.327165,3,5,9,13,24,-1026
209,2.338351,3,6,9,11,25,-1036
210,2.349542,3,8,8,17,19,-1036
211,2.360728,2,9,9,10,23,-1037
212,2.371913,2,7,9,15,28,-1038
213,2.383102,2,5,9,14,26,-1035
214,2.39428,2,6,7,16,29,-1035
215,2.405469,2,5,10,9,25,-1034
216,2.416655,2,6,8,12,27,-1037
217,2.427844,4,8,9,13,27,-1039
218,2.439027,4,5,9,11,26,-1038
219,2.450214,4,6,10,12,26,-1026
220,2.461401,0,6,8,13,24,-1035
221,2.472586,2,6,8,14,25,-1031
222,2.483773,3,7,9,18,25,-1035
223,2.494993,1,7,8,13,25,-1032
224,2.506202,3,6,9,13,21,-1033
225,2.517389,3,6,11,12,22,-1034
226,2.528574,0,6,7,17,28,-1030
227,2.539765,2,6,9,11,25,-1034
228,2.55097,2,5,9,14,25,-1036
229,2.562158,2,6,9,13,23,-1031
230,2.573343,2,6,9,11,30,-1035
231,2.584526,2,6,8,13,24,-1025
232,2.59571,2,6,8,13,27,-1039
233,2.606901,2,5,8,13,29,-1029
234,2.618094,2,6,8,12,25,-1033
235,2.629276,2,7,10,13,27,-1039
236,2.640458,3,5,9,15,20,-1030
237,2.651645,3,6,10,11,24,-1037
238,2.662828,0,6,8,14,28,-1034
239,2.674025,1,6,9,11,27,-1029
240,2.685209,1,7,10,14,25,-1038
241,2.696391,2,6,9,12,24,-1037
242,2.707578,2,6,9,17,24,-1033
243,2.718764,3,4,8,13,28,-1040
244,2.729953,3,6,10,16,29,-1037
245,2.741137,2,7,9,13,26,-1035
246,2.752319,3,7,11,14,25,-1031
247,2.763504,1,6,9,13,28,-1030
248,2.774695,3,6,10,15,26,-1042
249,2.785878,2,5,10,10,23,-1041
250,2.797061,2,6,9,16,24,-1038
251,2.808247,0,3,10,16,28,-1035
252,2.819445,0,7,11,14,26,-1033
253,2.83064,1,4,10,17,25,-1045
254,2.841828,2,6,9,15,26,-1038
255,2.853008,2,9,8,11,28,-1032
256,2.8642,2,6,9,13,22,-1036
257,2.875385,2,6,9,13,27,-1035
258,2.886581,2,6,10,15,26,-1034
259,2.897765,3,5,10,13,24,-1036
260,2.908965,0,5,9,15,30,-1029
261,2.920148,1,9,9,12,23,-1030
262,2.931337,3,8,8,13,22,-1034
263,2.942523,2,6,10,15,25,-1035
264,2.953708,2,7,10,15,24,-1036
265,2.964891,2,8,9,13,25,-1035
266,2.976072,3,6,10,11,29,-1031
267,2.987258,3,5,8,12,25,-1037
268,2.998455,4,6,7,11,26,-1034
269,3.009638,3,7,10,14,28,-1041
270,3.020822,3,6,10,16,24,-1030
271,3.032014,4,6,9,14,29,-1032
272,3.043212,2,7,9,16,27,-1032
273,3.0544,2,6,11,16,24,-1040
274,3.065582,0,4,10,10,24,-1030
275,3.076768,1,8,8,10,29,-1035
276,3.087953,0,7,9,17,30,-1033
277,3.099145,2,6,8,14,23,-1033
278,3.110331,1,7,9,14,24,-1040
279,3.121518,4,7,9,13,25,-1036
280,3.132704,2,5,8,13,25,-1036
281,3.143889,2,8,10,11,28,-1033
282,3.155078,4,7,8,15,25,-1030
283,3.166276,3,4,11,14,25,-1038
284,3.177461,3,6,9,14,31,-1036
285,3.188642,4,5,10,12,21,-1039
286,3.199833,2,6,8,16,23,-1031
287,3.211017,2,5,8,14,25,-1039
288,3.222208,2,6,10,17,27,-1033
289,3.233391,1,7,9,12,23,-1039
290,3.244573,2,6,9,15,25,-1033
291,3.25577,0,6,8,15,27,-1035
292,3.266956,3,7,10,14,29,-1035
293,3.27814,2,4,9,14,24,-1037
294,3.289324,3,5,11,12,24,-1034
295,3.300508,2,7,9,16,26,-1031
296,3.31169,2,8,10,13,25,-1031
297,3.322877,2,4,9,11,26,-1026
298,3.334078,2,8,12,13,26,-1038
299,3.34527,3,7,12,15,27,-1034
300,3.356454,3,6,10,16,23,-1038
301,3.367638,2,8,9,16,29,-1041
302,3.378828,0,7,8,15,26,-1035
303,3.390026,1,5,10,14,24,-1032
304,3.40121,2,8,10,12,26,-1035
305,3.412395,3,5,9,14,25,-1035
306,3.423578,5,6,9,17,29,-1034
307,3.434764,2,5,8,16,24,-1032
308,3.445952,3,5,7,13,25,-1033
309,3.457143,2,6,9,10,25,-1041
310,3.468324,3,9,9,14,27,-1037
311,3.479507,1,6,7,15,26,-1035
312,3.490691,3,8,8,16,26,-1033
313,3.501873,4,6,10,14,24,-1034
314,3.513067,2,8,11,17,26,-1032
315,3.524247,2,6,8,11,25,-1030
316,3.535434,4,5,10,13,27,-1037
317,3.546622,2,9,7,15,25,-1037
318,3.557803,3,6,10,12,23,-1034
319,3.568986,3,3,9,15,26,-1042
320,3.580177,3,6,9,15,22,-1033
321,3.591367,0,7,9,13,26,-1029
322,3.602553,1,5,10,11,25,-1032
323,3.613755,3,7,10,15,25,-1035
324,3.624937,3,8,7,21,26,-1030
325,3.636122,2,5,10,16,23,-1038
326,3.647305,4,8,11,15,25,-1033
327,3.658458,2,9,9,17,22,-1037
328,3.669642,2,7,9,14,23,-1037
329,3.680825,3,7,8,14,24,-1035
330,3.692008,1,6,10,12,28,-1039
331,3.703193,2,7,8,15,25,-1038
332,3.714386,2,7,8,14,27,-1035
333,3.725567,3,6,10,15,28,-1031
334,3.736748,4,5,6,12,23,-1028
335,3.747932,1,7,8,16,30,-1033
336,3.759114,2,7,8,15,27,-1045
337,3.770273,2,6,9,12,24,-1032
338,3.781456,1,7,8,8,24,-1033
339,3.792636,3,6,10,11,22,-1036
340,3.803817,3,4,8,12,24,-1028
341,3.815013,2,6,9,10,25,-1034
342,3.826202,2,7,10,14,24,-1033
343,3.837385,1,7,7,14,24,-1032
344,3.848575,2,6,9,13,24,-1038
345,3.85976,2,6,9,14,28,-1037
346,3.870945,2,7,9,15,26,-1033
347,3.88209,3,6,9,14,26,-1034
348,3.893277,1,7,9,13,25,-1033
349,3.904459,3,5,8,15,29,-1033
350,3.915642,1,3,8,16,29,-1035
351,3.926833,3,6,8,14,28,-1032
352,3.938017,1,6,10,11,25,-1034
353,3.949202,2,6,9,13,27,-1034
354,3.960382,2,4,8,11,21,-1034
355,3.971575,2,7,10,9,24,-1035
356,3.982772,3,6,8,16,26,-1031
357,3.993954,4,5,9,15,26,-1039
358,4.00514,2,5,9,14,32,-1033
359,4.016319,3,7,9,17,25,-1037
360,4.0275,2,8,8,13,26,-1031
361,4.038642,2,6,8,12,27,-1036
362,4.049822,0,6,11,15,28,-1037
363,4.061003,1,5,9,14,27,-1030
364,4.072184,1,7,10,15,26,-1032
365,4.083366,5,6,8,11,23,-1040
366,4.094549,3,4,7,8,25,-1036
367,4.105733,1,7,8,12,25,-1037
368,4.116918,3,9,8,10,24,-1035
369,4.1281,2,4,10,15,27,-1040
370,4.139293,1,7,7,13,29,-1033
371,4.150461,1,7,10,15,27,-1033
372,4.161652,1,5,9,12,25,-1033
373,4.172835,0,6,9,13,26,-1032
374,4.184026,1,6,9,16,28,-1029
375,4.195211,2,6,9,11,25,-1027
376,4.206398,4,6,8,14,26,-1032
377,4.2176,2,7,8,15,27,-1030
378,4.229152,3,6,9,15,23,-1037
379,4.240743,2,8,9,17,26,-1036
380,4.252298,2,6,8,14,30,-1031
381,4.263881,2,6,9,12,27,-1039
382,4.275421,1,6,8,14,29,-1031
383,4.286969,1,6,8,14,31,-1035
384,4.298541,1,6,8,14,25,-1030
385,4.310113,1,9,9,11,29,-1032
386,4.321786,3,7,10,15,23,-1032
387,4.333465,1,6,9,10,25,-1028
388,4.345106,1,4,8,11,27,-1025
389,4.356774,2,6,9,17,26,-1034
390,4.368431,4,8,6,14,24,-1037
391,4.380075,3,6,9,12,29,-1032
392,4.391726,3,6,9,12,26,-1032
393,4.403381,4,7,10,14,28,-1032
394,4.415041,2,5,9,15,26,-1035
395,4.426601,2,5,8,14,29,-1031
396,4.438173,2,8,8,14,29,-1036
397,4.449717,2,5,9,11,27,-1038
398,4.461287,1,8,6,15,25,-1035
399,4.47286,4,7,10,17,24,-1038
400,4.484405,1,6,9,13,29,-1035
401,4.495991,3,6,8,16,27,-1041
402,4.507532,3,6,10,12,27,-1030
403,4.519197,2,5,8,15,27,-1038
404,4.530894,1,6,10,13,25,-1030
405,4.542588,4,8,10,13,31,-1032
406,4.554276,3,4,8,15,23,-1036
407,4.565945,3,7,9,14,24,-1030
408,4.577598,2,7,7,10,26,-1031
409,4.58928,1,6,7,13,25,-1037
410,4.600929,0,5,8,15,29,-1033
411,4.612581,3,7,9,13,27,-1037
412,4.624135,1,6,11,15,24,-1037
413,4.635744,2,8,7,14,26,-1037
414,4.6473,1,6,7,13,26,-1034
415,4.658865,3,5,10,12,26,-1032
416,4.670427,3,7,9,15,26,-1037
417,4.681982,3,6,8,10,24,-1036
418,4.69353,3,7,11,13,27,-1029
419,4.705114,0,5,10,16,23,-1036
420,4.716683,2,7,9,14,25,-1031
421,4.728311,3,5,9,15,26,-1035
422,4.739967,2,7,9,12,31,-1034
423,4.751638,4,6,7,12,25,-1029
424,4.763291,1,9,9,14,25,-1036
425,4.774981,5,4,9,15,27,-1036
426,4.786654,3,6,9,11,27,-1029
427,4.798332,3,7,11,12,27,-1030
428,4.810012,2,5,6,14,24,-1033
429,4.821661,3,6,9,12,24,-1038
430,4.833252,2,7,11,12,25,-1030
431,4.84482,5,5,8,15,28,-1041
432,4.856367,2,7,11,10,27,-1034
433,4.867985,1,6,8,13,27,-1036
434,4.879536,4,5,10,13,29,-1033
435,4.891104,2,5,9,13,27,-1037
436,4.902663,1,5,8,13,24,-1041
437,4.914183,1,8,8,15,25,-1034
438,4.92574,3,9,7,13,32,-1039
439,4.937381,2,7,11,15,28,-1032
440,4.949054,2,7,8,12,23,-1034
441,4.960754,3,7,11,12,29,-1037
442,4.972418,2,6,9,16,23,-1035
443,4.984073,4,6,10,10,24,-1036
444,4.995759,1,4,8,14,25,-1034
445,5.007414,2,6,8,15,25,-1034
446,5.019112,2,6,8,10,22,-1029
447,5.030809,1,6,10,12,25,-1031
448,5.042473,3,6,8,14,23,-1030
449,5.054054,3,6,8,13,23,-1029
450,5.065607,2,5,10,11,24,-1026
451,5.077172,2,5,10,8,24,-1032
452,5.088756,1,6,10,14,24,-1036
453,5.100388,2,5,9,13,23,-1031
454,5.111934,2,4,7,12,25,-1034
455,5.12348,1,6,9,11,29,-1033
456,5.13506,2,6,10,15,23,-1040
457,5.146788,2,6,12,16,26,-1037
458,5.158471,1,6,9,12,30,-1026
459,5.170161,1,6,10,10,24,-1029
460,5.18182,0,6,7,13,29,-1032
461,5.193481,4,8,9,16,25,-1033
462,5.205147,1,6,9,17,25,-1038
463,5.216801,3,8,9,14,31,-1034
464,5.228453,4,5,9,13,23,-1026
465,5.240148,2,6,8,13,23,-1033
466,5.251845,2,7,8,14,25,-1034
467,5.263409,3,6,8,15,25,-1030
468,5.274959,1,6,10,16,27,-1034
469,5.286519,3,6,10,14,28,-1035
470,5.298094,5,4,9,17,25,-1039
471,5.30964,2,7,10,14,27,-1037
472,5.321213,3,5,9,16,28,-1037
473,5.332749,2,7,10,14,25,-1035
474,5.344295,3,8,10,16,27,-1038
475,5.355942,3,7,8,15,24,-1039
476,5.367579,2,4,10,12,27,-1033
477,5.379255,2,5,9,17,27,-1032
478,5.390912,3,7,10,9,25,-1026
479,5.402611,3,5,8,10,25,-1035
480,5.414278,4,4,12,15,26,-1032
481,5.425943,1,6,8,11,24,-1039
482,5.437619,2,5,11,17,24,-1031
483,5.449312,2,6,12,11,25,-1037
484,5.461018,2,7,9,12,24,-1038
485,5.472589,3,7,9,16,22,-1042
486,5.48413,3,4,6,14,25,-1035
487,5.495675,3,5,10,13,28,-1029
488,5.507222,3,5,9,15,27,-1036
489,5.518783,1,5,9,14,24,-1037
490,5.530338,2,4,9,15,27,-1039
491,5.541925,2,5,9,17,23,-1036
492,5.553491,3,7,8,16,26,-1024
493,5.565139,1,6,9,15,25,-1031
494,5.576798,3,8,9,13,25,-1027
495,5.588443,2,6,8,12,28,-1038
496,5.600123,3,7,10,12,23,-1036
497,5.611781,2,7,9,14,25,-1031
498,5.623428,4,6,9,12,31,-1035
499,5.635118,1,7,9,14,26,-1038
500,5.646767,3,5,10,13,27,-1036
501,5.658469,1,5,10,11,27,-1036
502,5.670125,2,8,10,20,27,-1041
503,5.681706,4,7,8,16,24,-1029
504,5.693273,1,6,10,12,25,-1037
505,5.704832,1,7,8,13,26,-1038
506,5.716392,0,7,10,16,26,-1033
507,5.727961,2,7,8,12,26,-1032
508,5.739513,2,7,8,8,23,-1030
509,5.75108,3,5,9,12,22,-1031
510,5.76266,2,6,11,14,24,-1036
511,5.774354,3,6,10,15,27,-1037
512,5.786028,0,3,10,12,23,-1038
513,5.79767,4,7,8,11,25,-1030
514,5.809342,2,5,8,15,24,-1030
515,5.821041,1,6,10,13,26,-1039
516,5.832678,3,7,9,11,23,-1033
517,5.844326,3,5,11,15,23,-1034
518,5.856014,1,3,9,12,26,-1035
519,5.867669,3,6,9,13,26,-1039
520,5.879376,2,7,9,13,27,-1033
521,5.89105,2,7,11,12,29,-1036
522,5.902728,2,8,10,16,27,-1028
523,5.914392,3,6,8,18,23,-1035
524,5.926074,1,6,9,12,27,-1035
525,5.937736,1,8,6,12,23,-1031
526,5.94941,2,6,10,19,26,-1035
527,5.961075,2,6,11,14,29,-1035
528,5.972802,2,6,9,12,26,-1032
529,5.984457,1,6,8,16,23,-1033
530,5.995998,1,6,9,11,28,-1030
531,6.007545,3,8,6,12,27,-1034
532,6.019095,3,5,9,11,28,-1031
533,6.030654,0,6,11,11,30,-1038
534,6.042183,2,6,12,12,29,-1039
535,6.053728,2,8,11,15,27,-1037
536,6.065298,2,7,10,11,23,-1029
537,6.076847,2,8,9,14,25,-1034
538,6.088507,2,4,10,14,26,-1032
539,6.100158,1,5,10,14,24,-1033
540,6.1118,3,6,11,14,30,-1039
541,6.123493,3,5,9,12,26,-1029
542,6.135152,1,7,6,13,24,-1030
543,6.146815,1,7,9,17,24,-1036
544,6.158469,1,8,9,13,29,-1029
545,6.170129,1,8,9,18,24,-1036
546,6.18181,3,7,9,13,25,-1032
547,6.193478,2,6,10,12,27,-1032
548,6.205128,3,6,10,13,24,-1028
549,6.216776,2,3,9,15,27,-1033
550,6.228425,1,6,8,16,27,-1035
551,6.240063,3,7,8,15,27,-1033
552,6.251705,3,7,10,16,25,-1029
553,6.263372,3,4,9,14,27,-1037
554,6.275017,0,6,8,12,25,-1032
555,6.286727,1,7,10,10,29,-1033
556,6.298388,2,7,9,14,25,-1037
557,6.310032,2,6,8,13,20,-1041
558,6.32168,3,5,9,13,27,-1033
559,6.333353,1,7,8,14,28,-1032
560,6.345011,2,5,9,12,26,-1033
561,6.356661,4,7,9,10,27,-1031
562,6.368331,0,6,9,13,23,-1030
563,6.379981,0,6,11,10,25,-1032
564,6.391628,6,6,8,16,26,-1037
565,6.403202,4,8,8,15,27,-1033
566,6.414802,3,8,9,14,25,-1034
567,6.426349,2,8,8,13,25,-1033
568,6.437943,3,6,10,15,27,-1031
569,6.449496,2,5,8,14,24,-1031
570,6.461056,3,6,8,12,24,-1035
571,6.472613,3,5,7,13,27,-1035
572,6.484188,2,8,8,14,28,-1031
573,6.495794,3,6,8,10,27,-1030
574,6.507452,4,5,8,13,25,-1031
575,6.519118,4,7,8,16,25,-1036
576,6.530773,2,7,9,11,26,-1031
577,6.542465,3,4,10,12,29,-1039
578,6.554134,1,5,10,11,25,-1033
579,6.565783,2,5,8,11,24,-1033
580,6.577477,2,7,10,15,28,-1030
581,6.589118,2,5,9,14,24,-1032
582,6.600774,3,7,9,13,24,-1032
583,6.612448,4,5,9,17,25,-1035
584,6.624022,2,7,7,10,25,-1027
585,6.635568,4,4,11,14,24,-1037
586,6.647137,3,7,10,11,34,-1033
587,6.658685,2,7,9,17,29,-1027
588,6.670242,4,7,9,12,25,-1036
589,6.68181,1,6,8,12,24,-1033
590,6.693351,3,5,10,12,26,-1031
591,6.704907,1,6,8,15,24,-1037
592,6.716523,0,6,10,13,27,-1029
593,6.728175,3,5,8,16,24,-1040
594,6.739847,1,7,10,13,26,-1036
595,6.751499,3,6,8,12,21,-1030
596,6.763148,1,8,11,11,27,-1034
597,6.774797,2,4,10,17,24,-1032
598,6.786475,1,6,9,15,24,-1038
599,6.798123,3,5,10,7,28,-1034
600,6.809784,2,4,9,14,23,-1038
601,6.82144,0,8,9,11,24,-1031
602,6.833007,1,7,10,12,23,-1034
603,6.844553,3,4,10,13,25,-1036
604,6.85609,2,7,9,13,28,-1032
605,6.867633,3,7,7,12,30,-1040
606,6.879146,3,5,9,12,25,-1032
607,6.890668,2,6,9,13,27,-1032
608,6.902189,3,8,10,13,23,-1033
609,6.913771,4,5,8,15,23,-1036
610,6.925415,5,6,9,15,24,-1034
611,6.937097,4,8,7,13,25,-1036
612,6.948745,3,8,9,14,25,-1033
613,6.960396,1,5,8,14,25,-1035
614,6.972057,1,7,11,13,26,-1039
615,6.983705,2,3,8,10,25,-1036
616,6.995367,3,6,8,15,28,-1034
617,7.007022,2,6,10,11,27,-1031
618,7.018705,1,6,8,14,26,-1031
619,7.030374,4,5,10,15,24,-1036
620,7.041947,3,6,10,12,27,-1036
621,7.053516,4,7,8,18,23,-1030
622,7.065058,1,7,8,13,25,-1033
623,7.0766,3,7,9,11,27,-1035
624,7.08814,2,8,10,10,25,-1031
625,7.099683,1,8,8,14,28,-1034
626,7.111227,3,4,10,13,26,-1035
627,7.122799,2,9,8,10,26,-1037
628,7.134517,3,6,10,14,26,-1033
629,7.146218,3,5,8,12,27,-1039
630,7.157866,2,7,10,13,27,-1036
631,7.169522,2,7,8,13,28,-1035
632,7.181168,3,7,11,13,24,-1033
633,7.192821,3,3,10,13,30,-1031
634,7.204492,2,7,8,20,25,-1032
635,7.216136,2,5,9,11,25,-1030
636,7.227794,1,5,7,15,26,-1034
637,7.23948,1,8,9,10,24,-1029
638,7.251044,1,5,9,13,30,-1037
639,7.262594,4,5,9,13,23,-1038
640,7.274159,4,6,9,13,28,-1034
641,7.285703,1,8,9,15,28,-1034
642,7.297271,2,8,10,12,26,-1032
643,7.308824,2,8,9,16,26,-1033
644,7.320406,3,5,9,13,26,-1034
645,7.331965,2,5,8,13,30,-1027
646,7.343585,0,7,9,12,26,-1030
647,7.355247,3,5,10,14,24,-1036
648,7.366902,3,8,5,12,25,-1040
649,7.378588,4,8,10,12,25,-1032
650,7.390253,2,8,8,16,24,-1030
651,7.401897,4,6,9,8,26,-1036
652,7.413568,3,5,8,10,22,-1036
653,7.425223,4,8,8,14,27,-1036
654,7.436928,4,6,10,13,26,-1044
655,7.448597,0,6,9,15,27,-1029
656,7.460152,4,7,7,11,25,-1038
657,7.4717,3,7,8,17,27,-1028
658,7.483288,2,7,10,16,25,-1037
659,7.494873,2,3,9,16,25,-1030
660,7.506425,2,6,9,15,24,-1043
661,7.517988,2,10,9,13,23,-1036
662,7.529541,3,5,10,14,25,-1037
663,7.541096,1,7,8,15,29,-1036
664,7.552722,1,6,11,14,27,-1034
665,7.564376,2,8,8,10,25,-1041
666,7.576034,3,6,9,12,30,-1040
667,7.587709,3,4,10,12,28,-1029
668,7.599379,4,7,9,14,26,-1033
669,7.611049,3,5,8,12,27,-1032
670,7.622729,4,6,10,9,24,-1035
671,7.634381,2,7,9,11,25,-1030
672,7.646096,2,8,7,13,24,-1037
673,7.657759,0,5,6,16,28,-1035
674,7.669333,4,7,9,14,27,-1040
675,7.680902,2,5,7,13,22,-1034
676,7.692472,0,5,8,13,29,-1039
677,7.70423,2,6,10,11,24,-1034
678,7.715873,2,6,10,12,25,-1030
679,7.727436,3,7,8,13,26,-1033
680,7.73899,2,5,9,15,26,-1041
681,7.750658,2,8,8,14,24,-1031
682,7.762339,2,8,9,15,27,-1035
683,7.774014,3,5,11,16,26,-1025
684,7.78567,3,8,8,14,25,-1034
685,7.797328,3,5,9,12,24,-1037
686,7.808985,3,4,10,9,25,-1033
687,7.820624,1,7,10,13,25,-1033
688,7.83227,1,5,10,13,28,-1031
689,7.843956,1,7,7,12,26,-1035
690,7.855608,2,7,8,12,19,-1034
691,7.867232,3,7,8,12,26,-1033
692,7.878805,1,7,9,14,24,-1035
693,7.890404,4,6,10,15,26,-1031
694,7.901946,3,7,8,16,26,-1033
695,7.91352,3,7,10,13,27,-1036
696,7.92513,1,6,10,13,26,-1038
697,7.936757,3,5,9,11,26,-1036
698,7.948308,2,8,9,15,24,-1041
699,7.959904,0,6,10,16,25,-1036
700,7.971545,3,8,11,13,23,-1034
701,7.983223,4,6,10,14,22,-1039
702,7.994879,1,5,10,14,27,-1039
703,8.006553,2,6,10,11,24,-1036
704,8.018213,2,5,7,11,25,-1034
705,8.029858,1,7,10,12,26,-1032
706,8.041548,3,7,9,14,24,-1037
707,8.053193,2,7,9,12,23,-1034
708,8.064854,4,6,6,11,26,-1035
709,8.076523,3,3,9,14,20,-1036
710,8.088102,1,6,10,10,26,-1033
711,8.09965,3,7,9,12,28,-1039
712,8.111198,3,5,9,16,26,-1040
713,8.122776,2,6,9,11,26,-1030
714,8.134325,2,6,10,14,22,-1036
715,8.145874,2,7,8,9,26,-1029
716,8.157419,4,3,10,14,28,-1035
717,8.169006,1,7,9,11,27,-1040
718,8.180626,3,5,10,10,25,-1039
719,8.192272,3,6,8,10,25,-1037
720,8.203931,2,8,9,16,28,-1034
721,8.215581,3,7,9,13,27,-1030
722,8.227236,4,7,10,9,26,-1037
723,8.238889,1,7,9,11,28,-1033
724,8.250583,2,7,9,16,28,-1031
725,8.262208,2,6,10,10,24,-1034
726,8.273847,4,7,9,10,25,-1031
727,8.285389,3,6,8,12,26,-1041
728,8.296929,2,7,10,14,27,-1036
729,8.30847,2,9,7,17,25,-1039
730,8.320018,2,7,9,10,25,-1030
731,8.331555,3,7,10,11,26,-1035
732,8.343129,3,6,7,14,25,-1037
733,8.354661,4,5,10,13,27,-1031
734,8.366252,4,7,10,16,27,-1027
735,8.377804,1,7,9,11,27,-1037
736,8.389432,3,6,10,9,27,-1037
737,8.401075,2,8,11,18,24,-1028
738,8.412766,3,6,8,15,27,-1035
739,8.424455,4,6,9,16,24,-1043
740,8.436094,3,6,8,14,25,-1031
741,8.447752,3,5,10,18,31,-1033
742,8.459406,1,8,9,15,24,-1035
743,8.471067,5,6,9,15,25,-1034
744,8.482738,1,6,8,14,28,-1032
745,8.494398,2,8,11,15,23,-1034
746,8.505946,2,7,10,13,25,-1037
747,8.517516,2,8,9,11,27,-1032
748,8.529097,4,5,8,10,24,-1036
749,8.54065,1,7,10,14,26,-1032
750,8.552204,2,6,11,12,32,-1036
751,8.563757,3,8,9,14,21,-1038
752,8.575302,3,8,8,17,16,-1032
753,8.586862,4,6,8,14,31,-1030
754,8.598468,2,7,8,15,27,-1039
755,8.610112,3,4,9,12,26,-1033
756,8.621784,0,5,7,13,24,-1039
757,8.633439,3,6,8,12,23,-1036
758,8.645079,1,7,10,12,33,-1039
759,8.656719,1,7,10,15,26,-1037
760,8.668391,2,7,10,10,24,-1037
761,8.680205,4,7,9,16,29,-1032
762,8.691898,2,8,12,13,25,-1038
763,8.703554,1,7,7,16,22,-1036
764,8.715149,3,6,11,16,24,-1030
765,8.726737,1,6,9,14,24,-1040
766,8.7383,2,7,11,16,26,-1030
767,8.749852,4,4,8,11,22,-1041
768,8.761399,2,7,8,14,26,-1039
769,8.772945,5,7,10,15,26,-1035
770,8.784515,1,5,8,14,25,-1042
771,8.796128,0,9,9,12,26,-1038
772,8.807764,2,7,8,13,29,-1038
773,8.819434,2,7,8,13,24,-1035
774,8.831111,1,8,9,15,27,-1035
775,8.842774,1,7,9,10,30,-1030
776,8.854463,2,7,9,10,27,-1031
777,8.866111,2,6,12,15,24,-1036
778,8.877782,2,6,9,11,26,-1029
779,8.889434,1,6,8,15,24,-1035
780,8.901086,2,5,7,13,27,-1031
781,8.912759,4,8,8,14,30,-1032
782,8.924369,0,8,10,10,27,-1031
783,8.935919,3,5,8,15,28,-1035
784,8.947491,1,6,9,11,28,-1038
785,8.959112,2,5,6,11,27,-1032
786,8.97067,3,6,10,12,27,-1033
787,8.982245,2,6,10,11,23,-1038
788,8.993793,1,8,9,15,26,-1033
789,9.005363,2,6,7,14,20,-1032
790,9.017038,2,7,9,14,23,-1037
791,9.028681,5,6,10,14,26,-1040
792,9.040333,2,7,8,13,24,-1038
793,9.052,3,6,9,11,23,-1030
794,9.063662,3,7,11,11,28,-1036
795,9.075311,1,6,8,9,24,-1033
796,9.086998,1,6,9,13,27,-1035
797,9.098666,1,6,9,13,28,-1033
798,9.110331,1,8,10,17,26,-1042
799,9.121889,2,6,11,13,27,-1031
800,9.133458,3,8,10,15,23,-1042
801,9.145084,3,8,10,14,27,-1035
802,9.156629,4,9,8,11,26,-1034
803,9.16817,1,7,9,17,25,-1032
804,9.179724,4,5,9,16,30,-1032
805,9.191276,3,7,8,14,25,-1033
806,9.202827,3,6,9,15,26,-1039
807,9.214419,2,5,10,12,27,-1033
808,9.226085,3,6,8,9,26,-1034
809,9.237765,3,8,9,13,26,-1032
810,9.24942,2,6,8,11,28,-1035
811,9.261072,5,5,9,11,24,-1028
812,9.272745,4,8,9,12,23,-1034
813,9.284401,2,7,10,13,27,-1039
814,9.296049,1,6,9,14,27,-1034
815,9.307709,3,5,9,14,24,-1039
816,9.319386,1,8,9,14,27,-1028
817,9.331046,1,5,11,14,31,-1033
818,9.342728,1,6,11,13,23,-1034
819,9.3544,2,5,10,10,28,-1035
820,9.366074,3,7,9,10,28,-1041
821,9.377746,2,7,9,11,25,-1036
822,9.389405,4,6,8,12,28,-1033
823,9.401052,1,7,8,11,28,-1029
824,9.412779,1,9,10,14,26,-1034
825,9.424433,3,6,8,13,26,-1035
826,9.436081,2,6,10,10,24,-1025
827,9.447755,4,7,10,11,26,-1036
828,9.45941,3,8,9,11,32,-1031
829,9.47107,2,8,9,8,24,-1040
830,9.482722,3,8,8,12,30,-1035
831,9.494381,4,7,11,14,21,-1028
832,9.506036,3,8,8,15,26,-1033
833,9.517717,3,9,9,13,26,-1040
834,9.529408,4,8,7,14,26,-1033
835,9.540978,2,8,9,14,27,-1037
836,9.552533,3,6,11,13,28,-1034
837,9.564094,3,8,8,12,25,-1038
838,9.575633,2,6,9,13,23,-1031
839,9.587142,2,8,11,12,28,-1041
840,9.598659,1,6,10,15,26,-1034
841,9.610179,2,5,9,13,31,-1036
842,9.621734,2,8,9,10,28,-1042
843,9.633345,3,5,9,13,22,-1034
844,9.644991,3,5,11,14,25,-1029
845,9.656637,2,9,11,16,27,-1031
846,9.668282,3,5,9,13,28,-1038
847,9.679934,1,7,8,12,29,-1033
848,9.691565,1,7,10,12,25,-1035
849,9.703264,3,6,10,13,27,-1033
850,9.714924,1,6,9,14,26,-1037
851,9.72663,1,7,7,16,25,-1034
852,9.738282,2,7,11,15,25,-1036
853,9.749842,1,8,9,19,29,-1036
854,9.761395,1,6,8,16,25,-1029
855,9.772942,3,7,10,12,25,-1033
856,9.784498,2,5,9,13,26,-1040
857,9.796094,3,8,9,15,22,-1032
858,9.807644,0,7,9,15,25,-1031
859,9.819221,3,7,9,13,28,-1038
860,9.8308,2,7,8,17,22,-1034
861,9.842461,2,9,8,13,22,-1042
862,9.854123,2,4,11,16,24,-1034
863,9.865775,4,4,7,11,23,-1029
864,9.877429,3,6,8,13,25,-1035
865,9.889115,2,6,9,8,23,-1037
866,9.900781,0,6,11,14,22,-1034
867,9.912435,2,6,9,15,23,-1036
868,9.924075,3,6,7,15,24,-1035
869,9.935767,2,6,8,7,27,-1034
870,9.947432,3,7,7,13,26,-1032
871,9.958976,2,6,8,13,22,-1027
872,9.970543,1,6,8,12,23,-1030
873,9.982118,3,7,10,8,24,-1030
874,9.993689,2,7,7,15,23,-1036
875,10.005243,1,8,9,12,25,-1044
876,10.01682,0,7,9,14,28,-1036
877,10.028364,3,6,9,14,25,-1039
878,10.039927,2,5,9,9,25,-1039
879,10.051612,2,7,8,9,28,-1034
880,10.063246,2,8,8,13,21,-1040
881,10.074908,3,5,7,17,23,-1032
882,10.086603,2,3,9,13,26,-1042
883,10.098274,3,7,9,12,24,-1035
884,10.109945,3,6,10,13,23,-1034
885,10.121634,1,5,8,13,23,-1036
886,10.133272,0,7,9,16,27,-1030
887,10.144913,3,6,10,9,23,-1034
888,10.15646,1,7,12,12,25,-1038
889,10.167995,1,5,9,11,28,-1034
890,10.179535,2,7,7,13,25,-1038
891,10.191086,3,6,9,18,26,-1035
892,10.202654,4,6,8,13,23,-1033
893,10.214181,2,6,12,17,29,-1031
894,10.225723,1,8,8,16,29,-1035
895,10.237305,2,5,9,10,25,-1034
896,10.248924,2,6,8,13,23,-1037
897,10.260593,0,6,9,11,24,-1034
898,10.272257,3,5,7,10,26,-1033
899,10.283907,2,7,10,14,22,-1035
900,10.295545,2,8,10,11,30,-1035
901,10.30724,2,7,10,12,26,-1033
902,10.318896,1,6,8,15,27,-1035
903,10.330535,1,8,10,16,26,-1027
904,10.342212,3,4,10,14,23,-1027
905,10.353877,2,9,5,16,26,-1034
906,10.365457,3,6,9,14,22,-1036
907,10.377001,1,8,9,16,27,-1033
908,10.388568,3,7,8,14,25,-1034
909,10.40012,3,6,8,16,24,-1033
910,10.411692,1,5,8,10,25,-1026
911,10.423278,1,7,11,13,28,-1029
912,10.434829,3,7,9,11,23,-1030
913,10.446384,2,6,7,13,31,-1035
914,10.458014,4,7,8,14,28,-1039
915,10.469662,1,6,8,16,27,-1036
916,10.481311,2,6,8,13,24,-1031
917,10.492985,2,8,7,15,21,-1033
918,10.504638,3,5,8,12,25,-1042
919,10.516292,3,8,8,13,28,-1034
920,10.527933,2,7,9,13,21,-1037
921,10.539578,3,11,8,14,24,-1044
922,10.551244,1,5,10,11,26,-1035
923,10.562803,4,7,9,16,28,-1031
924,10.574356,3,6,10,12,28,-1039
925,10.585945,3,5,10,11,29,-1035
926,10.59749,2,7,7,11,23,-1034
927,10.609063,1,7,7,13,25,-1035
928,10.6206,3,4,7,14,24,-1033
929,10.632173,3,5,10,16,25,-1030
930,10.64372,3,7,10,18,27,-1041
931,10.65528,2,7,10,13,30,-1031
932,10.666919,2,4,10,14,26,-1040
933,10.678601,3,8,11,10,24,-1038
934,10.690264,3,5,10,16,25,-1033
935,10.701936,3,6,9,16,25,-1037
936,10.713581,1,5,10,18,27,-1029
937,10.725238,2,8,13,11,24,-1033
938,10.736881,2,7,9,15,26,-1035
939,10.748525,1,5,8,14,27,-1034
940,10.76018,3,5,9,16,27,-1032
941,10.771856,2,5,10,15,26,-1033
942,10.783435,1,4,8,16,28,-1038
943,10.794992,2,7,10,13,29,-1033
944,10.806564,3,5,8,14,26,-1036
945,10.818106,2,6,8,13,27,-1030
946,10.829649,1,7,8,13,23,-1034
947,10.8412,3,5,9,10,27,-1037
948,10.852739,1,9,10,11,25,-1037
949,10.8643,2,7,8,14,26,-1040
950,10.875914,3,8,9,14,22,-1029
951,10.887599,3,7,10,14,25,-1043
952,10.899246,2,5,7,13,24,-1034
953,10.910895,1,7,9,12,24,-1024
954,10.922552,1,6,8,6,26,-1030
955,10.93422,2,7,10,14,24,-1033
956,10.945869,1,7,10,15,28,-1039
957,10.957514,4,5,7,11,25,-1035
958,10.969173,2,6,10,12,23,-1036
959,10.98083,0,6,9,16,23,-1035
960,10.992394,3,6,11,14,31,-1030
961,11.00397,3,6,11,16,25,-1034
962,11.015574,2,7,8,15,27,-1035
963,11.027172,1,8,9,12,27,-1033
964,11.038725,2,4,8,14,28,-1034
965,11.0503,4,6,11,11,24,-1033
966,11.061848,0,5,7,12,24,-1036
967,11.073433,1,7,8,14,26,-1037
968,11.085095,2,6,8,12,27,-1030
969,11.096749,3,6,9,13,26,-1040
970,11.108411,2,6,10,16,25,-1029
971,11.120066,2,6,10,15,30,-1036
972,11.13174,1,8,8,14,26,-1034
973,11.143405,2,6,9,12,26,-1036
974,11.155056,3,5,10,10,24,-1029
975,11.166728,4,7,11,14,25,-1028
976,11.178402,2,6,9,16,26,-1034
977,11.190058,3,6,9,13,25,-1027
978,11.201619,1,6,8,15,26,-1028
979,11.213187,3,9,10,15,26,-1041
980,11.224773,3,4,11,10,28,-1038
981,11.236317,1,6,9,10,27,-1033
982,11.24787,0,6,10,10,24,-1031
983,11.259433,1,6,10,13,27,-1036
984,11.27106,3,7,8,12,25,-1036
985,11.282625,1,4,7,14,28,-1035
986,11.294215,4,8,10,19,26,-1034
987,11.305867,3,7,12,13,26,-1032
988,11.317506,2,7,10,10,21,-1030
989,11.329151,4,6,8,11,26,-1029
990,11.340821,2,5,9,15,21,-1040
991,11.352478,3,7,10,15,29,-1036
992,11.364128,2,8,9,14,27,-1035
993,11.375848,2,6,11,13,21,-1040
994,11.387522,2,8,9,11,24,-1038
995,11.399193,2,5,6,14,22,-1033
996,11.410872,2,7,10,13,26,-1032
997,11.422517,4,6,9,13,27,-1034
998,11.434191,2,5,8,12,27,-1032
999,11.445851,2,6,9,14,26,-1035
1000,11.457487,2,4,8,15,26,-1033
1001,11.469132,2,7,9,18,28,-1034
1002,11.480792,1,7,8,14,21,-1031
1003,11.49247,1,6,10,15,25,-1040
1004,11.50412,4,7,8,9,26,-1034
1005,11.515775,2,6,9,19,27,-1032
1006,11.527456,2,6,10,11,23,-1035
1007,11.53913,1,8,9,12,30,-1032
1008,11.550783,2,8,9,15,26,-1036
1009,11.562462,2,5,10,13,26,-1033
1010,11.574123,1,8,9,11,27,-1030
1011,11.585768,2,8,9,15,25,-1032
1012,11.597458,4,7,10,13,23,-1031
1013,11.609122,2,4,9,10,23,-1033
1014,11.620676,3,8,8,12,25,-1038
1015,11.632225,0,7,8,16,31,-1038
1016,11.643779,2,5,9,13,28,-1031
1017,11.655328,3,7,8,14,28,-1031
1018,11.666919,2,7,8,14,27,-1037
1019,11.67848,1,4,10,12,26,-1031
1020,11.690058,2,7,11,11,25,-1035
1021,11.701631,4,6,8,14,31,-1036
1022,11.713248,2,5,7,12,26,-1041
1023,11.724913,2,6,9,14,26,-1035
1024,11.736568,1,5,9,11,29,-1033
1025,11.748262,0,6,9,11,27,-1032
1026,11.759935,4,8,10,10,23,-1037
1027,11.771588,2,8,7,12,23,-1033
1028,11.783236,2,6,8,13,27,-1038
1029,11.794892,2,5,9,18,24,-1035
1030,11.806602,2,7,7,14,27,-1036
1031,11.818259,2,6,8,13,26,-1037
1032,11.829817,3,5,8,11,27,-1037
1033,11.841367,3,9,9,16,29,-1035
1034,11.852931,1,10,11,14,25,-1037
1035,11.864522,3,5,9,14,24,-1033
1036,11.876094,4,6,9,12,23,-1041
1037,11.887663,0,6,9,12,22,-1032
1038,11.899208,1,8,8,13,28,-1039
1039,11.910793,2,6,9,12,25,-1035
1040,11.922505,2,8,10,14,27,-1031
1041,11.934192,3,6,9,13,23,-1043
1042,11.945848,1,5,10,15,22,-1033
1043,11.957492,2,6,10,10,29,-1032
1044,11.969139,4,4,9,14,26,-1034
1045,11.980809,2,6,8,14,26,-1030
1046,11.99246,1,7,10,11,23,-1032
1047,12.004106,1,8,11,14,26,-1035
1048,12.01577,2,9,9,13,24,-1030
1049,12.027461,2,7,12,13,27,-1034
1050,12.039047,1,9,8,15,26,-1031
1051,12.050592,0,7,9,16,25,-1044
1052,12.06217,1,5,7,12,24,-1034
1053,12.073712,2,5,9,15,27,-1034
1054,12.085254,2,3,8,12,28,-1032
1055,12.096799,4,4,10,9,26,-1039
1056,12.108404,4,7,8,16,23,-1034
1057,12.119967,3,5,8,14,26,-1031
1058,12.131589,2,6,10,12,24,-1034
1059,12.143243,3,6,11,14,27,-1031
1060,12.154888,1,6,10,17,31,-1034
1061,12.166539,3,7,11,16,24,-1034
1062,12.178214,2,7,9,12,26,-1035
1063,12.189857,3,6,10,10,31,-1030
1064,12.201506,2,6,9,18,28,-1034
1065,12.213179,2,6,9,13,22,-1036
1066,12.224843,2,7,7,12,24,-1032
1067,12.236495,3,6,10,11,25,-1030
1068,12.248057,3,8,11,11,29,-1034
1069,12.259626,1,7,10,14,26,-1030
1070,12.271165,5,6,9,13,25,-1033
1071,12.28276,2,6,12,9,24,-1028
1072,12.294325,4,7,9,13,27,-1038
1073,12.305885,2,4,8,14,27,-1030
1074,12.317443,1,4,9,15,22,-1034
1075,12.32905,2,7,7,10,26,-1032
1076,12.340697,1,8,9,15,27,-1035
1077,12.352366,3,6,9,12,28,-1032
1078,12.364031,1,6,7,16,24,-1030
1079,12.375698,3,4,9,13,26,-1034
1080,12.387366,0,5,8,16,25,-1030
1081,12.399023,3,5,12,13,26,-1039
1082,12.410718,4,5,9,11,25,-1037
1083,12.422373,3,8,8,18,27,-1035
1084,12.434035,3,5,9,15,29,-1031
1085,12.445691,2,7,10,14,26,-1036
1086,12.457257,0,6,9,15,29,-1031
1087,12.46882,3,6,9,11,25,-1029
1088,12.480395,1,6,9,11,25,-1037
1089,12.49196,1,8,8,9,28,-1036
1090,12.503526,4,4,9,11,26,-1042
1091,12.515093,3,6,8,9,26,-1038
1092,12.526654,0,7,9,8,24,-1031
1093,12.538199,0,7,10,14,27,-1031
1094,12.549835,4,8,10,14,24,-1032
1095,12.561497,3,6,9,12,25,-1039
1096,12.573175,4,7,9,8,24,-1031
1097,12.58484,4,7,8,13,30,-1038
1098,12.596492,2,8,9,19,24,-1035
1099,12.608163,1,9,9,10,22,-1029
1100,12.619818,3,8,8,16,25,-1028
1101,12.631521,2,5,10,14,26,-1032
1102,12.643196,3,9,10,12,22,-1037
1103,12.654863,2,6,10,13,25,-1031
1104,12.666427,5,8,7,10,27,-1037
1105,12.677984,3,4,11,13,23,-1029
1106,12.689529,4,5,7,10,26,-1033
1107,12.701109,2,6,9,14,29,-1038
1108,12.712661,2,6,8,11,23,-1039
1109,12.724243,2,6,10,11,24,-1029
1110,12.735783,1,7,7,15,25,-1030
1111,12.747336,3,7,9,15,26,-1036
1112,12.758976,2,5,10,13,26,-1033
1113,12.770635,3,7,10,16,24,-1037
1114,12.782292,1,7,8,17,25,-1030
1115,12.793952,3,4,9,13,25,-1038
1116,12.805598,4,5,10,16,24,-1032
1117,12.817261,1,6,12,16,29,-1038
1118,12.828908,3,7,11,14,25,-1032
1119,12.840562,2,5,8,16,25,-1034
1120,12.852253,2,6,10,14,26,-1034
1121,12.863915,3,5,10,15,28,-1031
1122,12.87552,3,5,10,13,25,-1037
1123,12.887085,2,6,10,11,28,-1029
1124,12.898654,3,7,8,12,31,-1036
1125,12.910183,2,4,9,10,26,-1030
1126,12.921738,1,6,9,13,25,-1033
1127,12.933288,2,5,10,12,25,-1034
1128,12.944835,2,6,10,12,27,-1033
1129,12.956395,3,8,8,14,30,-1031
1130,12.968085,3,7,8,14,23,-1034
1131,12.97975,2,8,9,10,29,-1039
1132,12.991417,1,7,10,13,26,-1033
1133,13.0031,1,7,8,13,24,-1029
1134,13.014727,1,5,8,14,24,-1032
1135,13.026376,2,7,9,16,26,-1031
1136,13.038023,2,9,11,17,26,-1033
1137,13.049692,2,6,8,11,28,-1038
1138,13.061363,1,7,8,12,30,-1031
1139,13.073032,3,6,8,16,26,-1034
1140,13.084619,2,7,9,9,26,-1033
1141,13.096163,2,6,9,16,25,-1038
1142,13.107711,2,5,9,12,27,-1036
1143,13.119283,3,7,8,13,29,-1030
1144,13.130838,3,7,10,13,26,-1037
1145,13.142417,2,7,11,15,24,-1027
1146,13.154009,2,6,8,13,25,-1034
1147,13.165572,2,7,9,14,30,-1033
1148,13.177183,2,6,8,11,23,-1038
1149,13.188833,4,5,9,13,27,-1041
1150,13.20047,1,8,7,14,25,-1030
1151,13.212119,2,5,12,10,27,-1031
1152,13.223841,1,7,7,13,22,-1029
1153,13.235487,3,7,8,18,24,-1035
1154,13.247166,2,5,9,13,27,-1035
1155,13.258844,0,6,9,11,26,-1035
1156,13.270477,1,4,9,13,30,-1032
1157,13.282151,2,6,11,12,29,-1032
1158,13.293747,2,4,6,13,28,-1031
1159,13.305293,3,6,8,12,24,-1038
1160,13.316868,3,6,8,17,28,-1033
1161,13.328416,3,6,10,13,24,-1036
1162,13.33999,4,7,11,15,28,-1040
1163,13.351524,2,6,9,14,25,-1037
1164,13.363094,1,6,9,14,28,-1030
1165,13.374669,1,6,9,13,25,-1030
1166,13.38632,2,6,10,12,27,-1031
1167,13.397952,3,5,10,12,25,-1028
1168,13.409601,3,7,7,12,25,-1034
1169,13.421268,2,5,9,14,28,-1035
1170,13.43292,2,7,9,10,21,-1033
1171,13.444565,2,6,9,16,23,-1034
1172,13.456209,3,7,9,15,29,-1037
1173,13.467851,2,4,10,16,27,-1035
1174,13.479502,2,8,9,12,24,-1038
1175,13.491164,1,9,10,13,22,-1035
1176,13.502832,1,5,11,15,28,-1032
1177,13.514468,1,6,10,13,31,-1033
1178,13.526134,1,6,8,13,25,-1033
1179,13.537799,3,7,10,9,24,-1033
1180,13.549448,3,6,9,13,29,-1035
1181,13.561111,3,6,9,11,28,-1031
1182,13.572759,2,5,11,16,24,-1034
1183,13.584432,1,8,8,11,27,-1034
1184,13.596112,3,7,10,15,26,-1038
1185,13.607663,1,6,10,14,22,-1036
1186,13.619227,2,6,10,12,26,-1035
1187,13.6308,3,6,8,16,26,-1029
1188,13.642357,3,7,8,13,24,-1037
1189,13.653933,3,7,8,17,24,-1037
1190,13.6655,2,7,7,12,26,-1036
1191,13.677048,2,5,8,15,26,-1035
1192,13.688692,1,7,11,14,27,-1039
1193,13.700628,2,7,9,9,26,-1036
1194,13.71243,4,7,9,13,27,-1033
1195,13.724093,2,7,7,13,26,-1027
1196,13.735802,4,8,10,15,25,-1035
1197,13.747489,4,4,9,10,22,-1036
1198,13.75916,2,5,10,11,25,-1027
1199,13.770858,1,7,7,13,28,-1031
1200,13.782515,2,7,10,11,23,-1031
1201,13.794203,1,7,9,13,28,-1031
1202,13.80576,2,6,9,13,27,-1035
1203,13.817308,3,6,10,12,28,-1034
1204,13.828861,2,6,10,10,30,-1034
1205,13.840406,3,9,10,16,27,-1032
1206,13.851989,4,6,9,10,27,-1039
1207,13.863531,2,6,9,11,27,-1036
1208,13.875108,1,5,9,13,26,-1038
1209,13.886664,1,7,9,10,25,-1036
1210,13.898261,2,6,11,18,26,-1032
1211,13.909943,4,7,10,13,25,-1041
1212,13.921606,0,7,10,15,27,-1039
1213,13.933261,0,5,9,11,26,-1038
1214,13.944923,0,7,8,17,26,-1037
1215,13.956576,1,4,8,13,29,-1039
1216,13.968244,2,8,10,10,26,-1038
1217,13.979921,0,6,10,15,29,-1032
1218,13.991588,3,4,9,15,27,-1031
1219,14.003258,1,4,9,15,22,-1030
1220,14.01482,2,6,9,13,25,-1034
1221,14.026376,0,6,9,12,32,-1034
1222,14.037936,4,5,7,11,28,-1035
1223,14.049478,3,6,9,12,24,-1038
1224,14.061024,3,7,11,14,26,-1027
1225,14.072597,1,9,11,16,28,-1034
1226,14.084159,3,6,9,16,26,-1029
1227,14.095748,2,6,8,13,24,-1038
1228,14.107406,2,4,9,12,27,-1038
1229,14.119061,3,6,9,15,25,-1039
1230,14.130739,1,5,7,7,22,-1030
1231,14.142409,2,7,11,16,27,-1035
1232,14.154083,2,7,11,13,24,-1036
1233,14.165756,5,6,10,14,28,-1037
1234,14.177407,4,8,9,11,28,-1038
1235,14.189049,3,6,10,16,30,-1035
1236,14.200711,5,5,9,15,21,-1031
1237,14.212354,3,6,8,16,29,-1038
1238,14.224007,1,8,9,18,24,-1034
1239,14.235656,3,6,9,15,20,-1035
1240,14.247299,4,5,9,14,28,-1034
1241,14.258965,3,7,10,14,24,-1037
1242,14.270633,1,7,9,15,29,-1036
1243,14.282282,2,5,10,14,28,-1040
1244,14.293948,2,8,10,11,26,-1037
1245,14.30565,2,6,10,16,24,-1029
1246,14.317291,3,7,9,14,27,-1034
1247,14.328935,3,5,9,19,24,-1030
1248,14.340617,1,5,7,14,26,-1033
1249,14.352279,2,5,10,16,28,-1031
1250,14.363929,2,7,8,14,28,-1033
1251,14.375571,2,7,9,20,28,-1034
1252,14.387239,2,5,8,12,26,-1026
1253,14.398925,3,5,8,14,25,-1038
1254,14.410663,5,4,9,13,28,-1041
1255,14.422336,1,6,9,10,26,-1034
1256,14.433896,3,5,8,14,24,-1041
1257,14.445469,3,5,9,17,25,-1036
1258,14.45701,3,6,8,16,28,-1028
1259,14.468549,2,5,8,17,22,-1035
1260,14.480098,3,7,10,11,27,-1029
1261,14.491638,4,5,8,15,24,-1038
1262,14.503186,3,7,11,11,24,-1036
1263,14.514741,2,6,8,16,22,-1036
1264,14.526436,4,6,9,13,25,-1035
1265,14.538113,3,7,11,13,26,-1039
1266,14.549766,1,7,8,13,25,-1033
1267,14.561412,1,8,8,10,26,-1034
1268,14.573055,4,7,9,12,24,-1038
1269,14.584713,2,7,10,13,26,-1032
1270,14.596382,2,8,9,11,23,-1041
1271,14.608023,3,7,8,16,28,-1033
1272,14.619682,4,7,9,17,20,-1036
1273,14.631382,3,4,11,10,25,-1032
1274,14.64303,3,6,6,15,27,-1037
1275,14.654701,1,5,10,13,26,-1034
1276,14.666373,1,6,11,9,29,-1037
1277,14.678019,1,6,8,11,26,-1036
1278,14.689668,2,5,9,16,24,-1034
1279,14.701312,2,6,7,13,25,-1028
1280,14.713003,2,7,9,14,27,-1034
1281,14.724679,2,5,6,10,28,-1032
1282,14.736335,2,5,9,16,28,-1037
1283,14.747997,3,5,10,12,25,-1036
1284,14.759646,1,8,10,15,26,-1031
1285,14.771297,4,8,10,16,26,-1033
1286,14.782984,2,6,10,14,29,-1041
1287,14.794642,2,6,8,15,25,-1032
1288,14.806281,1,6,9,13,21,-1035
1289,14.817948,2,6,9,12,26,-1039
1290,14.829594,2,7,9,13,28,-1037
1291,14.841285,4,5,9,13,23,-1038
1292,14.852997,3,8,9,17,28,-1030
1293,14.864652,3,8,10,12,26,-1040
1294,14.876308,2,6,9,13,25,-1040
1295,14.887959,3,10,10,13,28,-1036
1296,14.89964,1,7,7,13,25,-1027
1297,14.911301,3,7,9,16,24,-1041
1298,14.922983,3,5,7,11,21,-1035
1299,14.934744,2,4,8,15,27,-1032
1300,14.946418,4,6,9,16,26,-1033
1301,14.957988,3,7,7,14,26,-1030
1302,14.969552,3,6,8,16,29,-1032
1303,14.981101,2,7,10,13,26,-1031
1304,14.992679,3,8,10,14,27,-1032
1305,15.004224,1,5,7,13,28,-1033
1306,15.015773,5,5,10,13,27,-1032
1307,15.027333,2,6,8,11,27,-1037
1308,15.038904,2,7,10,12,26,-1031
1309,15.050533,2,6,8,12,28,-1030
1310,15.06221,1,8,9,11,27,-1029
1311,15.073952,2,7,10,14,27,-1035
1312,15.085625,3,5,10,12,28,-1035
1313,15.097274,-1,7,8,9,25,-1036
1314,15.108931,5,7,11,14,22,-1030
1315,15.120597,1,7,9,17,28,-1035
1316,15.132253,1,3,9,12,22,-1035
1317,15.143917,4,7,9,14,26,-1034
1318,15.155576,1,6,8,12,29,-1032
1319,15.167161,1,8,8,15,23,-1035
1320,15.178708,2,6,9,13,23,-1038
1321,15.190253,1,7,9,14,23,-1036
1322,15.201805,3,6,10,14,24,-1034
1323,15.213348,2,5,9,11,27,-1033
1324,15.224885,2,7,8,14,26,-1035
1325,15.236424,4,7,6,14,27,-1038
1326,15.247974,0,8,8,14,32,-1041
1327,15.25962,1,7,9,15,27,-1035
1328,15.271273,2,6,8,11,26,-1036
1329,15.282973,3,9,10,13,26,-1030
1330,15.294628,1,7,9,17,27,-1038
1331,15.306276,2,6,11,14,25,-1033
1332,15.317943,3,5,11,14,30,-1033
1333,15.329652,2,7,11,12,29,-1034
1334,15.341417,2,6,10,14,25,-1034
1335,15.353114,3,6,9,14,25,-1030
1336,15.364793,3,7,9,13,22,-1037
1337,15.376334,4,7,8,18,22,-1033
1338,15.387875,2,6,9,14,26,-1040
1339,15.399422,2,5,9,14,30,-1034
1340,15.410972,2,7,10,12,28,-1036
1341,15.422542,1,5,7,13,24,-1036
1342,15.434088,1,8,10,15,22,-1032
1343,15.445716,3,7,10,12,28,-1034
1344,15.457292,2,6,10,12,28,-1032
1345,15.468904,2,3,10,15,24,-1035
1346,15.480571,3,7,9,15,23,-1031
1347,15.492232,1,7,9,11,26,-1037
1348,15.503886,2,5,9,13,26,-1031
1349,15.515534,4,6,8,12,23,-1035
1350,15.527223,3,9,10,14,24,-1031
1351,15.538892,1,7,10,18,23,-1027
1352,15.550588,3,6,8,14,24,-1036
1353,15.562252,1,6,10,12,25,-1035
1354,15.573817,2,6,9,12,25,-1034
1355,15.58536,2,7,9,14,24,-1040
1356,15.596897,4,9,9,18,25,-1036
1357,15.608444,2,5,9,12,25,-1035
1358,15.620002,2,6,10,13,22,-1033
1359,15.631569,1,6,9,14,32,-1030
1360,15.643136,4,6,7,12,30,-1036
1361,15.654662,2,7,9,13,25,-1034
1362,15.666197,4,10,8,11,25,-1033
1363,15.677813,3,6,8,14,23,-1033
1364,15.689467,2,7,8,13,23,-1034
1365,15.701119,2,7,9,15,28,-1031
1366,15.712767,0,6,10,14,23,-1032
1367,15.724404,0,5,9,9,24,-1032
1368,15.736046,3,6,8,13,24,-1040
1369,15.747726,3,9,9,10,23,-1033
1370,15.759371,4,9,10,11,22,-1030
1371,15.771037,2,9,7,15,30,-1031
1372,15.782693,0,7,7,11,23,-1032
1373,15.794313,2,7,7,11,28,-1033
1374,15.80586,2,6,10,14,23,-1034
1375,15.817457,3,7,10,11,23,-1038
1376,15.829011,3,7,9,16,23,-1029
1377,15.840554,3,4,9,13,27,-1034
1378,15.852094,4,5,8,12,26,-1031
1379,15.863635,2,7,10,15,26,-1036
1380,15.875189,1,7,10,8,24,-1033
1381,15.886834,0,6,8,12,24,-1038
1382,15.898468,1,6,10,13,23,-1034
1383,15.910133,0,9,7,8,21,-1030
1384,15.921783,2,7,9,15,21,-1037
1385,15.933439,1,5,10,14,24,-1033
1386,15.945085,3,8,8,15,23,-1032
1387,15.956734,2,6,9,14,26,-1037
1388,15.968382,3,6,8,15,30,-1033
1389,15.980031,2,7,8,12,27,-1034
1390,15.991678,2,4,8,15,25,-1025
1391,16.003365,1,7,8,13,23,-1038
1392,16.015016,1,7,11,16,24,-1039
1393,16.026678,3,5,6,15,22,-1035
1394,16.038355,4,8,11,14,28,-1031
1395,16.050002,2,5,9,15,23,-1032
1396,16.061647,2,6,11,15,26,-1036
1397,16.073313,0,9,10,17,25,-1034
1398,16.085,2,6,10,10,23,-1035
1399,16.096648,2,6,11,16,22,-1039
1400,16.108314,3,7,8,14,24,-1034
1401,16.119979,1,6,10,18,24,-1036
1402,16.131635,1,5,8,12,26,-1041
1403,16.14331,2,6,8,14,29,-1035
1404,16.154978,2,5,10,14,22,-1032
1405,16.166634,3,6,10,12,27,-1038
1406,16.17829,3,7,10,14,26,-1036
1407,16.190049,1,6,10,12,24,-1034
1408,16.201734,2,6,9,10,23,-1037
1409,16.213311,0,6,10,13,26,-1037
1410,16.224866,2,6,11,16,27,-1030
1411,16.236425,3,7,9,14,24,-1034
1412,16.247968,5,6,10,12,24,-1040
1413,16.25952,3,8,11,12,26,-1029
1414,16.271078,1,7,7,10,23,-1033
1415,16.282648,3,6,9,12,25,-1033
1416,16.294195,2,7,9,14,27,-1036
1417,16.305836,3,6,10,11,26,-1041
1418,16.317544,3,7,11,15,23,-1034
1419,16.329215,3,7,9,17,23,-1038
1420,16.34086,1,5,11,15,26,-1042
1421,16.352506,2,6,9,13,26,-1035
1422,16.364154,2,8,10,16,28,-1037
1423,16.375799,2,7,9,15,24,-1030
1424,16.387481,1,6,9,15,27,-1039
1425,16.399149,3,4,8,15,24,-1034
1426,16.410833,4,7,9,16,30,-1036
1427,16.422427,2,5,11,14,29,-1026
1428,16.433941,3,5,9,8,27,-1033
1429,16.445483,3,6,9,15,25,-1030
1430,16.45704,2,6,9,17,22,-1032
1431,16.468583,2,7,9,14,26,-1038
1432,16.480131,3,6,9,15,25,-1037
1433,16.491671,2,6,10,9,29,-1036
1434,16.503231,2,6,9,13,23,-1030
1435,16.514944,4,4,8,14,29,-1035
1436,16.526611,1,6,9,15,25,-1031
1437,16.538277,2,6,8,15,26,-1033
1438,16.549943,4,5,9,13,23,-1038
1439,16.561623,1,6,10,13,28,-1031
1440,16.573277,3,7,9,12,28,-1031
1441,16.584923,1,5,8,12,25,-1031
1442,16.596564,2,6,9,14,28,-1036
1443,16.608255,1,8,9,15,28,-1033
1444,16.619902,0,8,7,13,24,-1037
1445,16.631579,2,5,10,14,27,-1034
1446,16.64324,3,7,9,12,25,-1034
1447,16.654922,3,6,11,13,25,-1028
1448,16.666608,1,7,9,14,23,-1035
1449,16.678264,2,6,11,13,29,-1034
1450,16.689956,3,6,10,11,27,-1029
1451,16.701596,3,6,9,13,24,-1033
1452,16.713322,2,8,8,8,23,-1034
1453,16.724985,2,7,9,20,27,-1030
1454,16.736534,2,7,11,14,26,-1038
1455,16.748091,2,8,7,10,26,-1033
1456,16.75967,3,8,8,13,24,-1030
1457,16.77122,3,5,11,15,27,-1030
1458,16.782792,2,5,8,10,26,-1034
1459,16.794343,2,5,9,17,28,-1038
1460,16.805887,0,6,10,11,27,-1037
1461,16.817465,3,6,8,10,26,-1030
1462,16.829088,4,6,8,18,28,-1028
1463,16.840744,3,7,8,9,25,-1039
1464,16.85239,1,5,9,15,27,-1026
1465,16.864055,2,9,12,15,27,-1035
1466,16.875709,1,6,8,17,25,-1034
1467,16.887376,3,7,10,15,24,-1029
1468,16.899052,2,7,11,14,24,-1039
1469,16.910722,3,11,12,12,24,-1031
1470,16.922378,2,7,8,16,28,-1034
1471,16.934049,3,5,9,13,28,-1036
1472,16.945609,2,7,9,16,23,-1030
1473,16.957161,2,7,7,14,24,-1030
1474,16.968718,3,6,8,12,22,-1038
1475,16.980281,1,6,12,15,25,-1037
1476,16.991852,4,6,9,14,24,-1035
1477,17.003409,2,8,8,15,28,-1028
1478,17.014955,2,6,10,14,27,-1030
1479,17.02651,2,8,9,16,25,-1035
1480,17.038133,1,4,10,11,24,-1040
1481,17.049781,3,8,10,16,31,-1040
1482,17.061444,3,5,8,18,21,-1033
1483,17.073094,3,7,9,13,24,-1036
1484,17.084734,2,6,10,15,21,-1027
1485,17.096382,2,8,9,12,21,-1040
1486,17.108049,3,6,9,12,23,-1039
1487,17.119706,3,6,8,19,25,-1032
1488,17.131377,2,5,10,12,28,-1034
1489,17.143043,2,7,9,15,22,-1028
1490,17.154604,3,6,10,11,26,-1035
1491,17.166183,2,8,9,14,29,-1034
1492,17.177753,3,6,8,11,24,-1032
1493,17.189314,1,7,9,14,26,-1035
1494,17.200912,2,8,9,13,29,-1034
1495,17.212467,3,8,9,10,25,-1027
1496,17.224029,1,6,8,13,24,-1034
1497,17.235584,3,4,9,15,27,-1035
1498,17.247228,3,6,10,14,24,-1030
1499,17.258883,3,6,10,13,27,-1032
1500,17.270536,1,5,9,13,27,-1034
1501,17.28221,3,4,6,15,26,-1034
1502,17.293849,3,4,8,14,23,-1037
1503,17.305521,1,5,12,13,27,-1034
1504,17.317207,1,6,10,15,23,-1029
1505,17.328846,3,3,9,14,23,-1033
1506,17.340504,3,6,9,9,22,-1035
1507,17.352161,3,6,9,16,26,-1038
1508,17.363749,1,6,9,14,22,-1029
1509,17.375305,3,6,9,11,26,-1036
1510,17.386905,3,6,11,11,25,-1037
1511,17.398423,2,6,7,14,22,-1030
1512,17.410011,3,9,10,12,27,-1034
1513,17.421555,1,7,9,14,26,-1036
1514,17.433137,2,6,9,16,28,-1030
1515,17.444693,3,5,11,13,27,-1030
1516,17.45632,1,6,7,15,25,-1035
1517,17.467969,3,6,10,14,23,-1038
1518,17.479615,2,8,9,12,22,-1033
1519,17.491236,4,5,8,15,26,-1033
1520,17.502909,3,5,8,14,27,-1035
1521,17.51458,0,5,9,10,25,-1032
1522,17.526212,2,7,10,15,23,-1031
1523,17.537858,2,5,9,12,24,-1037
1524,17.549517,0,6,10,11,25,-1033
1525,17.561183,2,6,8,17,25,-1031
1526,17.572762,2,6,11,12,26,-1035
1527,17.584301,3,7,9,14,27,-1036
1528,17.595845,2,7,8,18,25,-1027
1529,17.607395,2,7,9,16,23,-1030
1530,17.618906,1,8,11,14,24,-1031
1531,17.630426,3,4,7,13,23,-1037
1532,17.64199,4,6,10,12,21,-1037
1533,17.653542,3,5,9,14,29,-1039
1534,17.665205,2,6,8,14,26,-1030
1535,17.676881,4,5,8,13,24,-1034
1536,17.688533,2,6,10,12,23,-1030
1537,17.70023,3,4,8,14,28,-1038
1538,17.711877,4,5,7,14,29,-1036
1539,17.723554,3,6,9,17,26,-1042
1540,17.735233,3,7,9,15,26,-1033
1541,17.746889,3,9,9,12,25,-1034
1542,17.758564,2,7,9,14,27,-1030
1543,17.770239,2,5,9,13,24,-1031
1544,17.781793,2,5,9,16,23,-1037
1545,17.793377,3,5,10,13,24,-1036
1546,17.804943,1,5,10,16,21,-1039
1547,17.816483,3,7,9,12,22,-1033
1548,17.828026,3,6,10,19,27,-1037
1549,17.839568,3,4,7,12,29,-1029
1550,17.851146,2,7,9,14,27,-1036
1551,17.862738,3,7,10,11,26,-1032
1552,17.874364,2,6,10,12,28,-1035
1553,17.88606,2,4,9,14,24,-1044
1554,17.897703,3,6,10,12,22,-1034
1555,17.909349,3,7,9,12,27,-1038
1556,17.920987,1,6,9,14,24,-1036
1557,17.932633,2,5,9,12,26,-1035
1558,17.944301,2,6,9,16,28,-1031
1559,17.955944,3,8,10,13,30,-1037
1560,17.967604,3,5,9,12,25,-1036
1561,17.979233,1,7,10,12,27,-1037
1562,17.990789,2,7,11,14,23,-1030
1563,18.002338,2,6,7,14,24,-1036
1564,18.013881,2,7,10,12,24,-1035
1565,18.025432,3,6,9,15,24,-1033
1566,18.037021,1,7,10,13,25,-1033
1567,18.048575,5,7,10,15,24,-1034
1568,18.060132,2,6,10,13,25,-1034
1569,18.071685,2,8,8,13,25,-1039
1570,18.083387,2,8,12,13,30,-1033
1571,18.095052,3,7,8,14,27,-1036
1572,18.106721,4,7,10,18,26,-1038
1573,18.118392,1,6,9,14,23,-1034
1574,18.130081,3,6,10,12,25,-1035
1575,18.141728,3,8,8,16,27,-1035
1576,18.153399,2,5,10,10,25,-1037
1577,18.165076,2,7,10,11,26,-1036
1578,18.176812,2,4,9,10,22,-1033
1579,18.188474,4,7,9,16,24,-1036
1580,18.200032,2,4,8,14,22,-1021
1581,18.211578,1,5,10,13,26,-1037
1582,18.223146,2,6,8,11,24,-1035
1583,18.23473,3,6,11,17,23,-1034
1584,18.246306,1,6,10,16,24,-1035
1585,18.257876,0,8,10,11,26,-1035
1586,18.269415,3,4,11,16,26,-1031
1587,18.280969,0,8,7,11,23,-1032
1588,18.292609,2,6,10,17,24,-1031
1589,18.304262,3,8,10,18,28,-1030
1590,18.315923,2,7,7,13,24,-1035
1591,18.327573,4,8,10,12,28,-1032
1592,18.339233,1,7,8,11,28,-1033
1593,18.350895,2,4,8,11,29,-1033
1594,18.362587,2,6,10,13,23,-1032
1595,18.374211,2,7,9,13,27,-1034
1596,18.385869,3,5,10,16,26,-1036
1597,18.397544,2,5,7,14,28,-1026
1598,18.409167,1,7,8,11,23,-1033
1599,18.420742,3,5,10,10,26,-1039
1600,18.432292,1,6,10,16,27,-1032
1601,18.44387,2,6,10,9,25,-1043
1602,18.455411,2,6,9,12,25,-1036
1603,18.466959,2,7,10,13,28,-1033
1604,18.478538,2,7,9,14,24,-1035
1605,18.490104,2,8,9,11,25,-1037
1606,18.501725,3,5,9,16,24,-1035
1607,18.513372,2,6,7,14,28,-1036
1608,18.525042,4,7,9,13,26,-1035
1609,18.536693,2,6,10,17,30,-1034
1610,18.548343,2,5,8,13,21,-1034
1611,18.560003,2,8,7,12,27,-1033
1612,18.571663,1,4,10,13,24,-1039
1613,18.586004,2,5,8,13,24,-1043
1614,18.597718,2,6,8,12,25,-1029
1615,18.609412,3,7,12,15,25,-1032
1616,18.620998,3,6,10,15,29,-1036
1617,18.632542,1,5,9,17,28,-1033
1618,18.644097,4,6,8,10,27,-1034
1619,18.655648,2,8,9,15,28,-1039
1620,18.667202,4,7,10,13,26,-1037
1621,18.678783,2,8,9,12,27,-1032
1622,18.690335,3,7,8,18,26,-1037
1623,18.701897,2,4,8,14,26,-1033
1624,18.713533,1,5,7,10,29,-1032
1625,18.725187,2,5,10,15,22,-1036
1626,18.736842,3,6,8,14,23,-1035
1627,18.748514,1,9,10,12,25,-1036
1628,18.760179,3,6,8,13,28,-1037
1629,18.771867,3,7,9,17,22,-1034
1630,18.783545,4,8,8,13,27,-1027
1631,18.79529,1,6,8,13,24,-1033
1632,18.807002,2,7,9,14,27,-1033
1633,18.818678,3,5,8,15,26,-1034
1634,18.830258,1,3,9,10,24,-1037
1635,18.841841,4,4,8,12,24,-1035
1636,18.853383,2,5,9,14,29,-1034
1637,18.864921,2,4,10,15,22,-1035
1638,18.876465,2,7,9,16,20,-1034
1639,18.888008,2,8,9,15,24,-1036
1640,18.89955,2,7,8,12,23,-1039
1641,18.911118,1,6,7,9,25,-1036
1642,18.922741,1,5,9,14,26,-1032
1643,18.934394,1,6,9,16,27,-1037
1644,18.946069,3,7,8,13,24,-1037
1645,18.957715,1,6,10,15,27,-1036
1646,18.969387,2,3,9,13,20,-1035
1647,18.98104,2,7,11,12,23,-1038
1648,18.992687,2,8,8,15,22,-1038
1649,19.004337,2,4,8,11,22,-1035
1650,19.01598,4,6,11,11,29,-1036
1651,19.027623,1,8,10,14,24,-1036
1652,19.039285,3,7,7,16,30,-1034
1653,19.050955,2,6,10,15,24,-1036
1654,19.062605,3,7,10,16,26,-1034
1655,19.074279,2,5,9,14,23,-1034
1656,19.085943,4,6,10,13,25,-1035
1657,19.097591,2,6,10,11,27,-1035
1658,19.109261,2,6,10,13,27,-1033
1659,19.120922,2,6,8,16,25,-1039
1660,19.132571,3,7,10,15,25,-1032
1661,19.144229,3,5,10,15,24,-1031
1662,19.155895,2,6,10,16,28,-1038
1663,19.16755,3,7,10,12,28,-1035
1664,19.179271,3,7,8,9,24,-1038
1665,19.190917,3,5,10,13,28,-1029
1666,19.202592,2,6,8,14,24,-1041
1667,19.21427,3,7,11,15,27,-1039
1668,19.225953,3,5,10,14,28,-1030
1669,19.237634,2,6,10,10,28,-1034
1670,19.249211,2,7,9,13,24,-1030
1671,19.260754,2,7,9,13,24,-1039
1672,19.272301,4,5,8,14,22,-1036
1673,19.283851,2,4,10,14,23,-1032
1674,19.295422,2,6,10,14,22,-1032
1675,19.306989,1,7,8,14,25,-1031
1676,19.318572,2,5,10,17,28,-1035
1677,19.330134,3,2,8,15,27,-1042
1678,19.341787,1,8,10,15,24,-1029
1679,19.353447,0,6,9,10,25,-1035
1680,19.365098,2,5,9,13,27,-1036
1681,19.37676,3,4,7,16,25,-1039
1682,19.388428,1,6,10,17,28,-1038
1683,19.400067,3,7,10,11,27,-1035
1684,19.411717,1,6,8,15,25,-1038
1685,19.423404,3,6,10,9,26,-1037
1686,19.435059,2,8,8,8,26,-1033
1687,19.446733,2,7,9,15,23,-1038
1688,19.458313,2,7,9,14,23,-1034
1689,19.469866,3,7,10,11,22,-1034
1690,19.481415,1,8,10,16,22,-1040
1691,19.492984,0,6,10,10,23,-1035
1692,19.504554,1,6,8,11,30,-1037
1693,19.516112,2,5,8,15,25,-1037
1694,19.527665,3,6,8,12,23,-1037
1695,19.539242,2,7,8,14,26,-1031
1696,19.550948,2,6,9,15,23,-1032
1697,19.562608,3,8,9,15,25,-1031
1698,19.574286,4,5,9,15,30,-1032
1699,19.585954,1,5,9,16,25,-1032
1700,19.597602,2,6,8,12,22,-1034
1701,19.609276,2,6,9,11,23,-1038
1702,19.620933,2,5,8,14,25,-1039
1703,19.632581,4,7,8,13,25,-1040
1704,19.644253,2,5,8,15,28,-1033
1705,19.655917,2,6,9,14,28,-1037
1706,19.667479,3,6,8,12,28,-1038
1707,19.679039,3,8,8,15,27,-1038
1708,19.690621,0,9,10,14,23,-1031
1709,19.702373,2,7,8,14,22,-1041
1710,19.713951,4,6,8,14,25,-1034
1711,19.725509,2,5,8,14,28,-1030
1712,19.737059,2,6,8,11,24,-1030
1713,19.748616,1,5,10,14,27,-1037
1714,19.760294,3,7,10,13,25,-1041
1715,19.771966,2,8,8,16,24,-1035
1716,19.783662,2,7,11,10,28,-1034
1717,19.795323,4,8,8,16,23,-1031
1718,19.807006,1,5,8,14,28,-1037
1719,19.818667,3,8,9,12,25,-1030
1720,19.83035,3,6,8,16,23,-1035
1721,19.842019,1,5,9,12,22,-1037
1722,19.853682,1,5,9,12,24,-1025
1723,19.865373,3,8,11,15,26,-1031
1724,19.87697,4,7,10,14,28,-1037
1725,19.888516,2,5,10,15,29,-1034
1726,19.90007,0,6,10,15,22,-1033
1727,19.91162,2,6,9,15,26,-1041
1728,19.923173,2,7,7,12,28,-1035
1729,19.934738,1,5,12,12,27,-1027
1730,19.946336,1,7,8,17,28,-1032
1731,19.957897,1,6,10,13,24,-1034
1732,19.969522,2,7,8,14,28,-1033
1733,19.981182,1,6,9,11,26,-1031
1734,19.992878,2,6,9,14,22,-1033
1735,20.004527,0,8,9,15,30,-1030
1736,20.01618,3,7,12,11,25,-1041
1737,20.027856,3,4,11,13,27,-1037
1738,20.039514,0,7,9,14,24,-1036
1739,20.051175,4,7,10,14,20,-1034
1740,20.062889,2,7,10,14,18,-1038
1741,20.074551,2,6,10,10,22,-1035
1742,20.086111,0,6,10,14,26,-1035
1743,20.097656,4,6,9,16,22,-1037
1744,20.109213,1,5,8,12,28,-1039
1745,20.120758,2,7,8,12,25,-1037
1746,20.132304,2,6,9,12,26,-1038
1747,20.14385,1,6,10,12,24,-1032
1748,20.155422,1,6,11,16,24,-1031
1749,20.166991,2,5,11,15,26,-1034
1750,20.178637,2,8,9,12,23,-1030
1751,20.190333,2,8,9,12,21,-1034
1752,20.201953,1,5,10,17,21,-1031
1753,20.213604,2,4,8,17,27,-1038
1754,20.225272,1,7,9,14,26,-1038
1755,20.236928,2,5,10,13,26,-1039
1756,20.248572,2,4,8,15,26,-1036
1757,20.260223,3,7,7,12,24,-1031
1758,20.27191,2,7,9,14,26,-1039
1759,20.283567,4,7,8,18,25,-1033
1760,20.295163,5,5,10,13,23,-1027
1761,20.306725,2,7,10,13,23,-1040
1762,20.318316,4,6,9,14,24,-1038
1763,20.329861,0,6,7,18,27,-1029
1764,20.341402,3,6,9,12,22,-1036
1765,20.352955,2,6,10,16,29,-1035
1766,20.364498,2,7,10,17,26,-1036
1767,20.376056,2,7,10,14,23,-1039
1768,20.387675,1,5,8,12,25,-1036
1769,20.399367,3,4,9,13,22,-1036
1770,20.411028,2,7,7,13,26,-1042
1771,20.4227,3,6,10,8,26,-1037
1772,20.434365,1,6,9,11,25,-1046
1773,20.446025,1,7,9,12,26,-1035
1774,20.457682,3,6,9,13,24,-1036
1775,20.469372,1,6,7,15,22,-1031
1776,20.481033,2,6,8,16,31,-1032
1777,20.492681,0,7,10,17,29,-1028
1778,20.50424,4,6,9,10,26,-1033
1779,20.515847,5,6,10,14,27,-1035
1780,20.527393,1,5,8,13,25,-1033
1781,20.538961,3,5,8,13,23,-1034
1782,20.550532,2,4,10,16,26,-1039
1783,20.562076,2,5,9,16,25,-1041
1784,20.573623,2,5,9,10,25,-1036
1785,20.585202,1,7,9,10,25,-1031
1786,20.596839,3,4,9,13,23,-1028
1787,20.608506,2,7,9,11,26,-1034
1788,20.620152,4,5,8,14,26,-1040
1789,20.631858,1,8,10,9,25,-1037
1790,20.643515,3,6,8,10,25,-1034
1791,20.65516,4,7,10,10,24,-1035
1792,20.666859,2,6,8,13,27,-1029
1793,20.678519,1,6,9,12,26,-1039
1794,20.690199,3,5,8,16,28,-1032
1795,20.70186,2,6,12,9,24,-1034
1796,20.713453,2,5,10,17,30,-1036
1797,20.725,2,5,11,12,24,-1034
1798,20.736573,3,4,8,16,27,-1032
1799,20.748123,3,5,9,14,27,-1032
1800,20.759694,2,6,9,17,26,-1033
1801,20.771289,4,5,7,15,24,-1038
1802,20.782843,2,4,10,15,26,-1039
1803,20.794417,2,7,11,11,24,-1034
1804,20.806091,2,5,8,16,26,-1038
1805,20.817759,3,6,10,12,26,-1037
1806,20.829413,0,6,9,12,21,-1035
1807,20.841064,2,6,8,10,26,-1037
1808,20.852729,1,5,7,14,29,-1033
1809,20.864399,2,5,11,12,26,-1036
1810,20.876044,4,6,9,10,25,-1034
1811,20.887697,2,6,8,13,23,-1033
1812,20.899395,2,5,9,13,28,-1035
1813,20.911053,4,7,8,11,25,-1037
1814,20.922615,2,5,10,14,22,-1041
1815,20.934179,2,7,8,12,25,-1039
1816,20.945725,3,8,9,16,29,-1031
1817,20.957266,1,6,8,10,28,-1033
1818,20.968808,4,6,10,12,28,-1035
1819,20.980351,3,6,10,9,24,-1037
1820,20.9919,2,6,7,16,25,-1040
1821,21.003455,2,6,8,13,27,-1033
1822,21.01511,2,7,9,9,24,-1038
1823,21.026788,0,6,9,12,24,-1038
1824,21.03847,1,5,11,11,24,-1037
1825,21.050128,1,8,10,12,25,-1033
1826,21.061778,2,5,10,14,24,-1032
1827,21.073437,2,7,9,11,25,-1030
1828,21.0851,2,4,9,12,27,-1032
1829,21.096746,1,8,10,15,27,-1033
1830,21.108404,2,5,11,9,24,-1034
1831,21.120058,3,8,9,14,22,-1034
1832,21.131619,2,7,10,13,27,-1034
1833,21.143172,1,5,10,10,29,-1039
1834,21.154739,1,6,9,18,26,-1036
1835,21.166322,4,6,8,19,25,-1038
1836,21.177876,1,6,9,13,30,-1032
1837,21.189445,3,5,11,12,28,-1026
1838,21.200981,3,6,7,14,26,-1030
1839,21.212529,3,5,9,15,29,-1035
1840,21.224142,2,8,10,14,22,-1039
1841,21.235786,1,6,10,15,25,-1033
1842,21.247619,4,4,9,12,23,-1032
1843,21.259277,2,6,9,13,25,-1035
1844,21.270989,2,6,9,15,28,-1039
1845,21.28265,1,7,9,10,24,-1035
1846,21.294315,5,7,12,16,24,-1032
1847,21.305955,2,8,9,14,29,-1034
1848,21.317642,0,4,10,13,28,-1039
1849,21.329287,3,7,8,13,23,-1039
1850,21.340955,2,5,9,17,28,-1035
1851,21.352615,2,6,9,13,29,-1040
1852,21.364251,1,8,9,14,27,-1031
1853,21.375892,1,6,9,13,25,-1037
1854,21.387552,3,8,9,9,22,-1039
1855,21.399248,0,7,9,14,24,-1039
1856,21.410909,1,8,9,16,21,-1036
1857,21.422627,2,8,10,16,24,-1038
1858,21.434281,3,8,9,17,29,-1031
1859,21.445947,2,6,9,12,25,-1036
1860,21.457618,1,7,6,13,23,-1041
1861,21.469255,3,5,11,15,26,-1033
1862,21.480901,2,6,10,15,28,-1037
1863,21.492578,3,6,10,15,28,-1040
1864,21.504247,2,5,9,12,27,-1036
1865,21.515907,2,6,9,13,26,-1035
1866,21.527573,0,6,10,15,22,-1037
1867,21.539241,3,9,9,12,25,-1039
1868,21.550814,4,7,12,14,25,-1037
1869,21.562358,3,8,9,12,28,-1035
1870,21.573931,1,6,9,15,28,-1038
1871,21.585475,1,7,9,14,26,-1031
1872,21.597019,2,6,11,15,26,-1033
1873,21.608563,1,7,7,16,23,-1037
1874,21.620122,2,9,11,15,22,-1038
1875,21.631694,3,7,11,13,22,-1035
1876,21.643376,4,6,9,11,26,-1034
1877,21.655034,1,8,10,14,28,-1032
1878,21.666729,4,5,10,15,28,-1031
1879,21.678392,2,7,9,15,25,-1040
1880,21.690071,0,8,10,16,24,-1037
1881,21.701749,1,5,9,12,26,-1036
1882,21.713408,0,6,9,11,23,-1033
1883,21.725058,3,6,10,16,24,-1037
1884,21.736737,2,7,9,15,22,-1036
1885,21.748417,2,7,8,12,27,-1035
1886,21.760006,3,6,9,13,26,-1033
1887,21.77157,2,7,8,13,27,-1040
1888,21.783167,2,7,9,15,27,-1031
1889,21.794725,4,7,10,12,29,-1031
1890,21.806305,3,8,9,13,28,-1033
1891,21.817844,1,8,11,16,23,-1034
1892,21.829394,3,4,9,10,28,-1043
1893,21.840951,2,6,8,13,25,-1031
1894,21.852604,2,6,9,13,25,-1032
1895,21.864262,3,6,11,11,28,-1036
1896,21.87591,2,7,7,12,24,-1040
1897,21.88756,3,8,9,11,28,-1033
1898,21.899247,3,5,9,9,28,-1031
1899,21.910897,2,5,8,14,29,-1035
1900,21.922542,1,9,10,18,28,-1026
1901,21.934217,3,6,9,13,31,-1034
1902,21.945873,2,8,9,10,26,-1033
1903,21.957519,2,6,9,14,26,-1036
1904,21.96919,3,5,9,11,29,-1031
1905,21.980846,2,6,11,15,28,-1041
1906,21.992493,3,9,10,13,24,-1035
1907,22.00414,0,7,9,10,28,-1038
1908,22.015784,3,5,6,11,27,-1034
1909,22.027456,2,9,9,14,26,-1038
1910,22.039116,6,8,10,12,25,-1033
1911,22.050798,5,6,9,11,24,-1036
1912,22.062473,4,5,7,13,27,-1035
1913,22.074124,2,6,11,10,22,-1034
1914,22.08577,3,5,9,13,28,-1040
1915,22.097437,3,5,11,16,24,-1037
1916,22.109091,1,7,9,13,28,-1034
1917,22.12074,2,5,9,12,25,-1038
1918,22.132383,2,8,9,18,25,-1035
1919,22.144064,2,8,9,12,27,-1031
1920,22.155755,2,8,9,13,28,-1038
1921,22.16743,3,6,8,9,27,-1036
1922,22.179113,2,7,8,11,25,-1037
1923,22.19077,1,7,8,16,26,-1032
1924,22.202462,3,6,8,14,23,-1030
1925,22.214111,2,5,10,16,24,-1038
1926,22.225758,2,7,10,13,27,-1034
1927,22.237414,3,6,10,19,23,-1032
1928,22.249125,2,6,10,12,24,-1035
1929,22.260777,2,6,9,17,26,-1029
1930,22.272459,4,6,8,13,22,-1036
1931,22.284027,2,4,8,14,25,-1033
1932,22.295578,2,5,9,12,24,-1034
1933,22.307165,2,5,9,15,29,-1037
1934,22.318735,0,6,6,14,28,-1035
1935,22.330307,3,6,9,16,29,-1032
1936,22.341867,3,6,11,16,27,-1038
1937,22.353422,3,6,9,16,31,-1034
1938,22.364977,3,6,9,13,24,-1039
1939,22.376618,1,4,9,13,26,-1040
1940,22.388287,3,6,9,12,24,-1037
1941,22.399944,0,6,8,19,29,-1031
1942,22.411597,2,5,9,14,26,-1040
1943,22.42324,2,9,8,15,27,-1035
1944,22.434892,3,4,9,12,29,-1035
1945,22.446539,2,8,8,12,26,-1031
1946,22.458211,1,6,9,10,20,-1038
1947,22.469873,4,8,7,13,25,-1031
1948,22.481544,3,4,6,16,27,-1034
1949,22.493204,4,5,9,14,23,-1037
1950,22.504854,1,5,8,17,26,-1037
1951,22.516536,2,7,10,15,26,-1037
1952,22.528212,4,7,10,12,28,-1036
1953,22.539876,3,5,10,13,28,-1032
1954,22.55152,4,4,10,11,26,-1038
1955,22.563195,2,7,9,8,21,-1033
1956,22.57487,2,6,8,14,23,-1028
1957,22.586528,1,7,8,13,27,-1032
1958,22.598094,2,5,9,14,23,-1037
1959,22.609662,2,6,12,19,26,-1039
1960,22.621209,2,5,7,13,29,-1036
1961,22.63278,3,7,9,13,25,-1030
1962,22.644321,2,6,10,15,23,-1035
1963,22.655877,1,7,9,13,25,-1037
1964,22.667425,3,8,9,14,25,-1039
1965,22.678982,3,5,7,15,24,-1031
1966,22.690605,4,7,10,13,26,-1036
1967,22.70226,2,9,7,15,25,-1041
1968,22.713945,1,7,10,17,26,-1038
1969,22.725587,2,6,7,12,22,-1035
1970,22.737235,3,7,9,17,26,-1031
1971,22.748932,2,3,9,9,24,-1039
1972,22.760583,1,6,9,12,30,-1033
1973,22.772228,2,7,8,10,24,-1033
1974,22.78389,1,7,8,14,24,-1034
1975,22.795541,2,5,10,15,27,-1029
1976,22.80715,2,4,8,14,24,-1028
1977,22.81872,3,3,9,11,25,-1032
1978,22.830296,2,8,8,13,24,-1035
1979,22.841852,1,5,9,15,24,-1031
1980,22.853409,2,6,8,9,24,-1040
1981,22.864948,2,6,11,9,27,-1035
1982,22.876492,2,5,9,16,26,-1034
1983,22.888073,3,5,9,11,23,-1037
1984,22.89971,3,7,9,10,27,-1026
1985,22.911371,2,6,8,12,25,-1035
1986,22.923069,2,7,8,12,24,-1041
1987,22.93472,2,7,11,13,25,-1033
1988,22.946388,2,5,8,15,26,-1033
1989,22.958081,1,5,8,14,30,-1035
1990,22.969715,3,5,8,16,23,-1036
1991,22.981366,2,6,8,14,26,-1031
1992,22.993032,3,6,10,19,27,-1040
1993,23.00471,3,6,10,15,25,-1035
1994,23.016274,2,7,8,15,25,-1037
1995,23.027836,4,6,10,12,26,-1035
1996,23.039394,1,6,10,14,27,-1034
1997,23.050945,3,5,11,17,26,-1032
1998,23.062498,2,3,10,15,23,-1033
1999,23.074064,2,7,9,12,25,-1031
