sample,t_s,gyro_x,gyro_y,gyro_z,accel_x,accel_y,accel_z
0,1e-05,1,11,7,24,10,-1023
1,0.011386,0,11,7,24,9,-1028
2,0.022587,2,7,9,22,12,-1027
3,0.033776,1,4,9,24,12,-1030
4,0.044963,1,5,9,25,14,-1021
5,0.056153,2,5,9,24,9,-1029
6,0.067353,1,5,8,22,11,-1022
7,0.078539,2,6,9,21,15,-1025
8,0.089723,2,7,9,21,8,-1026
9,0.100907,2,6,9,25,11,-1022
10,0.112093,1,5,9,22,11,-1018
11,0.123317,1,6,10,19,13,-1025
12,0.134542,2,4,9,25,12,-1024
13,0.145733,2,6,9,23,12,-1019
14,0.156926,2,7,9,25,12,-1022
15,0.168112,2,6,8,23,13,-1019
16,0.179307,1,6,8,23,11,-1025
17,0.190497,1,6,9,21,15,-1032
18,0.201689,1,5,10,26,9,-1024
19,0.212895,3,6,9,23,8,-1020
20,0.224087,2,6,9,22,13,-1023
21,0.235279,1,6,9,24,8,-1027
22,0.246465,1,4,9,19,15,-1024
23,0.25767,2,5,9,23,8,-1024
24,0.268858,2,6,9,27,10,-1023
25,0.280045,2,6,9,22,10,-1030
26,0.291231,2,7,9,23,10,-1028
27,0.302417,2,7,9,27,8,-1023
28,0.313604,2,7,9,21,10,-1022
29,0.324788,2,6,9,19,13,-1027
30,0.335972,1,7,9,23,14,-1021
31,0.34716,3,7,9,25,10,-1030
32,0.35834,2,6,9,22,14,-1026
33,0.369527,2,6,9,23,12,-1021
34,0.380776,2,6,10,22,13,-1018
35,0.391975,2,6,8,22,11,-1028
36,0.403174,2,7,8,22,9,-1030
37,0.414386,2,7,10,24,12,-1021
38,0.425568,1,5,9,23,11,-1019
39,0.436754,2,5,8,25,10,-1026
40,0.447936,1,4,8,23,12,-1028
41,0.459129,1,4,9,24,13,-1019
42,0.470314,2,4,10,21,10,-1030
43,0.481525,2,6,9,20,10,-1016
44,0.492751,2,7,9,25,7,-1024
45,0.503939,1,5,9,23,12,-1025
46,0.515125,1,5,9,26,11,-1021
47,0.52631,2,5,9,23,12,-1020
48,0.537494,2,5,10,24,10,-1021
49,0.548683,1,5,10,25,11,-1024
50,0.559869,1,4,10,22,9,-1023
51,0.571047,1,6,10,19,6,-1022
52,0.582232,1,6,9,23,10,-1022
53,0.593418,2,7,9,19,9,-1027
54,0.604604,2,7,8,24,11,-1026
55,0.615788,2,6,9,22,9,-1019
56,0.626981,2,6,9,24,10,-1022
57,0.638167,2,6,9,24,11,-1027
58,0.649351,1,6,10,26,11,-1020
59,0.660537,2,6,10,24,13,-1028
60,0.671732,1,6,9,20,12,-1026
61,0.682923,2,5,10,22,12,-1028
62,0.694107,1,5,9,27,11,-1023
63,0.705304,1,5,9,27,10,-1015
64,0.716489,1,5,9,24,13,-1020
65,0.727683,1,6,10,23,9,-1026
66,0.738857,2,6,9,23,11,-1021
67,0.750044,2,5,9,23,13,-1024
68,0.761232,2,5,9,20,8,-1020
69,0.77245,2,5,9,23,13,-1026
70,0.783604,1,5,10,21,11,-1021
71,0.794794,2,6,9,22,10,-1015
72,0.805981,2,6,9,23,10,-1020
73,0.817176,1,6,9,22,9,-1019
74,0.828361,2,6,9,23,8,-1025
75,0.839554,2,7,8,24,9,-1026
76,0.850743,2,7,9,23,10,-1029
77,0.861936,2,6,9,22,13,-1018
78,0.873129,2,5,9,26,11,-1019
79,0.884314,2,5,8,24,13,-1026
80,0.895503,1,5,9,24,9,-1023
81,0.906676,1,4,10,21,12,-1031
82,0.91786,2,6,10,23,10,-1026
83,0.929042,2,6,9,26,10,-1022
84,0.940223,2,6,8,25,11,-1024
85,0.951416,2,7,9,19,11,-1025
86,0.962599,2,8,9,20,13,-1030
87,0.973801,2,5,9,26,9,-1025
88,0.984994,1,5,9,24,15,-1029
89,0.996179,1,5,8,21,13,-1027
90,1.00737,1,4,8,23,13,-1024
91,1.018567,1,4,9,24,12,-1027
92,1.029751,3,7,8,20,10,-1026
93,1.040947,2,6,9,20,13,-1013
94,1.052129,2,7,9,20,10,-1024
95,1.063318,2,7,9,26,13,-1026
96,1.074509,2,8,9,24,11,-1023
97,1.085691,2,6,9,21,10,-1020
98,1.096872,2,8,8,25,16,-1025
99,1.108058,2,8,9,26,10,-1030
100,1.119233,2,6,10,21,11,-1025
101,1.130431,1,4,9,23,10,-1028
102,1.141621,2,6,9,24,13,-1022
103,1.152808,2,8,9,22,10,-1026
104,1.163992,2,7,8,24,7,-1026
105,1.175179,2,7,9,23,8,-1020
106,1.186363,2,7,9,23,11,-1028
107,1.19755,2,5,8,26,14,-1026
108,1.208734,1,7,8,24,7,-1023
109,1.219922,2,6,8,24,9,-1024
110,1.23111,2,6,9,20,10,-1028
111,1.242297,1,6,10,20,10,-1028
112,1.253485,2,6,9,20,10,-1025
113,1.26467,3,8,9,20,8,-1027
114,1.27586,2,7,9,26,12,-1025
115,1.287047,2,7,9,24,12,-1016
116,1.298232,2,6,9,26,10,-1019
117,1.309424,1,6,10,19,11,-1022
118,1.320611,2,6,9,23,10,-1026
119,1.331796,2,6,9,24,14,-1024
120,1.342987,2,6,9,23,10,-1031
121,1.354173,1,5,9,21,14,-1024
122,1.36536,1,5,10,23,11,-1025
123,1.376608,2,5,10,24,8,-1030
124,1.387809,2,6,9,23,11,-1025
125,1.399004,2,6,9,22,11,-1023
126,1.410192,2,4,9,22,10,-1026
127,1.421379,2,5,8,26,11,-1018
128,1.432566,2,6,9,23,11,-1023
129,1.443757,1,5,10,18,10,-1024
130,1.454942,2,7,9,21,9,-1026
131,1.466127,1,5,8,20,10,-1022
132,1.47731,2,5,9,23,11,-1029
133,1.488518,2,6,9,20,11,-1027
134,1.49971,1,4,9,26,11,-1026
135,1.510862,1,5,9,22,10,-1025
136,1.522046,1,4,9,24,9,-1025
137,1.533233,1,5,9,20,11,-1027
138,1.544415,1,5,9,22,12,-1025
139,1.555602,2,5,9,25,13,-1027
140,1.566788,1,5,9,22,14,-1024
141,1.578008,1,6,9,23,12,-1025
142,1.589314,2,6,9,23,12,-1022
143,1.600516,2,6,9,20,13,-1017
144,1.611721,1,5,10,22,12,-1026
145,1.622915,1,4,9,22,12,-1024
146,1.634099,2,5,10,21,11,-1026
147,1.645284,2,5,8,22,14,-1025
148,1.656468,1,4,10,22,13,-1024
149,1.667659,1,4,10,23,12,-1029
150,1.678862,1,4,9,22,5,-1025
151,1.69005,1,7,9,25,11,-1022
152,1.701245,1,6,9,23,11,-1028
153,1.712433,2,5,9,25,13,-1030
154,1.7236,2,6,9,25,9,-1022
155,1.734797,2,6,9,24,11,-1026
156,1.745982,2,6,9,24,11,-1026
157,1.757168,2,8,9,20,11,-1029
158,1.768355,2,8,9,24,10,-1027
159,1.779547,2,7,9,21,11,-1024
160,1.790735,2,6,9,20,12,-1023
161,1.801921,1,6,10,22,13,-1025
162,1.813104,1,7,9,22,14,-1024
163,1.824287,3,7,9,19,16,-1027
164,1.835473,3,7,9,25,15,-1025
165,1.846686,2,7,8,25,17,-1026
166,1.857875,3,7,8,23,10,-1023
167,1.869063,2,6,9,25,14,-1029
168,1.880254,2,7,9,27,10,-1019
169,1.891414,2,7,8,22,11,-1023
170,1.902596,2,6,8,22,10,-1025
171,1.913778,2,7,9,24,9,-1033
172,1.924961,2,7,9,22,13,-1028
173,1.936145,2,6,9,23,11,-1032
174,1.947382,3,6,10,22,14,-1023
175,1.958647,2,6,9,25,12,-1028
176,1.969834,1,5,10,21,10,-1021
177,1.981021,2,5,9,25,9,-1024
178,1.992204,1,6,9,22,13,-1027
179,2.003391,1,5,9,26,10,-1022
180,2.014576,2,5,9,20,13,-1017
181,2.025761,2,6,9,19,12,-1029
182,2.036943,1,6,9,22,10,-1022
183,2.048129,1,5,9,23,11,-1029
184,2.059318,1,6,8,20,15,-1027
185,2.0705,2,7,10,20,15,-1022
186,2.081689,2,8,9,19,12,-1022
187,2.092874,1,7,9,21,12,-1024
188,2.104059,1,6,10,21,7,-1030
189,2.115231,2,7,9,22,15,-1021
190,2.126413,2,4,9,20,10,-1028
191,2.137598,2,4,8,25,12,-1032
192,2.14878,2,4,8,23,10,-1031
193,2.159962,1,5,9,24,9,-1021
194,2.171156,0,5,9,23,10,-1019
195,2.182336,0,5,10,24,7,-1020
196,2.193527,1,6,10,21,11,-1028
197,2.204792,1,5,9,22,13,-1024
198,2.215987,2,7,9,21,15,-1017
199,2.227183,2,7,8,24,10,-1023
200,2.238368,2,7,9,23,10,-1026
201,2.24956,2,7,9,22,8,-1029
202,2.260759,1,6,10,21,11,-1021
203,2.271941,1,4,9,22,9,-1023
204,2.283132,1,4,9,22,12,-1033
205,2.294316,1,5,9,23,13,-1024
206,2.305511,1,5,8,22,12,-1022
207,2.316698,1,4,9,23,12,-1023
208,2.327879,2,4,10,21,15,-1022
209,2.339045,2,5,9,25,14,-1029
210,2.350227,2,7,9,20,7,-1026
211,2.361408,2,6,9,24,9,-1027
212,2.372608,1,4,9,21,12,-1023
213,2.383798,2,6,10,26,14,-1015
214,2.395016,2,6,9,25,11,-1024
215,2.406226,2,6,9,24,9,-1028
216,2.417413,2,5,9,24,12,-1022
217,2.428607,1,5,9,27,10,-1026
218,2.439793,1,6,10,22,13,-1027
219,2.450984,2,6,9,24,8,-1016
220,2.462168,1,7,8,23,13,-1025
221,2.47335,2,7,9,29,10,-1025
222,2.484533,2,8,9,24,14,-1027
223,2.495716,2,7,9,21,13,-1024
224,2.506861,1,6,9,22,9,-1024
225,2.518047,1,5,9,19,15,-1028
226,2.529228,0,5,9,20,9,-1029
227,2.540409,1,4,10,25,12,-1022
228,2.551599,2,5,9,23,14,-1025
229,2.56281,2,5,9,23,11,-1028
230,2.573998,2,7,9,26,8,-1027
231,2.585186,2,7,10,20,11,-1023
232,2.59637,3,8,10,20,10,-1028
233,2.607578,2,6,10,24,9,-1017
234,2.618804,1,6,10,18,12,-1024
235,2.630297,2,6,9,24,7,-1029
236,2.641859,2,6,9,22,9,-1025
237,2.653406,1,6,9,21,11,-1014
238,2.664964,2,5,8,23,12,-1018
239,2.67651,2,5,9,23,8,-1021
240,2.688056,2,6,9,25,8,-1031
241,2.699602,2,6,10,22,11,-1022
242,2.711211,2,6,9,22,6,-1020
243,2.722794,2,6,9,20,12,-1028
244,2.734451,1,6,9,23,10,-1023
245,2.746111,2,5,9,26,15,-1020
246,2.757781,1,5,8,26,11,-1026
247,2.76943,1,6,9,22,13,-1022
248,2.78108,1,6,9,21,9,-1020
249,2.792754,2,6,8,22,10,-1027
250,2.804406,2,6,9,26,11,-1019
251,2.816065,2,6,10,28,10,-1024
252,2.827775,2,6,10,26,15,-1026
253,2.839439,2,5,9,20,9,-1024
254,2.850996,1,5,8,23,9,-1016
255,2.862539,1,5,9,21,12,-1019
256,2.874087,2,5,9,29,12,-1025
257,2.885639,2,6,9,20,11,-1025
258,2.897234,2,6,9,23,12,-1025
259,2.908787,2,6,9,21,12,-1021
260,2.920337,1,6,9,24,13,-1025
261,2.931991,1,5,9,24,8,-1025
262,2.943672,1,6,10,22,10,-1021
263,2.955371,1,6,10,20,10,-1026
264,2.967019,1,6,9,22,6,-1030
265,2.978698,1,6,9,22,12,-1028
266,2.990381,2,6,9,23,14,-1023
267,3.002039,2,6,9,20,13,-1026
268,3.013689,2,6,9,22,12,-1026
269,3.025374,1,6,10,23,11,-1025
270,3.037025,0,6,9,24,11,-1026
271,3.048686,1,6,9,20,11,-1026
272,3.06024,2,5,8,22,14,-1017
273,3.071851,2,6,9,22,7,-1027
274,3.083434,1,6,9,21,13,-1027
275,3.094995,1,5,10,20,11,-1032
276,3.106538,1,5,9,21,11,-1024
277,3.118086,1,6,9,24,9,-1023
278,3.12963,1,5,9,20,11,-1022
279,3.141213,2,6,10,25,9,-1021
280,3.15283,1,5,9,22,10,-1024
281,3.164501,1,6,9,22,11,-1021
282,3.176167,1,6,9,25,12,-1026
283,3.187823,1,6,9,23,9,-1026
284,3.199507,1,6,8,21,14,-1028
285,3.211169,2,6,10,20,10,-1027
286,3.222853,2,6,10,21,13,-1021
287,3.234519,1,5,9,25,12,-1024
288,3.246182,2,5,9,23,12,-1018
289,3.257845,2,6,9,23,15,-1021
290,3.269411,1,6,9,19,12,-1028
291,3.280975,1,6,9,22,9,-1021
292,3.292559,2,6,8,21,10,-1023
293,3.30411,2,6,9,23,13,-1025
294,3.315679,1,6,8,22,11,-1021
295,3.327235,1,6,9,20,11,-1025
296,3.338783,2,6,10,23,14,-1021
297,3.350343,2,6,9,23,13,-1028
298,3.361962,1,6,9,23,11,-1026
299,3.373609,2,6,9,24,8,-1023
300,3.385279,2,5,9,27,13,-1025
301,3.396919,2,7,9,22,9,-1024
302,3.408572,1,6,9,26,11,-1027
303,3.420248,1,6,10,24,9,-1022
304,3.431918,2,6,9,23,12,-1027
305,3.44357,2,6,9,23,9,-1026
306,3.455247,2,6,9,23,12,-1024
307,3.466907,2,5,9,24,16,-1026
308,3.478482,2,5,9,22,11,-1026
309,3.490035,2,5,9,22,10,-1029
310,3.501579,2,5,8,26,11,-1028
311,3.513122,1,6,8,21,13,-1026
312,3.524666,1,6,8,19,11,-1028
313,3.536209,1,7,9,21,11,-1020
314,3.547819,2,6,9,24,14,-1026
315,3.559386,2,6,9,22,9,-1020
316,3.571046,2,6,9,24,12,-1020
317,3.582728,2,6,9,26,12,-1025
318,3.594403,2,6,9,22,16,-1020
319,3.606061,2,6,9,21,8,-1024
320,3.61772,2,6,9,21,12,-1031
321,3.629417,1,5,10,24,14,-1027
322,3.641056,1,5,10,17,11,-1027
323,3.652707,2,6,10,21,13,-1027
324,3.664438,2,6,9,25,11,-1020
325,3.676131,2,6,9,24,12,-1026
326,3.68772,1,6,9,24,11,-1025
327,3.699277,2,6,9,24,11,-1025
328,3.710859,1,6,8,22,13,-1032
329,3.722406,1,6,9,23,12,-1020
330,3.733949,1,5,10,26,12,-1024
331,3.745507,2,6,9,24,10,-1026
332,3.757052,2,5,9,22,13,-1022
333,3.768614,1,5,9,19,13,-1028
334,3.780313,2,5,9,25,15,-1018
335,3.792024,1,5,9,24,12,-1026
336,3.803675,2,5,8,21,13,-1019
337,3.815352,2,6,9,25,15,-1018
338,3.827033,2,6,9,20,15,-1026
339,3.838692,2,5,10,20,10,-1024
340,3.850341,2,6,9,27,10,-1022
341,3.862009,2,5,8,25,15,-1022
342,3.873671,2,6,8,26,10,-1023
343,3.885324,2,6,9,21,14,-1025
344,3.896888,2,6,9,24,13,-1026
345,3.908438,2,6,9,22,12,-1025
346,3.919993,1,6,9,23,7,-1016
347,3.931583,1,6,9,21,13,-1028
348,3.943137,1,7,9,23,12,-1024
349,3.954716,2,6,8,25,14,-1031
350,3.966259,1,6,8,23,12,-1024
351,3.977818,2,6,8,23,13,-1024
352,3.989435,2,6,9,23,14,-1025
353,4.001087,2,6,9,26,8,-1023
354,4.01275,1,6,9,24,10,-1023
355,4.024413,2,6,8,24,12,-1022
356,4.036107,1,6,9,20,13,-1020
357,4.047752,1,6,9,21,10,-1022
358,4.059427,1,6,9,24,14,-1026
359,4.071089,2,5,9,20,11,-1019
360,4.082717,1,5,9,24,14,-1026
361,4.09427,1,5,8,27,8,-1027
362,4.10582,2,5,10,21,14,-1029
363,4.117363,2,5,10,23,15,-1026
364,4.128918,2,6,8,23,11,-1027
365,4.140479,2,6,9,23,12,-1021
366,4.152041,2,5,9,22,12,-1024
367,4.163595,1,5,9,19,13,-1032
368,4.175146,1,6,9,22,11,-1021
369,4.186723,2,6,9,20,16,-1025
370,4.198345,2,6,9,23,10,-1021
371,4.210014,2,5,9,21,15,-1025
372,4.221668,1,5,9,25,14,-1027
373,4.233318,3,6,10,25,12,-1028
374,4.244985,3,5,9,21,12,-1030
375,4.256682,1,5,9,24,12,-1023
376,4.268337,1,6,9,23,12,-1023
377,4.280029,1,6,9,23,11,-1022
378,4.291717,2,5,9,21,15,-1025
379,4.303406,2,5,9,21,13,-1024
380,4.314968,1,6,9,24,11,-1020
381,4.326517,2,6,9,20,15,-1023
382,4.338063,2,5,9,17,11,-1022
383,4.34962,1,6,9,19,10,-1031
384,4.361188,2,5,9,21,7,-1023
385,4.372742,2,6,9,22,14,-1024
386,4.384289,2,5,9,24,9,-1026
387,4.395866,2,6,9,25,10,-1024
388,4.40758,2,6,9,23,14,-1029
389,4.419237,2,7,9,28,13,-1021
390,4.43091,1,6,9,21,13,-1024
391,4.442559,1,5,8,22,10,-1025
392,4.454212,1,6,10,22,12,-1025
393,4.465881,2,6,10,23,14,-1023
394,4.477537,2,5,9,21,12,-1026
395,4.489181,2,6,9,18,16,-1026
396,4.500842,2,6,9,22,13,-1021
397,4.512494,3,7,9,21,10,-1025
398,4.524173,2,6,9,27,16,-1027
399,4.535825,1,5,8,21,16,-1025
400,4.547488,1,5,9,23,13,-1029
401,4.559161,1,6,9,22,8,-1024
402,4.570847,1,5,9,17,12,-1028
403,4.582496,1,6,9,25,11,-1025
404,4.594148,2,6,9,19,14,-1023
405,4.60586,1,5,9,29,10,-1025
406,4.617524,2,6,8,22,11,-1029
407,4.629125,2,6,10,22,12,-1030
408,4.640673,2,6,9,23,13,-1030
409,4.652218,2,5,9,22,13,-1019
410,4.663794,2,6,9,22,16,-1023
411,4.675348,2,6,9,23,8,-1023
412,4.686894,1,6,9,22,13,-1020
413,4.698439,1,5,9,24,14,-1021
414,4.709997,1,5,8,22,11,-1020
415,4.721694,1,5,8,25,11,-1025
416,4.733364,1,6,9,23,11,-1025
417,4.745034,2,6,8,20,11,-1028
418,4.756686,1,6,9,20,13,-1028
419,4.76836,2,5,10,19,13,-1024
420,4.780049,2,6,9,27,10,-1021
421,4.791732,1,6,9,21,12,-1025
422,4.803426,1,6,8,23,13,-1024
423,4.815108,2,6,10,26,12,-1020
424,4.826781,1,6,9,20,9,-1022
425,4.838333,1,6,9,24,11,-1020
426,4.849873,2,6,8,24,10,-1023
427,4.861486,2,6,8,21,5,-1022
428,4.873043,2,6,9,22,13,-1025
429,4.884618,2,6,8,21,12,-1026
430,4.896163,1,6,9,22,15,-1021
431,4.907728,1,6,9,29,14,-1035
432,4.919318,2,5,9,25,15,-1026
433,4.930984,1,6,9,23,9,-1028
434,4.942657,1,5,9,25,11,-1021
435,4.954315,1,6,9,20,14,-1026
436,4.965993,2,6,9,22,16,-1026
437,4.977662,1,5,9,25,9,-1025
438,4.989317,2,6,9,23,11,-1024
439,5.000966,1,5,9,24,10,-1025
440,5.012638,1,5,9,26,14,-1016
441,5.024337,2,7,9,25,8,-1022
442,5.036014,1,7,10,22,10,-1030
443,5.047626,1,6,10,19,12,-1027
444,5.059201,1,7,9,22,12,-1031
445,5.070764,2,6,9,24,11,-1021
446,5.08231,1,6,10,26,14,-1019
447,5.093856,1,5,9,23,12,-1026
448,5.105404,2,6,9,22,8,-1022
449,5.11696,2,6,9,23,9,-1026
450,5.128538,1,5,9,20,9,-1029
451,5.140178,2,6,9,21,13,-1028
452,5.151903,2,6,9,24,14,-1021
453,5.163572,1,6,9,16,13,-1027
454,5.17524,2,5,9,19,12,-1024
455,5.18691,2,6,9,25,12,-1024
456,5.198557,2,5,10,22,10,-1032
457,5.210286,2,6,9,22,14,-1024
458,5.22194,2,7,9,21,13,-1018
459,5.233603,1,7,9,24,10,-1026
460,5.245284,2,6,9,22,17,-1026
461,5.256881,2,6,10,23,15,-1025
462,5.26849,2,6,9,24,11,-1024
463,5.280119,2,6,9,23,14,-1022
464,5.291682,1,6,9,24,11,-1023
465,5.303248,2,6,9,20,12,-1022
466,5.314839,2,5,10,18,11,-1020
467,5.326391,2,5,9,24,10,-1029
468,5.337962,1,5,8,20,12,-1025
469,5.349642,2,5,9,23,10,-1023
470,5.361312,1,6,9,23,11,-1026
471,5.372959,2,5,9,25,10,-1024
472,5.384641,2,5,9,23,12,-1027
473,5.396303,1,5,9,21,12,-1022
474,5.407974,2,6,9,24,14,-1019
475,5.419624,2,6,9,21,11,-1023
476,5.4313,1,5,9,23,12,-1024
477,5.44299,2,5,9,26,14,-1025
478,5.454663,2,5,10,24,11,-1032
479,5.466248,2,6,9,19,9,-1023
480,5.477813,2,6,9,21,10,-1019
481,5.489374,1,6,9,22,12,-1025
482,5.500915,2,5,9,25,18,-1023
483,5.512485,1,5,9,18,11,-1029
484,5.524087,2,6,9,21,12,-1025
485,5.535664,1,6,9,25,11,-1018
486,5.547251,1,6,9,21,9,-1024
487,5.55892,2,6,8,24,9,-1024
488,5.570578,2,6,8,26,9,-1024
489,5.582234,2,6,9,19,14,-1027
490,5.593886,2,6,10,22,13,-1023
491,5.605558,1,6,9,23,11,-1021
492,5.617215,1,6,9,25,11,-1027
493,5.628868,2,7,9,23,9,-1029
494,5.640528,1,6,9,23,12,-1027
495,5.652213,2,5,9,24,13,-1028
496,5.663887,2,6,10,22,11,-1028
497,5.675439,2,5,9,19,9,-1021
498,5.687004,2,6,9,26,12,-1019
499,5.698556,2,6,9,23,10,-1026
500,5.710119,2,6,9,23,10,-1028
501,5.72166,1,4,9,19,12,-1022
502,5.733196,1,5,10,24,10,-1020
503,5.744752,1,5,9,27,9,-1026
504,5.756306,1,5,9,20,12,-1026
505,5.767922,2,5,8,24,13,-1024
506,5.779604,3,6,9,25,10,-1027
507,5.791292,2,6,9,24,11,-1022
508,5.802967,2,6,9,23,9,-1029
509,5.814614,1,5,9,19,11,-1023
510,5.826281,2,5,8,22,10,-1033
511,5.837919,1,7,10,22,11,-1019
512,5.849567,2,6,8,24,18,-1019
513,5.861205,2,6,9,25,12,-1028
514,5.872758,1,6,9,21,10,-1025
515,5.884372,2,6,9,19,13,-1023
516,5.895992,2,7,9,22,12,-1020
517,5.907565,2,6,10,25,8,-1031
518,5.919132,2,6,9,23,10,-1030
519,5.930714,1,6,8,24,13,-1025
520,5.942267,1,6,9,23,10,-1028
521,5.953847,1,6,8,28,15,-1026
522,5.965415,2,6,9,20,14,-1029
523,5.977083,2,5,9,22,14,-1027
524,5.988769,3,5,9,21,10,-1029
525,6.000442,3,6,9,26,10,-1021
526,6.012167,2,5,9,21,12,-1019
527,6.023819,1,6,8,22,12,-1024
528,6.035492,2,6,10,26,8,-1022
529,6.047186,2,6,9,23,15,-1029
530,6.058856,2,5,10,23,13,-1030
531,6.07055,2,5,9,23,14,-1021
532,6.08221,1,6,9,23,13,-1022
533,6.093767,1,6,8,22,14,-1019
534,6.105315,2,6,9,22,8,-1024
535,6.116892,2,6,9,21,17,-1020
536,6.128457,2,5,9,19,14,-1030
537,6.140019,2,6,9,28,11,-1020
538,6.151567,1,5,9,24,14,-1020
539,6.163124,1,6,9,25,12,-1028
540,6.174677,1,6,9,25,11,-1024
541,6.186296,2,6,9,22,8,-1024
542,6.197952,2,6,8,24,12,-1024
543,6.209619,1,6,9,23,11,-1025
544,6.221291,1,5,9,23,13,-1024
545,6.232946,1,6,9,22,18,-1026
546,6.244616,2,5,9,25,13,-1021
547,6.256296,2,6,9,19,12,-1030
548,6.267962,1,5,9,27,12,-1023
549,6.279644,2,5,10,20,14,-1024
550,6.291356,2,5,9,24,11,-1024
551,6.302961,2,5,9,22,9,-1018
552,6.314525,3,6,8,23,11,-1020
553,6.326072,2,6,8,23,9,-1022
554,6.33763,2,5,9,24,11,-1027
555,6.349179,1,5,9,26,10,-1021
556,6.360741,1,6,9,25,8,-1031
557,6.372297,2,6,9,23,13,-1032
558,6.383895,1,6,9,25,14,-1034
559,6.395566,1,5,9,23,9,-1025
560,6.407241,2,6,9,24,11,-1021
561,6.418914,2,6,9,24,7,-1028
562,6.430575,2,5,8,23,11,-1025
563,6.442216,2,6,9,25,11,-1026
564,6.453868,2,6,9,22,11,-1026
565,6.46554,1,6,9,20,7,-1023
566,6.477193,2,5,10,25,11,-1024
567,6.488845,2,6,9,26,15,-1030
568,6.500496,2,6,9,19,12,-1033
569,6.512129,2,6,10,24,12,-1022
570,6.523677,2,6,9,24,12,-1032
571,6.535259,2,6,9,20,12,-1028
572,6.54684,2,5,9,21,12,-1027
573,6.558394,2,6,10,28,11,-1023
574,6.569963,2,6,9,26,9,-1016
575,6.581518,1,5,9,22,17,-1025
576,6.593126,2,5,8,21,9,-1030
577,6.60487,2,7,9,21,11,-1023
578,6.616554,1,6,9,24,11,-1022
579,6.628254,0,6,9,21,15,-1028
580,6.639936,1,6,10,25,8,-1026
581,6.651634,2,5,9,19,12,-1028
582,6.663313,2,5,10,26,14,-1026
583,6.674985,1,5,10,22,13,-1021
584,6.686645,1,6,9,23,10,-1024
585,6.698319,2,6,9,24,10,-1024
586,6.710015,1,6,9,22,13,-1027
587,6.72157,2,6,9,24,19,-1032
588,6.733132,1,6,9,21,11,-1025
589,6.744679,2,6,8,25,10,-1024
590,6.756227,2,5,9,24,11,-1026
591,6.767794,2,5,9,26,9,-1024
592,6.779345,1,5,9,25,10,-1026
593,6.790897,1,6,9,23,12,-1027
594,6.80248,2,6,9,24,7,-1025
595,6.814164,2,6,9,24,12,-1026
596,6.825812,2,6,10,24,11,-1027
597,6.837471,2,5,8,22,12,-1021
598,6.849142,2,5,9,27,10,-1022
599,6.860799,2,6,10,22,16,-1028
600,6.872451,1,6,8,18,14,-1019
601,6.884158,1,5,9,24,11,-1025
602,6.895822,2,6,9,24,12,-1022
603,6.907514,2,6,9,22,10,-1025
604,6.919201,1,7,9,25,15,-1023
605,6.930776,1,5,9,25,10,-1026
606,6.942324,2,6,9,22,11,-1022
607,6.953868,2,6,10,28,11,-1024
608,6.965422,2,6,9,22,10,-1026
609,6.976998,2,6,9,23,11,-1025
610,6.988547,2,6,9,23,10,-1022
611,7.000137,1,6,9,22,7,-1026
612,7.011701,1,6,9,26,13,-1036
613,7.023355,2,5,9,23,10,-1028
614,7.035044,2,6,9,24,13,-1022
615,7.046715,1,6,10,26,11,-1013
616,7.058366,1,5,10,22,9,-1023
617,7.070033,1,5,10,22,14,-1022
618,7.081687,2,5,10,21,13,-1030
619,7.093334,2,5,9,23,14,-1023
620,7.104983,1,6,8,24,12,-1020
621,7.116675,1,4,9,24,10,-1029
622,7.12834,1,5,9,25,15,-1021
623,7.139922,2,6,10,22,5,-1021
624,7.151492,2,5,9,25,11,-1025
625,7.16307,2,6,9,22,12,-1027
626,7.174655,2,6,9,23,13,-1024
627,7.186224,2,6,9,23,5,-1021
628,7.197764,2,6,8,23,14,-1024
629,7.209301,2,6,9,22,12,-1021
630,7.220852,2,5,9,23,12,-1025
631,7.232483,2,5,8,24,6,-1028
632,7.244145,2,5,8,25,7,-1024
633,7.255829,2,5,9,20,7,-1030
634,7.267492,2,5,10,24,15,-1021
635,7.279149,2,6,9,25,13,-1030
636,7.290841,2,6,9,24,16,-1022
637,7.302483,2,6,9,22,9,-1018
638,7.314133,2,6,9,22,9,-1025
639,7.3258,2,6,9,20,11,-1027
640,7.337368,2,6,9,23,11,-1028
641,7.34892,2,5,9,24,13,-1023
642,7.360497,2,6,9,23,15,-1022
643,7.372088,2,6,9,23,11,-1027
644,7.383662,2,6,9,20,11,-1024
645,7.395192,2,6,10,22,8,-1019
646,7.406752,2,5,10,22,16,-1022
647,7.418298,2,6,9,26,8,-1023
648,7.429852,1,6,9,23,11,-1021
649,7.441497,2,6,9,22,10,-1024
650,7.453152,2,6,9,23,9,-1017
651,7.464814,2,6,9,23,11,-1030
652,7.476458,1,6,10,25,12,-1023
653,7.488131,1,5,9,23,11,-1026
654,7.499826,2,6,9,24,9,-1022
655,7.511508,3,6,8,20,11,-1030
656,7.523177,3,6,8,23,10,-1025
657,7.534864,2,6,10,22,13,-1021
658,7.546546,2,6,9,20,11,-1024
659,7.558192,2,6,8,24,12,-1026
660,7.56985,2,6,9,21,13,-1023
661,7.581642,1,6,8,21,12,-1027
662,7.593486,2,6,8,20,9,-1025
663,7.605155,2,5,9,27,14,-1026
664,7.616819,1,6,9,25,9,-1023
665,7.628478,1,6,9,20,11,-1026
666,7.640279,2,5,9,24,15,-1020
667,7.651964,2,5,9,22,14,-1027
668,7.663573,2,5,10,24,10,-1022
669,7.675149,1,5,9,21,11,-1027
670,7.68672,1,7,9,23,10,-1019
671,7.698269,1,5,9,23,10,-1026
672,7.709879,2,6,9,17,15,-1018
673,7.72144,2,5,10,25,10,-1024
674,7.733013,1,5,10,26,11,-1028
675,7.744667,2,5,8,24,12,-1015
676,7.756295,1,5,9,25,11,-1026
677,7.768012,1,6,9,25,14,-1024
678,7.779688,2,6,9,22,12,-1019
679,7.79137,1,6,9,24,11,-1028
680,7.803051,2,5,9,21,14,-1027
681,7.814716,2,5,9,23,10,-1029
682,7.826381,1,6,9,24,10,-1029
683,7.838074,2,5,9,26,10,-1031
684,7.84977,2,5,9,19,12,-1021
685,7.861435,2,6,9,18,11,-1026
686,7.873089,1,6,10,23,10,-1029
687,7.884744,1,6,10,22,11,-1030
688,7.896392,1,5,9,23,12,-1027
689,7.908074,2,5,8,27,11,-1027
690,7.919759,2,5,9,24,12,-1024
691,7.931424,1,6,9,22,10,-1028
692,7.943108,1,5,10,25,15,-1027
693,7.954795,1,6,9,20,10,-1025
694,7.966453,2,6,9,24,10,-1027
695,7.978009,2,5,9,25,13,-1024
696,7.98958,1,6,9,19,11,-1023
697,8.00113,2,5,9,22,11,-1024
698,8.012681,2,6,9,21,12,-1028
699,8.02425,2,5,9,21,9,-1026
700,8.035807,2,5,9,22,13,-1019
701,8.047359,2,6,9,22,13,-1026
702,8.058947,1,6,8,24,14,-1020
703,8.070575,1,5,9,24,12,-1020
704,8.082227,2,6,9,25,9,-1021
705,8.093899,2,6,9,27,10,-1022
706,8.105563,1,6,9,21,13,-1027
707,8.117231,1,6,9,26,15,-1025
708,8.128905,1,7,9,19,8,-1024
709,8.140556,1,5,9,22,11,-1026
710,8.152201,2,5,9,22,11,-1020
711,8.163891,1,7,9,22,12,-1027
712,8.175552,2,5,9,22,9,-1025
713,8.187181,2,7,9,23,11,-1025
714,8.198756,2,5,8,24,10,-1022
715,8.210302,2,6,9,24,5,-1027
716,8.22185,2,5,9,21,14,-1023
717,8.233399,1,6,9,26,13,-1022
718,8.244948,1,6,9,20,12,-1024
719,8.256512,2,6,9,19,10,-1028
720,8.268076,2,6,9,21,11,-1023
721,8.279731,2,5,9,19,7,-1025
722,8.291398,2,6,9,24,13,-1027
723,8.303097,2,6,9,22,8,-1027
724,8.314726,2,6,9,24,13,-1024
725,8.326369,2,7,10,25,12,-1026
726,8.338032,2,6,9,22,9,-1030
727,8.34976,2,5,10,24,10,-1027
728,8.361429,1,6,10,24,9,-1022
729,8.373102,1,6,8,22,11,-1027
730,8.384804,1,6,9,22,11,-1022
731,8.396387,2,6,8,23,10,-1028
732,8.407927,1,6,8,22,11,-1021
733,8.419515,2,5,9,20,9,-1026
734,8.431082,2,6,8,22,11,-1027
735,8.442642,1,5,9,25,10,-1025
736,8.454199,2,5,10,22,11,-1022
737,8.465749,2,5,10,24,11,-1023
738,8.477346,1,6,9,22,14,-1021
739,8.489023,2,6,9,21,10,-1028
740,8.50069,2,6,10,27,11,-1025
741,8.512346,1,6,9,24,12,-1024
742,8.524035,1,6,9,24,13,-1017
743,8.535727,2,5,10,24,7,-1025
744,8.547385,1,6,9,21,12,-1028
745,8.559052,2,6,9,22,9,-1022
746,8.570714,2,6,9,22,14,-1025
747,8.582378,2,6,9,25,12,-1025
748,8.594047,1,6,10,24,10,-1016
749,8.605647,1,6,10,22,9,-1026
750,8.617201,2,5,9,19,14,-1018
751,8.628775,2,6,9,25,10,-1023
752,8.640321,2,5,9,22,7,-1022
753,8.651906,2,6,10,21,13,-1029
754,8.663438,2,6,9,27,14,-1025
755,8.675005,2,5,9,20,13,-1025
756,8.686576,2,6,8,19,12,-1023
757,8.698202,1,5,9,23,11,-1024
758,8.709855,1,5,9,27,9,-1023
759,8.721512,2,6,9,23,11,-1024
760,8.733194,2,5,9,26,12,-1020
761,8.744846,2,6,9,24,9,-1023
762,8.7565,1,5,9,21,7,-1025
763,8.768186,1,5,9,25,13,-1022
764,8.779873,2,6,9,19,6,-1022
765,8.791511,2,6,9,24,11,-1027
766,8.80316,2,5,8,24,11,-1022
767,8.814713,1,6,9,22,8,-1023
768,8.826273,2,6,9,25,12,-1024
769,8.837824,2,6,9,22,10,-1026
770,8.84942,1,6,9,26,13,-1022
771,8.861085,2,5,9,23,13,-1022
772,8.872646,2,6,8,17,12,-1021
773,8.88419,1,6,9,25,12,-1024
774,8.895763,2,6,9,21,12,-1022
775,8.907464,2,5,9,24,10,-1029
776,8.919145,2,6,9,22,13,-1016
777,8.930836,1,6,8,26,14,-1023
778,8.942487,1,6,9,23,10,-1023
779,8.954161,1,6,9,20,12,-1029
780,8.965827,1,6,8,24,12,-1031
781,8.977503,2,6,9,23,12,-1020
782,8.989197,2,7,9,23,9,-1017
783,9.000855,1,5,9,18,12,-1027
784,9.012515,2,5,9,23,10,-1025
785,9.024075,2,5,9,23,13,-1023
786,9.035658,1,5,9,25,9,-1028
787,9.047201,2,5,9,24,14,-1028
788,9.05877,2,6,9,20,12,-1021
789,9.07032,1,6,10,21,12,-1019
790,9.081886,2,6,9,19,9,-1028
791,9.093426,1,6,9,27,10,-1021
792,9.104979,1,6,10,23,15,-1022
793,9.116629,2,5,10,25,10,-1019
794,9.128276,2,6,9,23,9,-1028
795,9.139939,2,6,9,22,14,-1026
796,9.15162,2,6,10,26,8,-1032
797,9.163235,2,5,9,20,12,-1021
798,9.174888,2,6,10,23,7,-1022
799,9.186564,2,6,10,23,11,-1024
800,9.198205,2,6,9,22,8,-1023
801,9.209871,2,6,9,19,10,-1023
802,9.221555,1,5,10,26,11,-1023
803,9.233156,1,5,9,24,13,-1022
804,9.24471,3,6,9,21,8,-1026
805,9.256266,2,6,9,24,11,-1028
806,9.267819,1,5,9,28,14,-1022
807,9.279372,1,6,9,24,10,-1031
808,9.290946,2,5,9,22,15,-1030
809,9.30251,2,6,8,24,13,-1030
810,9.314056,1,5,9,22,13,-1019
811,9.325684,2,5,9,25,13,-1027
812,9.337332,2,5,9,19,10,-1025
813,9.348984,2,5,10,22,9,-1022
814,9.36068,1,5,10,22,10,-1025
815,9.372324,1,6,8,21,12,-1020
816,9.383996,2,6,9,24,12,-1019
817,9.395675,2,5,10,24,13,-1024
818,9.407366,2,5,9,25,8,-1028
819,9.419107,2,6,9,27,10,-1026
820,9.430776,2,6,9,28,11,-1032
821,9.442339,2,6,9,22,9,-1024
822,9.453899,3,6,9,22,11,-1021
823,9.465453,2,6,10,21,8,-1020
824,9.477039,2,5,10,24,13,-1023
825,9.488628,2,6,9,24,10,-1025
826,9.500177,1,5,9,26,8,-1031
827,9.51177,2,5,9,24,9,-1018
828,9.523347,2,6,9,22,10,-1021
829,9.535001,2,5,9,23,11,-1028
830,9.546709,1,6,9,25,11,-1019
831,9.558365,2,5,9,19,15,-1023
832,9.570035,1,6,9,24,14,-1022
833,9.581695,2,5,10,21,13,-1019
834,9.593375,2,5,8,28,11,-1024
835,9.605053,1,6,9,25,16,-1023
836,9.616705,2,6,9,24,12,-1020
837,9.628371,2,6,9,23,10,-1027
838,9.640015,2,6,9,20,14,-1017
839,9.651573,2,6,8,25,7,-1030
840,9.663123,1,6,8,19,8,-1026
841,9.674697,2,6,9,28,12,-1023
842,9.686268,2,6,9,24,13,-1024
843,9.697815,2,5,9,26,11,-1024
844,9.709393,1,5,9,23,11,-1029
845,9.720937,2,5,9,22,13,-1026
846,9.732488,1,6,9,23,14,-1018
847,9.744119,1,6,9,24,15,-1025
848,9.755752,1,6,9,23,17,-1023
849,9.767427,2,5,9,27,10,-1027
850,9.779109,2,5,9,21,8,-1027
851,9.790782,2,6,8,23,15,-1021
852,9.802434,2,6,8,25,14,-1019
853,9.814085,2,6,9,21,12,-1027
854,9.825732,1,6,8,22,11,-1032
855,9.837392,2,6,9,24,13,-1026
856,9.849066,2,5,8,19,9,-1028
857,9.860621,1,6,8,24,15,-1028
858,9.872171,2,6,9,24,14,-1026
859,9.883897,2,6,9,21,10,-1025
860,9.895439,2,6,9,25,10,-1027
861,9.907027,2,6,9,24,11,-1029
862,9.91858,1,5,9,24,12,-1024
863,9.930146,1,5,9,22,13,-1020
864,9.9417,2,6,9,26,13,-1025
865,9.953337,2,5,9,23,13,-1026
866,9.965026,1,5,8,20,11,-1023
867,9.976692,1,5,9,22,10,-1028
868,9.988346,1,6,10,23,12,-1026
869,10.000007,1,6,9,20,13,-1027
870,10.011659,2,6,8,23,9,-1022
871,10.023363,2,6,8,24,12,-1021
872,10.03498,2,6,9,23,10,-1030
873,10.046639,2,6,8,23,13,-1026
874,10.058293,1,5,8,24,15,-1026
875,10.069854,2,6,9,23,12,-1019
876,10.081409,2,5,9,24,13,-1026
877,10.092959,2,6,10,20,12,-1027
878,10.104505,2,6,9,24,9,-1019
879,10.116069,2,6,9,25,13,-1024
880,10.127673,1,5,9,27,8,-1025
881,10.139269,2,6,9,25,8,-1029
882,10.150844,2,5,10,22,7,-1016
883,10.16247,2,5,9,23,11,-1023
884,10.174115,2,5,9,22,14,-1031
885,10.185768,1,6,9,21,13,-1025
886,10.197462,2,5,9,22,11,-1016
887,10.209101,2,6,9,19,8,-1032
888,10.22075,2,6,9,25,8,-1018
889,10.232418,2,6,9,21,10,-1025
890,10.244073,2,5,9,26,10,-1026
891,10.255751,2,6,8,23,12,-1030
892,10.267408,1,5,9,20,11,-1027
893,10.279002,1,6,9,24,10,-1026
894,10.290554,2,6,9,24,12,-1026
895,10.302132,2,6,8,25,15,-1027
896,10.313675,1,6,9,21,12,-1023
897,10.325264,2,5,8,22,12,-1021
898,10.336835,2,6,8,22,10,-1025
899,10.3484,2,6,9,19,15,-1027
900,10.359929,2,6,8,26,9,-1027
901,10.371628,1,6,9,19,14,-1018
902,10.383305,2,6,8,25,13,-1022
903,10.395051,2,5,9,27,11,-1026
904,10.406721,1,5,8,23,8,-1025
905,10.418374,2,6,9,24,11,-1029
906,10.430033,2,5,9,24,11,-1025
907,10.441725,2,6,8,25,13,-1016
908,10.453405,1,5,9,22,14,-1024
909,10.465106,1,6,9,22,12,-1022
910,10.476807,1,7,9,22,16,-1022
911,10.488359,1,6,9,21,12,-1024
912,10.499923,2,7,10,25,9,-1027
913,10.511507,1,5,10,23,11,-1019
914,10.523074,2,6,9,21,14,-1020
915,10.53465,2,6,9,22,11,-1025
916,10.546189,2,6,8,23,8,-1028
917,10.557743,1,6,9,20,11,-1022
918,10.569309,2,6,10,23,11,-1030
919,10.580955,2,6,9,22,11,-1035
920,10.592707,2,6,9,23,11,-1025
921,10.604375,2,5,8,22,10,-1018
922,10.616019,2,6,9,18,16,-1027
923,10.627679,1,6,8,20,9,-1023
924,10.639368,2,6,9,25,13,-1030
925,10.651021,2,6,9,23,13,-1022
926,10.662714,2,6,9,26,19,-1023
927,10.674384,2,5,9,22,9,-1029
928,10.686033,2,5,9,21,12,-1027
929,10.697691,1,6,9,23,7,-1024
930,10.709379,2,6,9,22,13,-1018
931,10.721026,2,6,9,24,11,-1027
932,10.732679,2,5,10,22,13,-1023
933,10.744337,2,5,9,25,10,-1025
934,10.756004,2,5,9,22,9,-1029
935,10.767659,1,6,9,22,12,-1030
936,10.77945,2,5,9,23,12,-1025
937,10.791129,2,5,10,25,13,-1032
938,10.802727,2,6,9,18,14,-1023
939,10.814286,2,6,8,25,0,-1024
940,10.82584,2,5,9,23,16,-1023
941,10.837416,2,6,9,22,11,-1025
942,10.848967,1,5,9,22,10,-1027
943,10.860527,2,5,9,20,12,-1021
944,10.87207,1,6,9,23,12,-1029
945,10.883636,1,6,9,24,13,-1022
946,10.895313,1,5,9,23,11,-1025
947,10.907071,2,5,9,21,14,-1015
948,10.918728,2,5,9,20,10,-1024
949,10.930389,2,6,9,25,9,-1022
950,10.942057,2,6,9,23,11,-1024
951,10.953746,2,5,9,22,12,-1032
952,10.965421,2,6,9,21,12,-1025
953,10.977076,1,6,9,23,9,-1020
954,10.988731,2,6,9,22,12,-1016
955,11.000384,2,6,9,23,10,-1019
956,11.012016,2,6,9,24,14,-1026
957,11.02367,2,6,10,25,13,-1032
958,11.035366,2,6,9,25,13,-1018
959,11.047028,2,5,9,23,10,-1023
960,11.058671,1,6,9,24,9,-1029
961,11.07032,2,7,9,19,10,-1026
962,11.081996,2,5,8,23,15,-1026
963,11.093688,2,5,9,21,9,-1024
964,11.105348,2,5,10,27,16,-1021
965,11.116918,2,6,10,23,14,-1019
966,11.128465,2,6,8,19,9,-1027
967,11.14004,2,6,9,22,8,-1027
968,11.151595,1,6,8,24,8,-1027
969,11.163173,2,6,8,21,13,-1025
970,11.174753,1,5,9,21,12,-1028
971,11.186303,1,7,9,26,12,-1025
972,11.197881,1,6,9,24,14,-1028
973,11.20963,2,5,9,25,14,-1027
974,11.221335,2,5,9,22,10,-1027
975,11.232995,1,6,8,20,12,-1025
976,11.244667,1,6,8,24,15,-1023
977,11.256314,1,5,9,23,9,-1023
978,11.268009,2,6,9,22,10,-1020
979,11.27968,2,6,9,25,9,-1023
980,11.291365,2,6,8,18,14,-1026
981,11.303032,1,5,9,24,11,-1019
982,11.314582,2,5,9,22,14,-1029
983,11.326127,2,6,10,20,12,-1024
984,11.33767,1,6,9,22,12,-1025
985,11.34921,2,6,9,23,10,-1023
986,11.360754,2,6,9,23,12,-1022
987,11.372302,2,5,9,23,12,-1026
988,11.383852,1,5,10,23,12,-1028
989,11.395428,1,5,10,21,9,-1022
990,11.407038,1,6,9,20,13,-1021
991,11.41873,2,6,9,22,13,-1022
992,11.430383,1,5,9,24,15,-1023
993,11.44206,2,6,9,23,10,-1027
994,11.453783,2,6,9,25,10,-1021
995,11.46544,1,5,9,19,13,-1025
996,11.477099,2,6,8,25,17,-1024
997,11.488753,2,7,9,24,13,-1028
998,11.500392,1,6,9,23,12,-1021
999,11.512118,2,7,9,24,16,-1021
1000,11.523677,2,6,9,26,12,-1019
1001,11.535197,2,6,9,23,12,-1028
1002,11.546712,2,6,9,20,13,-1028
1003,11.558259,2,6,9,20,13,-1025
1004,11.569811,2,5,9,25,13,-1021
1005,11.581368,1,5,10,20,14,-1032
1006,11.592921,1,5,9,24,12,-1023
1007,11.604481,1,6,8,23,10,-1033
1008,11.616157,1,6,9,25,14,-1024
1009,11.627886,2,5,8,21,11,-1022
1010,11.639559,2,6,9,23,10,-1020
1011,11.651248,1,6,8,20,11,-1028
1012,11.662909,2,7,9,25,10,-1023
1013,11.674584,2,5,9,19,12,-1029
1014,11.686249,1,6,9,26,10,-1030
1015,11.697896,2,6,9,24,12,-1025
1016,11.709596,2,6,9,23,11,-1024
1017,11.721261,1,5,10,20,9,-1028
1018,11.732821,2,5,9,22,11,-1026
1019,11.744405,2,6,8,23,10,-1019
1020,11.75592,2,6,9,18,10,-1020
1021,11.767437,2,6,9,22,13,-1030
1022,11.778955,1,5,10,27,13,-1022
1023,11.790493,2,5,9,23,12,-1017
1024,11.802041,2,5,9,21,18,-1028
1025,11.813598,2,6,9,23,12,-1023
1026,11.825251,2,6,9,21,13,-1018
1027,11.836921,2,7,10,23,11,-1016
1028,11.848627,2,6,9,27,10,-1021
1029,11.860273,2,6,9,23,14,-1028
1030,11.871931,1,5,9,21,12,-1023
1031,11.883622,1,5,9,27,12,-1029
1032,11.895238,2,5,10,24,12,-1026
1033,11.906888,1,5,9,23,10,-1030
1034,11.918577,1,5,8,21,13,-1023
1035,11.930232,2,6,8,23,9,-1031
1036,11.941828,2,5,9,20,12,-1024
1037,11.953422,1,6,9,24,14,-1031
1038,11.964978,2,6,8,21,12,-1025
1039,11.97654,2,5,9,20,12,-1028
1040,11.988091,2,6,10,22,11,-1024
1041,11.999671,1,6,9,23,9,-1021
1042,12.011195,2,6,9,24,9,-1027
1043,12.022726,1,5,10,19,12,-1018
1044,12.034344,2,6,9,22,13,-1027
1045,12.046,1,5,9,25,11,-1024
1046,12.057675,2,6,8,25,9,-1023
1047,12.069337,1,6,9,24,10,-1019
1048,12.080992,2,6,9,22,13,-1020
1049,12.092649,2,6,9,21,10,-1024
1050,12.104299,2,5,10,22,16,-1031
1051,12.116018,2,6,9,23,13,-1028
1052,12.127683,2,6,8,22,11,-1014
1053,12.139362,1,5,9,25,10,-1031
1054,12.150953,1,6,8,27,12,-1024
1055,12.162531,2,5,8,23,10,-1025
1056,12.174069,1,6,10,20,10,-1019
1057,12.185667,2,6,9,21,15,-1025
1058,12.197313,1,5,9,21,9,-1024
1059,12.208859,1,6,9,22,15,-1025
1060,12.220413,2,6,9,25,12,-1025
1061,12.23201,2,6,8,27,10,-1024
1062,12.243779,1,5,9,22,9,-1028
1063,12.255498,2,5,10,26,14,-1025
1064,12.267164,2,5,9,22,12,-1023
1065,12.278853,2,6,9,16,14,-1025
1066,12.290498,2,6,9,25,9,-1022
1067,12.302147,2,5,9,19,12,-1027
1068,12.313819,1,6,9,21,12,-1019
1069,12.325475,2,6,10,22,9,-1017
1070,12.337153,2,5,8,21,13,-1028
1071,12.348836,1,6,9,22,12,-1023
1072,12.360389,2,5,8,23,10,-1023
1073,12.371922,2,5,9,22,10,-1029
1074,12.383498,2,6,9,28,12,-1025
1075,12.395074,2,6,9,23,10,-1024
1076,12.406659,1,6,9,21,13,-1021
1077,12.418202,1,5,10,26,10,-1026
1078,12.429788,2,5,9,24,7,-1027
1079,12.441355,2,5,9,23,10,-1025
1080,12.452999,1,6,9,19,10,-1034
1081,12.464675,1,5,9,24,12,-1027
1082,12.476322,2,6,9,21,14,-1024
1083,12.487999,2,6,9,23,9,-1019
1084,12.499651,2,5,9,27,8,-1024
1085,12.51131,2,7,9,25,11,-1025
1086,12.522987,2,6,9,24,10,-1029
1087,12.534642,1,5,10,21,11,-1025
1088,12.546283,1,5,10,23,10,-1026
1089,12.55787,2,5,9,24,12,-1020
1090,12.569422,2,5,9,22,13,-1021
1091,12.580958,2,6,9,25,9,-1025
1092,12.5925,2,5,9,23,13,-1023
1093,12.60406,1,5,9,23,11,-1026
1094,12.615619,2,6,9,26,11,-1025
1095,12.627184,2,6,9,25,11,-1025
1096,12.638712,2,6,9,20,10,-1026
1097,12.650265,2,6,9,21,15,-1029
1098,12.66188,1,6,9,20,14,-1027
1099,12.673525,1,6,9,20,12,-1020
1100,12.685171,1,6,9,22,14,-1027
1101,12.696849,1,5,9,22,12,-1027
1102,12.708495,1,5,9,18,14,-1023
1103,12.720146,2,5,9,24,14,-1024
1104,12.731827,2,6,9,23,10,-1020
1105,12.743494,2,6,8,24,11,-1025
1106,12.755158,2,5,9,21,10,-1014
1107,12.766832,1,6,9,22,12,-1023
1108,12.778424,1,6,10,22,13,-1020
1109,12.789982,2,6,9,24,8,-1028
1110,12.80155,1,6,9,18,12,-1027
1111,12.813089,1,6,9,25,12,-1021
1112,12.824636,1,5,9,24,4,-1025
1113,12.836186,2,6,9,26,11,-1028
1114,12.847864,1,5,9,27,14,-1020
1115,12.85945,2,6,9,22,13,-1030
1116,12.871128,1,7,9,22,13,-1022
1117,12.882809,2,6,9,23,10,-1020
1118,12.894474,2,6,9,22,14,-1028
1119,12.906134,2,6,9,22,18,-1029
1120,12.917796,2,6,9,21,12,-1018
1121,12.929501,2,6,8,22,9,-1019
1122,12.941148,2,6,9,25,13,-1026
1123,12.952833,1,6,9,21,10,-1027
1124,12.96449,1,5,9,21,10,-1024
1125,12.976054,2,6,9,24,12,-1022
1126,12.987679,2,5,8,24,15,-1025
1127,12.999241,1,5,9,24,13,-1027
1128,13.010829,2,6,10,24,10,-1022
1129,13.022374,2,5,9,22,9,-1022
1130,13.033925,2,6,9,26,10,-1025
1131,13.045511,2,6,9,22,11,-1027
1132,13.057189,1,4,9,21,12,-1025
1133,13.068748,1,6,9,26,9,-1026
1134,13.0803,1,6,9,21,9,-1031
1135,13.091854,1,6,9,20,9,-1022
1136,13.103439,2,6,9,22,12,-1022
1137,13.115034,1,5,9,21,10,-1027
1138,13.12658,2,5,9,20,14,-1025
1139,13.138122,1,6,9,25,12,-1026
1140,13.149669,2,5,8,21,7,-1027
1141,13.161234,1,6,9,20,10,-1024
1142,13.172892,1,6,9,22,9,-1025
1143,13.184569,2,6,10,24,13,-1030
1144,13.196257,1,6,9,23,10,-1028
1145,13.207935,1,6,10,21,9,-1022
1146,13.219621,2,6,9,23,11,-1025
1147,13.231278,1,6,9,24,13,-1031
1148,13.242992,1,5,8,23,12,-1024
1149,13.254633,1,6,10,24,11,-1030
1150,13.266294,1,6,9,26,13,-1022
1151,13.277979,2,6,9,26,11,-1022
1152,13.289559,2,6,9,21,11,-1024
1153,13.30115,2,6,9,25,10,-1026
1154,13.312703,2,5,9,23,12,-1023
1155,13.324246,2,6,9,20,12,-1027
1156,13.335812,2,5,9,23,16,-1026
1157,13.347366,2,6,9,23,9,-1027
1158,13.358956,2,6,10,20,11,-1024
1159,13.370551,2,6,10,22,12,-1027
1160,13.382189,2,6,9,23,11,-1025
1161,13.393863,2,6,9,23,12,-1023
1162,13.405521,2,6,9,22,15,-1029
1163,13.417215,2,5,8,27,11,-1029
1164,13.428887,2,6,10,21,6,-1027
1165,13.440556,2,6,9,20,15,-1019
1166,13.452254,2,6,9,23,8,-1026
1167,13.463898,2,5,9,25,10,-1022
1168,13.475575,2,6,9,16,15,-1027
1169,13.487235,1,5,9,23,15,-1020
1170,13.498831,2,5,9,27,15,-1023
1171,13.510376,1,6,9,21,8,-1021
1172,13.521921,2,6,9,23,10,-1024
1173,13.533473,1,6,9,25,12,-1024
1174,13.545043,2,5,9,24,10,-1024
1175,13.556617,1,6,8,25,13,-1026
1176,13.56818,2,5,8,21,10,-1023
1177,13.579796,2,5,8,22,13,-1025
1178,13.591687,2,6,9,22,12,-1026
1179,13.603406,2,7,9,30,11,-1030
1180,13.615105,2,7,9,21,14,-1022
1181,13.626775,1,6,9,24,12,-1020
1182,13.638433,2,6,9,25,13,-1023
1183,13.650114,2,7,9,24,12,-1022
1184,13.661776,2,7,9,22,11,-1023
1185,13.673475,2,5,9,21,13,-1019
1186,13.68513,2,6,8,24,13,-1027
1187,13.696694,1,6,9,24,16,-1030
1188,13.708243,2,6,9,24,13,-1024
1189,13.719806,1,6,9,21,9,-1025
1190,13.731375,2,6,9,18,13,-1026
1191,13.742964,2,6,9,25,11,-1025
1192,13.75454,1,6,9,17,13,-1025
1193,13.766078,2,6,9,21,11,-1026
1194,13.777638,2,6,9,25,9,-1031
1195,13.789311,2,5,9,23,14,-1026
1196,13.800982,2,5,9,23,10,-1019
1197,13.812643,1,6,9,22,10,-1026
1198,13.824319,3,7,10,22,11,-1020
1199,13.836005,2,6,10,21,11,-1031
1200,13.847658,1,6,9,25,12,-1027
1201,13.859304,2,6,9,25,9,-1021
1202,13.871002,2,5,9,24,9,-1026
1203,13.882728,2,5,8,21,15,-1022
1204,13.894287,2,5,8,20,10,-1029
1205,13.90584,1,5,9,22,13,-1022
1206,13.917431,2,5,9,22,12,-1019
1207,13.928987,2,5,9,26,11,-1024
1208,13.940552,2,6,9,25,11,-1017
1209,13.952111,2,6,9,23,11,-1020
1210,13.963694,1,6,8,18,10,-1020
1211,13.975263,1,6,9,21,13,-1026
1212,13.986861,1,5,9,20,11,-1028
1213,13.998503,2,6,9,20,14,-1023
1214,14.010161,2,6,9,24,12,-1025
1215,14.021833,1,6,8,21,11,-1025
1216,14.033488,2,5,9,24,12,-1022
1217,14.045176,1,5,9,23,8,-1025
1218,14.056842,1,6,10,26,11,-1021
1219,14.068496,2,6,9,21,11,-1026
1220,14.080161,2,5,9,22,12,-1021
1221,14.091855,1,5,8,20,10,-1025
1222,14.10354,2,6,9,21,11,-1017
1223,14.115111,2,5,9,22,8,-1020
1224,14.126703,2,5,9,24,7,-1025
1225,14.13825,2,5,10,21,10,-1030
1226,14.149814,2,6,10,23,13,-1024
1227,14.161369,2,6,10,22,9,-1019
1228,14.172924,2,5,10,25,13,-1024
1229,14.184487,2,5,9,23,12,-1023
1230,14.196065,2,6,9,20,10,-1026
1231,14.207809,1,5,10,24,12,-1029
1232,14.219498,1,5,9,22,11,-1028
1233,14.231163,1,6,9,21,12,-1020
1234,14.242848,2,6,8,23,11,-1029
1235,14.2545,2,7,9,23,12,-1025
1236,14.266151,1,5,9,25,14,-1028
1237,14.277806,2,5,9,27,12,-1016
1238,14.289506,2,5,10,23,13,-1025
1239,14.301169,1,5,10,22,10,-1026
1240,14.312812,1,5,9,19,11,-1019
1241,14.324363,2,6,9,25,12,-1028
1242,14.335925,2,6,10,20,13,-1024
1243,14.347481,2,5,9,23,12,-1027
1244,14.359087,2,6,9,23,15,-1026
1245,14.370716,2,5,9,21,10,-1024
1246,14.382313,2,6,9,20,12,-1026
1247,14.393865,1,6,10,23,13,-1027
1248,14.405483,1,5,9,24,11,-1027
1249,14.417121,2,5,9,21,18,-1024
1250,14.428781,2,6,10,22,16,-1021
1251,14.440431,2,5,9,23,10,-1029
1252,14.452129,2,6,9,24,10,-1024
1253,14.463774,2,5,9,23,11,-1021
1254,14.475433,2,6,9,26,11,-1025
1255,14.487138,1,5,9,25,8,-1026
1256,14.498851,2,6,9,21,10,-1023
1257,14.510526,2,6,9,24,8,-1023
1258,14.522224,2,5,8,22,10,-1029
1259,14.533812,2,5,8,25,13,-1028
1260,14.545362,2,6,9,23,12,-1018
1261,14.556923,2,5,9,25,11,-1024
1262,14.568486,2,6,10,20,11,-1026
1263,14.580056,1,6,10,21,9,-1024
1264,14.591638,1,5,8,21,7,-1026
1265,14.603214,2,6,9,22,11,-1019
1266,14.614859,1,5,9,21,15,-1021
1267,14.626494,2,5,9,23,11,-1023
1268,14.638158,2,5,9,20,14,-1021
1269,14.64981,1,5,9,22,13,-1027
1270,14.661476,2,5,9,20,12,-1024
1271,14.673128,2,6,8,25,16,-1027
1272,14.684794,1,6,9,20,10,-1023
1273,14.696503,2,7,9,23,14,-1024
1274,14.708194,2,5,9,21,10,-1024
1275,14.719908,2,6,8,24,10,-1023
1276,14.731631,2,5,10,23,10,-1021
1277,14.743199,2,5,9,21,11,-1025
1278,14.754792,2,5,9,26,13,-1024
1279,14.766355,2,6,9,21,13,-1029
1280,14.777939,1,6,10,22,9,-1028
1281,14.789531,2,6,10,21,11,-1028
1282,14.801071,2,6,9,23,9,-1026
1283,14.812616,2,6,9,25,11,-1021
1284,14.824177,2,5,10,24,12,-1027
1285,14.835887,2,6,9,21,9,-1021
1286,14.847555,2,6,9,20,10,-1023
1287,14.859241,1,6,10,25,12,-1018
1288,14.870907,2,5,8,24,10,-1022
1289,14.882582,1,5,9,23,13,-1018
1290,14.894237,1,5,9,22,11,-1029
1291,14.905914,2,6,10,23,9,-1024
1292,14.917564,1,6,9,22,12,-1027
1293,14.92924,1,6,9,19,14,-1030
1294,14.940902,2,6,9,24,13,-1023
1295,14.952479,1,6,9,25,13,-1028
1296,14.964052,1,5,9,20,12,-1024
1297,14.975618,2,6,10,21,13,-1031
1298,14.987214,2,6,9,20,13,-1029
1299,14.998802,1,5,9,19,12,-1030
1300,15.010354,2,6,9,21,13,-1029
1301,15.021908,3,6,10,23,12,-1022
1302,15.033474,2,6,9,25,11,-1027
1303,15.045126,2,6,9,23,12,-1020
1304,15.05678,2,6,9,24,7,-1028
1305,15.068432,2,5,9,22,7,-1021
1306,15.080105,2,6,9,22,9,-1026
1307,15.091757,2,6,9,21,10,-1028
1308,15.103417,2,7,9,19,8,-1029
1309,15.115111,2,7,10,24,10,-1028
1310,15.126767,2,6,9,21,16,-1019
1311,15.138431,1,6,9,22,8,-1023
1312,15.150144,2,5,9,21,9,-1027
1313,15.1617,2,6,10,27,12,-1022
1314,15.17328,2,6,10,24,10,-1029
1315,15.184832,2,6,9,23,12,-1020
1316,15.196392,1,6,9,21,9,-1028
1317,15.207935,2,5,9,22,15,-1029
1318,15.219479,2,6,9,25,15,-1025
1319,15.231026,1,6,9,22,11,-1024
1320,15.242593,2,5,9,25,12,-1021
1321,15.254209,2,5,10,28,11,-1028
1322,15.265878,2,5,9,23,10,-1022
1323,15.277542,1,5,9,22,11,-1023
1324,15.289213,2,5,9,21,9,-1027
1325,15.300869,2,6,10,24,6,-1025
1326,15.312518,3,6,10,23,9,-1026
1327,15.324186,2,5,9,22,11,-1017
1328,15.335879,1,6,10,25,10,-1027
1329,15.347549,1,6,9,25,16,-1025
1330,15.359232,2,5,9,23,8,-1027
1331,15.370829,2,6,9,22,12,-1027
1332,15.382383,2,6,10,25,12,-1025
1333,15.393935,1,6,10,22,14,-1027
1334,15.40554,1,6,8,23,9,-1026
1335,15.417092,1,6,8,22,10,-1030
1336,15.428636,2,6,9,22,12,-1024
1337,15.440183,3,6,9,24,11,-1027
1338,15.451748,2,6,8,22,6,-1025
1339,15.463377,2,6,9,19,13,-1028
1340,15.475039,2,5,10,24,10,-1024
1341,15.486723,1,5,9,24,12,-1026
1342,15.498372,1,4,9,21,10,-1027
1343,15.510015,1,6,9,22,13,-1023
1344,15.521696,1,6,9,26,13,-1027
1345,15.533356,1,5,9,21,13,-1030
1346,15.545002,1,5,8,21,11,-1028
1347,15.556665,2,6,10,21,12,-1023
1348,15.568322,2,5,9,22,13,-1021
1349,15.580107,2,5,10,24,12,-1028
1350,15.591778,1,6,9,23,12,-1026
1351,15.603425,2,6,9,25,8,-1029
1352,15.615111,1,6,9,20,14,-1024
1353,15.626777,2,6,10,22,11,-1021
1354,15.638427,1,6,9,24,12,-1024
1355,15.650083,1,5,9,21,11,-1027
1356,15.661776,1,5,9,22,11,-1020
1357,15.673485,1,5,8,25,15,-1027
1358,15.685072,2,6,9,20,14,-1021
1359,15.696624,2,6,9,23,12,-1023
1360,15.708166,1,6,10,23,14,-1028
1361,15.719722,1,6,10,25,9,-1019
1362,15.73132,2,5,9,22,11,-1020
1363,15.742892,2,5,9,21,12,-1030
1364,15.754447,2,6,10,22,13,-1020
1365,15.766011,2,6,8,27,12,-1024
1366,15.77763,2,6,9,24,12,-1025
1367,15.789294,2,6,9,20,11,-1018
1368,15.800949,3,6,8,25,13,-1019
1369,15.812638,2,6,9,24,11,-1020
1370,15.824294,1,5,9,24,12,-1022
1371,15.835945,1,5,9,25,13,-1023
1372,15.847638,1,6,9,23,13,-1022
1373,15.859303,2,6,9,24,10,-1025
1374,15.871009,2,5,8,25,8,-1026
1375,15.88271,1,6,9,25,17,-1026
1376,15.894329,1,5,9,22,11,-1029
1377,15.905938,2,5,9,25,11,-1026
1378,15.917491,1,6,8,22,12,-1020
1379,15.929052,2,7,8,20,12,-1025
1380,15.940635,1,5,9,24,17,-1022
1381,15.952198,1,6,9,21,11,-1027
1382,15.963756,2,5,9,27,15,-1029
1383,15.975343,1,5,9,25,11,-1030
1384,15.98699,2,5,9,23,9,-1017
1385,15.998634,2,6,9,20,11,-1032
1386,16.010279,2,5,9,24,10,-1021
1387,16.021955,2,6,9,20,9,-1030
1388,16.033622,1,6,9,24,11,-1023
1389,16.045273,1,6,9,23,11,-1028
1390,16.056923,2,6,10,23,16,-1020
1391,16.06856,2,6,9,20,13,-1026
1392,16.080259,2,6,9,22,13,-1033
1393,16.091941,2,6,9,19,13,-1021
1394,16.103513,2,6,9,22,12,-1023
1395,16.115088,2,5,9,25,14,-1028
1396,16.126704,1,6,8,26,11,-1025
1397,16.138259,1,5,9,23,15,-1022
1398,16.149818,1,6,8,22,9,-1023
1399,16.16136,1,6,8,19,13,-1029
1400,16.172898,2,6,8,24,13,-1030
1401,16.184464,2,6,8,21,10,-1027
1402,16.196141,2,5,9,23,12,-1023
1403,16.207886,2,5,9,15,15,-1025
1404,16.219546,1,5,9,25,14,-1021
1405,16.231319,1,6,9,21,16,-1025
1406,16.24299,2,6,8,24,13,-1025
1407,16.254641,2,7,10,24,11,-1025
1408,16.266322,1,5,9,22,13,-1023
1409,16.277993,1,6,10,24,12,-1024
1410,16.289653,1,6,9,23,12,-1027
1411,16.301332,2,6,9,21,14,-1025
1412,16.312993,2,7,9,23,11,-1025
1413,16.324642,2,6,9,24,14,-1024
1414,16.336294,2,6,8,23,11,-1035
1415,16.34797,2,6,9,22,10,-1026
1416,16.35964,1,6,9,27,11,-1028
1417,16.371299,2,7,8,22,15,-1031
1418,16.383027,2,5,9,25,10,-1028
1419,16.394702,1,6,9,24,15,-1022
1420,16.406248,2,6,9,20,13,-1025
1421,16.417798,1,6,9,23,11,-1021
1422,16.429344,2,6,10,23,12,-1017
1423,16.440888,1,6,10,22,15,-1023
1424,16.452446,2,6,8,25,10,-1021
1425,16.463985,2,5,9,24,11,-1024
1426,16.475554,2,6,10,25,10,-1023
1427,16.487104,1,6,9,25,12,-1022
1428,16.498661,1,6,9,26,8,-1019
1429,16.510281,1,6,9,26,11,-1025
1430,16.521933,2,6,9,23,7,-1031
1431,16.533605,2,5,9,23,9,-1022
1432,16.545259,2,5,9,22,8,-1026
1433,16.556908,1,6,9,21,10,-1020
1434,16.56857,2,5,9,20,14,-1025
1435,16.580255,1,5,10,29,11,-1024
1436,16.591911,1,6,9,21,10,-1021
1437,16.603637,1,6,9,24,14,-1020
1438,16.615311,1,5,9,23,17,-1031
1439,16.626993,1,5,10,22,13,-1024
1440,16.63871,2,6,9,23,11,-1029
1441,16.650374,2,6,9,22,11,-1028
1442,16.662031,1,6,9,20,7,-1028
1443,16.673702,2,5,9,26,9,-1022
1444,16.685375,2,5,8,23,11,-1023
1445,16.697029,1,5,9,19,12,-1018
1446,16.708685,1,6,10,23,12,-1025
1447,16.720321,1,6,9,22,11,-1021
1448,16.73191,2,6,8,21,8,-1023
1449,16.743456,2,6,10,22,13,-1023
1450,16.755012,2,5,10,20,9,-1026
1451,16.766557,2,5,8,23,11,-1026
1452,16.778099,2,5,8,25,13,-1022
1453,16.789642,2,6,8,24,10,-1023
1454,16.801195,2,6,9,18,11,-1018
1455,16.812746,2,7,8,25,11,-1026
1456,16.824405,2,7,9,24,13,-1025
1457,16.836075,2,5,9,22,12,-1029
1458,16.847756,1,6,8,23,12,-1019
1459,16.859407,2,6,9,21,9,-1024
1460,16.871075,2,5,9,24,9,-1027
1461,16.88277,2,6,9,19,10,-1021
1462,16.894417,1,6,9,25,10,-1026
1463,16.906096,1,6,9,25,16,-1032
1464,16.917759,1,5,9,23,12,-1033
1465,16.929414,2,5,8,24,11,-1031
1466,16.941063,2,6,9,23,7,-1026
1467,16.952719,2,6,9,24,10,-1020
1468,16.964368,2,5,9,26,11,-1027
1469,16.97601,2,6,10,22,11,-1031
1470,16.987668,2,6,9,21,12,-1024
1471,16.999317,2,6,8,27,12,-1024
1472,17.011044,1,6,8,21,10,-1028
1473,17.022729,1,6,9,22,12,-1024
1474,17.034385,2,6,9,24,11,-1027
1475,17.046035,2,6,9,20,12,-1031
1476,17.057689,2,6,9,21,11,-1025
1477,17.069367,2,6,9,24,14,-1024
1478,17.081019,2,5,9,20,10,-1029
1479,17.092662,2,6,9,23,11,-1021
1480,17.104306,2,6,9,23,12,-1026
1481,17.116024,1,6,10,23,13,-1027
1482,17.127733,2,6,9,25,13,-1026
1483,17.139317,1,6,8,25,14,-1027
1484,17.150875,1,6,10,23,12,-1022
1485,17.162426,2,5,10,24,10,-1020
1486,17.173971,1,5,9,25,11,-1021
1487,17.185546,2,5,9,25,13,-1017
1488,17.197093,1,5,9,18,9,-1024
1489,17.208654,2,6,9,20,9,-1023
1490,17.220204,2,6,9,22,15,-1023
1491,17.231894,2,5,9,27,11,-1023
1492,17.243553,1,6,10,27,12,-1025
1493,17.255237,1,6,9,21,10,-1024
1494,17.2669,1,6,9,24,8,-1023
1495,17.278555,1,5,8,28,9,-1025
1496,17.290219,2,6,9,22,10,-1022
1497,17.30188,2,6,9,20,14,-1027
1498,17.313529,2,6,8,21,9,-1025
1499,17.325197,1,7,8,20,9,-1030
1500,17.336853,1,5,9,26,10,-1029
1501,17.348509,1,5,9,19,15,-1021
1502,17.360166,2,5,8,24,13,-1023
1503,17.37182,2,6,10,24,14,-1025
1504,17.383515,2,5,8,21,11,-1021
1505,17.395167,2,5,8,18,9,-1027
1506,17.406892,3,5,9,23,9,-1025
1507,17.418551,2,6,9,20,7,-1021
1508,17.430248,2,5,10,21,8,-1024
1509,17.441902,2,5,8,22,9,-1022
1510,17.453554,2,5,8,21,11,-1028
1511,17.465225,2,5,8,23,10,-1024
1512,17.476884,1,5,9,23,10,-1019
1513,17.488528,1,5,10,20,12,-1028
1514,17.500179,2,5,9,28,11,-1024
1515,17.511846,2,6,9,24,12,-1024
1516,17.523499,2,5,9,20,11,-1026
1517,17.535167,1,6,8,20,8,-1027
1518,17.546849,3,6,8,22,12,-1019
1519,17.558507,1,6,9,25,13,-1022
1520,17.570155,2,6,9,29,12,-1016
1521,17.581798,1,6,9,25,13,-1028
1522,17.593453,2,6,9,20,10,-1028
1523,17.605111,2,6,9,25,9,-1024
1524,17.616724,1,6,8,24,11,-1028
1525,17.628391,2,6,9,22,12,-1025
1526,17.640069,2,6,10,22,10,-1023
1527,17.651759,2,6,9,20,10,-1027
1528,17.663422,2,5,9,23,8,-1023
1529,17.675124,1,5,9,22,9,-1020
1530,17.686782,2,5,9,25,11,-1028
1531,17.698452,1,5,9,25,15,-1026
1532,17.710112,1,6,9,26,13,-1031
1533,17.721763,2,6,9,20,12,-1024
1534,17.733408,1,5,9,22,11,-1029
1535,17.745077,1,5,9,23,9,-1020
1536,17.756829,1,6,10,21,12,-1027
1537,17.768389,2,6,9,20,15,-1022
1538,17.77993,2,5,9,21,9,-1027
1539,17.791494,2,5,9,20,10,-1026
1540,17.803085,2,6,9,24,11,-1026
1541,17.814661,2,5,9,21,11,-1025
1542,17.826215,1,5,9,22,10,-1028
1543,17.83777,2,6,10,26,10,-1027
1544,17.849351,2,5,9,23,16,-1030
1545,17.860986,1,6,9,21,12,-1023
1546,17.872659,1,6,9,19,15,-1028
1547,17.884306,1,5,9,17,9,-1023
1548,17.896009,2,5,9,19,9,-1019
1549,17.907658,1,5,10,22,6,-1019
1550,17.919308,2,6,8,25,14,-1028
1551,17.931001,2,6,9,21,14,-1025
1552,17.942658,2,6,10,26,7,-1027
1553,17.954329,2,6,9,22,10,-1024
1554,17.96599,3,6,9,22,13,-1021
1555,17.97758,2,6,9,26,11,-1026
1556,17.989128,2,7,9,27,11,-1019
1557,18.000678,1,5,9,23,11,-1025
1558,18.012223,2,6,9,23,12,-1020
1559,18.023826,1,5,9,26,12,-1017
1560,18.035374,2,6,8,22,14,-1028
1561,18.046965,2,5,9,20,13,-1022
1562,18.058522,2,6,10,22,13,-1022
1563,18.070148,2,6,9,18,10,-1026
1564,18.081821,2,6,9,28,15,-1023
1565,18.093472,2,5,9,21,10,-1025
1566,18.105134,2,5,9,24,12,-1021
1567,18.116817,2,6,9,23,11,-1025
1568,18.12846,1,6,9,22,13,-1021
1569,18.140149,2,5,10,26,12,-1025
1570,18.151815,1,6,8,19,9,-1027
1571,18.163491,1,6,9,19,8,-1021
1572,18.175089,2,6,9,23,13,-1021
1573,18.186633,1,6,9,24,12,-1026
1574,18.198178,2,5,9,26,11,-1020
1575,18.209725,1,6,8,23,8,-1024
1576,18.221301,2,6,10,23,10,-1022
1577,18.23285,2,5,9,18,13,-1023
1578,18.244393,2,6,9,20,7,-1029
1579,18.255915,2,6,9,21,12,-1031
1580,18.267448,2,6,9,22,10,-1027
1581,18.279107,2,6,9,21,10,-1021
1582,18.290766,1,6,9,19,11,-1023
1583,18.30242,1,5,9,23,13,-1026
1584,18.314058,2,6,9,22,9,-1020
1585,18.325711,2,6,9,23,7,-1027
1586,18.337383,2,6,9,25,11,-1020
1587,18.349029,1,6,9,20,14,-1025
1588,18.360705,1,6,9,21,14,-1026
1589,18.372382,2,6,9,22,10,-1024
1590,18.383993,2,5,10,23,9,-1024
1591,18.395585,2,6,9,24,10,-1021
1592,18.407211,2,6,9,23,17,-1022
1593,18.418778,1,6,9,20,10,-1027
1594,18.430332,2,6,9,22,8,-1027
1595,18.44189,2,5,9,24,10,-1023
1596,18.453465,2,6,8,25,11,-1027
1597,18.465014,2,6,9,22,12,-1025
1598,18.476644,2,6,10,20,14,-1028
1599,18.488375,2,5,9,23,9,-1026
1600,18.500039,2,6,10,21,13,-1018
1601,18.511687,1,6,8,22,13,-1021
1602,18.523375,2,6,8,25,12,-1027
1603,18.535038,3,6,9,25,10,-1023
1604,18.54671,1,6,9,23,12,-1025
1605,18.558366,1,6,10,23,15,-1025
1606,18.570053,1,6,8,23,16,-1028
1607,18.581724,1,6,8,26,14,-1024
1608,18.593311,2,5,9,22,9,-1023
1609,18.604873,2,5,9,23,8,-1023
1610,18.616452,2,6,9,27,11,-1017
1611,18.628011,2,6,10,23,11,-1023
1612,18.642034,2,6,9,22,10,-1025
1613,18.653623,2,6,9,20,11,-1031
1614,18.665169,2,6,9,21,14,-1025
1615,18.676724,3,6,8,23,12,-1019
1616,18.688272,1,6,9,23,12,-1029
1617,18.699831,2,7,9,25,9,-1026
1618,18.711386,1,5,8,24,10,-1025
1619,18.722971,1,6,8,26,15,-1025
1620,18.734516,2,6,9,25,9,-1024
1621,18.746083,2,5,8,25,7,-1020
1622,18.757638,2,5,9,22,8,-1027
1623,18.769225,1,6,9,22,15,-1023
1624,18.780786,1,5,9,23,14,-1018
1625,18.792454,2,6,8,22,9,-1030
1626,18.804146,2,7,9,19,9,-1029
1627,18.815804,2,6,9,21,9,-1025
1628,18.827498,2,6,9,22,8,-1028
1629,18.839153,2,6,9,24,12,-1021
1630,18.850833,2,5,10,21,12,-1021
1631,18.862537,2,6,9,24,11,-1023
1632,18.874195,2,6,9,23,13,-1026
1633,18.885902,2,7,10,22,15,-1026
1634,18.897564,2,5,10,28,14,-1025
1635,18.909212,2,6,9,21,17,-1024
1636,18.920878,2,6,9,24,14,-1027
1637,18.932525,1,5,9,22,7,-1023
1638,18.944176,1,5,9,19,13,-1019
1639,18.955826,2,7,9,21,15,-1032
1640,18.967515,1,6,9,22,11,-1026
1641,18.979232,2,6,9,29,9,-1028
1642,18.990896,2,5,9,25,12,-1031
1643,19.002458,2,6,9,18,12,-1031
1644,19.014003,1,6,8,23,10,-1028
1645,19.02556,2,6,8,22,12,-1029
1646,19.037109,1,5,9,22,12,-1024
1647,19.048654,1,6,9,23,11,-1020
1648,19.060196,2,6,9,23,11,-1029
1649,19.071752,2,6,8,23,10,-1031
1650,19.083356,1,6,8,26,12,-1026
1651,19.094995,2,5,9,20,12,-1018
1652,19.106666,1,6,9,24,11,-1029
1653,19.118328,2,6,9,23,14,-1016
1654,19.129981,2,6,10,18,11,-1018
1655,19.141652,1,5,9,25,11,-1025
1656,19.153311,1,6,9,24,11,-1026
1657,19.164968,2,6,9,24,11,-1026
1658,19.176638,2,6,9,26,13,-1021
1659,19.188292,2,5,10,22,11,-1026
1660,19.199851,2,5,9,20,10,-1021
1661,19.211464,2,6,8,21,14,-1024
1662,19.223022,1,6,9,20,10,-1029
1663,19.234587,1,6,9,23,13,-1022
1664,19.246125,2,6,9,21,14,-1019
1665,19.257697,2,5,9,23,12,-1025
1666,19.269253,1,6,9,21,11,-1025
1667,19.280827,2,5,8,24,14,-1028
1668,19.292379,1,5,9,22,13,-1020
1669,19.304001,2,5,9,25,7,-1032
1670,19.315649,1,5,9,24,12,-1026
1671,19.327307,2,7,9,21,7,-1029
1672,19.339,1,6,9,20,8,-1027
1673,19.350652,2,5,9,25,11,-1025
1674,19.362323,1,6,9,21,13,-1024
1675,19.373994,2,7,10,24,9,-1024
1676,19.38564,1,6,9,20,11,-1025
1677,19.397295,2,5,9,25,11,-1021
1678,19.408972,2,6,8,20,12,-1016
1679,19.420535,1,6,9,25,10,-1030
1680,19.432101,1,6,9,22,14,-1021
1681,19.443667,1,6,9,26,8,-1024
1682,19.455196,1,5,9,22,15,-1025
1683,19.466712,1,5,9,25,13,-1028
1684,19.478265,2,5,10,21,14,-1019
1685,19.489836,2,5,9,24,11,-1019
1686,19.501397,1,6,8,21,10,-1024
1687,19.513016,1,6,8,24,11,-1027
1688,19.524672,1,6,8,22,14,-1022
1689,19.536322,2,6,8,23,5,-1022
1690,19.548009,2,5,9,24,14,-1025
1691,19.559667,1,5,9,27,8,-1024
1692,19.571332,2,6,9,23,9,-1026
1693,19.583089,2,6,9,25,7,-1020
1694,19.594904,2,6,9,23,6,-1027
1695,19.606689,2,5,9,22,4,-1020
1696,19.618392,2,6,9,25,9,-1022
1697,19.63004,2,6,9,20,12,-1017
1698,19.6416,2,6,9,25,10,-1026
1699,19.653149,2,6,8,27,7,-1020
1700,19.664712,2,6,9,22,10,-1026
1701,19.676262,2,6,8,23,13,-1026
1702,19.687838,2,6,9,17,9,-1026
1703,19.69944,2,6,9,24,12,-1027
1704,19.711017,2,5,9,23,14,-1027
1705,19.722663,1,6,9,23,13,-1026
1706,19.734331,2,5,8,27,9,-1026
1707,19.74599,1,7,9,23,15,-1031
1708,19.757659,1,6,9,21,10,-1027
1709,19.769318,2,6,9,24,12,-1024
1710,19.781012,2,6,9,24,7,-1009
1711,19.792648,2,6,9,25,8,-1022
1712,19.804297,2,6,9,20,13,-1027
1713,19.815995,2,6,8,23,11,-1023
1714,19.827658,2,6,9,23,13,-1021
1715,19.839206,1,5,9,23,8,-1031
1716,19.850845,1,6,9,23,11,-1023
1717,19.862399,1,6,9,23,11,-1029
1718,19.873965,2,6,9,23,11,-1026
1719,19.885505,2,6,9,23,10,-1028
1720,19.897049,1,6,9,23,15,-1023
1721,19.908627,2,6,9,23,15,-1020
1722,19.920186,2,6,9,22,13,-1022
1723,19.931814,1,5,9,20,9,-1028
1724,19.943491,2,6,9,18,12,-1027
1725,19.955164,2,6,9,19,10,-1024
1726,19.966837,2,6,10,20,8,-1026
1727,19.978488,2,5,8,28,12,-1026
1728,19.990155,1,6,9,21,11,-1021
1729,20.001823,2,6,9,24,13,-1022
1730,20.013496,2,5,9,24,10,-1023
1731,20.025166,1,5,9,23,14,-1023
1732,20.036827,2,6,9,26,11,-1026
1733,20.048381,2,6,10,24,10,-1021
1734,20.059925,2,5,9,20,10,-1028
1735,20.07149,2,6,9,20,12,-1024
1736,20.083077,2,6,9,21,14,-1026
1737,20.09464,1,6,9,19,10,-1026
1738,20.106213,2,6,9,25,12,-1030
1739,20.117766,2,6,9,22,12,-1024
1740,20.129363,1,6,9,22,11,-1026
1741,20.140909,1,6,9,22,9,-1033
1742,20.152459,2,6,9,18,7,-1024
1743,20.164042,2,6,10,21,12,-1029
1744,20.175603,2,5,9,26,9,-1024
1745,20.187215,1,6,9,22,14,-1026
1746,20.198775,2,6,9,22,6,-1027
1747,20.21034,2,6,8,24,8,-1028
1748,20.222032,2,6,9,24,10,-1024
1749,20.233635,2,5,9,20,12,-1021
1750,20.245323,1,6,10,21,14,-1028
1751,20.257008,2,6,9,22,12,-1021
1752,20.268663,2,6,9,27,11,-1020
1753,20.280319,1,5,9,26,10,-1027
1754,20.292012,2,6,9,23,14,-1024
1755,20.303671,1,6,9,24,12,-1026
1756,20.315343,1,6,9,22,11,-1024
1757,20.326983,1,5,9,26,12,-1022
1758,20.33871,1,6,9,26,14,-1027
1759,20.350386,2,6,9,25,7,-1024
1760,20.361976,1,6,9,26,11,-1023
1761,20.373552,2,6,9,21,12,-1020
1762,20.38511,1,5,8,26,12,-1018
1763,20.396656,1,5,9,25,12,-1025
1764,20.4082,1,5,9,24,12,-1017
1765,20.419754,1,5,9,23,9,-1032
1766,20.431324,1,6,8,23,13,-1026
1767,20.442895,2,5,9,24,11,-1029
1768,20.454543,2,6,10,22,12,-1028
1769,20.466202,1,6,9,21,12,-1021
1770,20.477882,1,6,8,25,15,-1020
1771,20.489542,2,6,9,23,10,-1021
1772,20.5012,2,5,9,21,10,-1029
1773,20.512876,1,5,9,22,12,-1024
1774,20.524546,2,5,9,23,7,-1020
1775,20.536214,1,5,9,23,12,-1028
1776,20.547924,2,6,9,22,10,-1024
1777,20.559606,2,5,9,22,12,-1018
1778,20.571191,2,6,9,24,13,-1023
1779,20.582721,2,5,9,19,13,-1025
1780,20.594262,2,5,9,20,14,-1028
1781,20.605813,1,6,9,22,13,-1027
1782,20.617362,2,5,9,22,9,-1022
1783,20.628911,2,6,9,22,12,-1024
1784,20.640457,2,6,9,25,12,-1015
1785,20.652036,2,6,10,24,10,-1029
1786,20.663666,2,6,9,24,9,-1026
1787,20.675367,3,5,9,21,9,-1023
1788,20.687032,2,6,9,23,11,-1024
1789,20.698729,2,5,8,22,12,-1026
1790,20.710399,1,5,8,20,16,-1027
1791,20.722046,1,6,9,23,9,-1025
1792,20.733695,2,5,9,22,13,-1019
1793,20.745391,2,6,9,27,9,-1024
1794,20.75705,2,6,9,24,10,-1026
1795,20.768705,2,6,9,24,14,-1028
1796,20.780262,2,6,9,24,12,-1035
1797,20.79185,2,5,9,24,12,-1032
1798,20.803459,2,6,9,24,9,-1029
1799,20.815014,3,6,9,20,10,-1023
1800,20.826587,1,7,10,23,16,-1019
1801,20.838152,1,5,9,18,14,-1027
1802,20.8497,2,5,9,20,10,-1020
1803,20.861257,2,7,9,20,8,-1025
1804,20.872893,2,6,9,22,11,-1024
1805,20.884553,2,6,9,24,14,-1022
1806,20.896225,1,5,9,16,14,-1027
1807,20.907905,2,5,9,26,10,-1024
1808,20.919563,1,7,9,23,14,-1026
1809,20.931256,2,6,9,21,11,-1022
1810,20.942909,2,6,9,22,9,-1031
1811,20.954558,1,6,9,24,8,-1037
1812,20.966237,2,6,8,24,16,-1022
1813,20.977912,2,5,9,24,12,-1024
1814,20.989476,2,6,9,20,13,-1020
1815,21.001037,2,6,9,25,11,-1025
1816,21.012628,1,6,9,22,10,-1020
1817,21.024178,2,6,10,25,9,-1019
1818,21.035742,2,5,9,22,13,-1026
1819,21.047348,2,6,9,22,16,-1023
1820,21.058899,1,5,10,22,12,-1027
1821,21.070446,2,6,9,26,9,-1021
1822,21.082094,2,5,9,19,14,-1023
1823,21.09374,2,6,9,25,14,-1025
1824,21.10543,2,5,9,23,11,-1027
1825,21.117076,2,6,9,20,13,-1029
1826,21.128724,2,6,9,21,8,-1009
1827,21.140394,2,6,9,21,14,-1024
1828,21.152064,1,5,8,22,9,-1022
1829,21.163764,1,6,8,27,9,-1025
1830,21.175435,1,6,10,23,7,-1033
1831,21.187123,2,5,9,24,9,-1021
1832,21.198718,1,5,9,27,12,-1026
1833,21.210259,1,6,8,21,14,-1029
1834,21.221813,1,5,9,23,8,-1028
1835,21.23336,1,7,9,23,11,-1025
1836,21.244905,1,6,9,22,12,-1030
1837,21.256451,1,6,9,24,15,-1022
1838,21.267993,2,6,9,21,10,-1024
1839,21.279606,1,6,9,22,8,-1023
1840,21.291253,2,6,9,22,12,-1019
1841,21.30292,2,5,10,24,11,-1020
1842,21.314575,1,6,9,24,12,-1028
1843,21.32624,1,5,10,22,7,-1026
1844,21.337926,1,6,8,23,12,-1025
1845,21.349574,2,5,9,22,13,-1018
1846,21.361244,1,6,9,22,12,-1021
1847,21.372899,2,6,9,20,10,-1029
1848,21.384562,2,6,10,21,11,-1032
1849,21.396265,2,6,10,22,7,-1030
1850,21.407852,2,6,9,24,15,-1031
1851,21.419436,1,6,9,23,10,-1022
1852,21.431004,2,6,9,26,10,-1023
1853,21.442575,2,5,8,21,12,-1027
1854,21.454116,1,6,9,18,13,-1027
1855,21.465656,1,5,9,25,9,-1023
1856,21.477227,2,5,9,20,13,-1028
1857,21.488791,2,5,9,23,14,-1027
1858,21.500419,1,6,9,22,11,-1025
1859,21.512083,1,6,9,20,13,-1027
1860,21.523776,2,6,9,23,10,-1026
1861,21.535425,2,5,9,26,16,-1027
1862,21.547103,2,6,9,24,11,-1022
1863,21.558788,1,6,9,26,13,-1023
1864,21.570444,2,5,9,21,14,-1023
1865,21.58211,1,5,10,24,9,-1023
1866,21.593781,1,5,9,22,9,-1024
1867,21.605459,1,6,9,24,11,-1025
1868,21.617024,2,6,9,24,10,-1025
1869,21.628627,2,6,9,22,13,-1029
1870,21.640178,2,6,9,25,11,-1022
1871,21.651737,1,6,9,24,10,-1022
1872,21.663306,2,6,8,21,14,-1026
1873,21.674875,2,6,8,19,9,-1025
1874,21.686465,2,6,8,24,16,-1019
1875,21.698031,2,6,9,24,11,-1023
1876,21.709671,1,5,9,23,11,-1022
1877,21.721333,2,5,9,24,11,-1020
1878,21.732991,2,5,9,22,13,-1023
1879,21.744642,2,5,9,22,7,-1017
1880,21.756323,3,6,9,25,9,-1028
1881,21.768014,2,6,9,25,12,-1020
1882,21.779682,2,5,9,22,8,-1027
1883,21.791379,2,5,10,20,14,-1016
1884,21.803057,1,6,10,17,12,-1022
1885,21.81474,2,5,9,26,11,-1029
1886,21.826345,1,5,9,22,16,-1023
1887,21.837899,2,6,9,23,12,-1023
1888,21.849494,2,6,9,22,9,-1018
1889,21.861035,2,6,9,19,15,-1021
1890,21.872578,1,6,9,19,14,-1021
1891,21.884147,2,7,8,23,9,-1024
1892,21.895674,2,5,9,23,14,-1022
1893,21.907205,2,5,9,24,12,-1030
1894,21.91886,2,5,8,25,9,-1020
1895,21.930516,2,5,9,21,10,-1030
1896,21.94217,2,6,9,21,10,-1027
1897,21.953818,1,6,9,21,13,-1020
1898,21.965466,2,6,9,21,9,-1033
1899,21.977138,0,6,9,24,10,-1025
1900,21.988789,1,5,9,25,12,-1032
1901,22.000436,2,5,9,22,10,-1031
1902,22.012095,2,5,10,21,8,-1023
1903,22.023745,1,5,9,22,11,-1023
1904,22.035361,2,5,9,23,12,-1024
1905,22.046954,1,6,10,24,11,-1025
1906,22.058511,2,6,9,23,7,-1026
1907,22.0701,2,6,9,28,12,-1027
1908,22.081649,1,5,10,23,9,-1022
1909,22.093245,2,6,9,22,14,-1028
1910,22.104798,2,5,8,22,10,-1023
1911,22.116372,1,6,9,22,12,-1022
1912,22.127996,1,6,9,18,9,-1026
1913,22.139675,2,5,10,21,14,-1028
1914,22.151359,2,6,9,18,12,-1029
1915,22.163045,2,6,9,22,14,-1019
1916,22.174728,1,5,9,22,14,-1027
1917,22.18641,1,5,9,24,11,-1023
1918,22.198065,1,5,9,21,12,-1028
1919,22.209716,1,6,9,19,8,-1029
1920,22.221436,2,6,10,26,10,-1029
1921,22.233129,1,6,9,22,10,-1025
1922,22.244705,2,6,9,20,11,-1022
1923,22.256244,1,6,9,25,8,-1022
1924,22.267849,2,6,9,23,10,-1026
1925,22.279448,2,5,10,22,9,-1027
1926,22.291015,2,5,9,25,13,-1027
1927,22.302563,1,6,9,17,11,-1027
1928,22.314145,2,6,9,19,11,-1025
1929,22.325753,1,5,9,24,13,-1026
1930,22.337424,1,5,10,26,11,-1022
1931,22.349084,2,5,9,24,12,-1023
1932,22.360757,1,5,8,26,8,-1026
1933,22.372411,2,6,9,22,11,-1022
1934,22.384072,2,5,9,23,13,-1025
1935,22.39578,2,5,9,26,10,-1026
1936,22.407481,1,6,9,23,11,-1028
1937,22.419167,2,6,9,21,11,-1022
1938,22.430991,2,5,9,22,10,-1023
1939,22.442741,2,5,9,22,10,-1028
1940,22.454314,2,7,9,21,11,-1020
1941,22.465869,2,6,9,25,14,-1021
1942,22.477435,2,7,8,20,12,-1022
1943,22.489005,1,6,9,24,11,-1023
1944,22.500565,2,5,9,24,16,-1030
1945,22.512136,2,5,9,24,16,-1026
1946,22.523678,2,5,9,24,13,-1021
1947,22.535219,2,5,9,25,7,-1022
1948,22.546861,2,5,9,23,13,-1023
1949,22.558539,2,5,9,24,9,-1025
1950,22.570195,2,6,9,21,12,-1024
1951,22.581859,2,7,10,19,11,-1022
1952,22.593567,1,7,9,24,13,-1018
1953,22.605232,2,6,8,20,10,-1024
1954,22.616892,1,6,10,22,11,-1028
1955,22.628548,1,6,9,20,12,-1026
1956,22.640221,1,5,9,24,14,-1021
1957,22.651904,1,5,8,21,11,-1030
1958,22.663561,2,5,9,23,13,-1028
1959,22.675251,2,6,9,23,12,-1025
1960,22.68691,1,5,9,21,14,-1023
1961,22.698562,2,5,9,22,11,-1026
1962,22.710217,2,5,9,24,7,-1024
1963,22.721863,2,6,9,21,12,-1027
1964,22.733528,2,6,9,23,11,-1025
1965,22.745199,2,6,9,22,11,-1026
1966,22.756856,1,6,9,22,14,-1023
1967,22.76842,2,6,9,19,15,-1022
1968,22.779998,1,6,9,22,13,-1028
1969,22.791559,1,5,9,28,13,-1019
1970,22.803136,2,6,9,19,13,-1022
1971,22.814724,1,5,9,24,13,-1031
1972,22.826273,2,4,9,21,11,-1025
1973,22.837835,2,5,9,23,14,-1029
1974,22.8494,2,6,9,24,8,-1027
1975,22.861023,2,6,9,21,13,-1026
1976,22.872679,2,5,8,25,13,-1022
1977,22.884325,2,5,9,24,10,-1023
1978,22.896025,1,5,8,25,10,-1027
1979,22.90768,1,5,8,24,15,-1026
1980,22.919356,2,5,9,22,11,-1023
1981,22.931041,2,5,9,25,13,-1022
1982,22.942706,1,5,9,21,16,-1024
1983,22.954361,1,6,9,24,8,-1028
1984,22.966052,1,5,8,18,10,-1026
1985,22.977625,2,6,9,24,11,-1020
1986,22.989178,2,6,8,19,11,-1030
1987,23.000745,2,6,9,19,12,-1027
1988,23.012288,2,6,9,21,10,-1022
1989,23.023858,1,6,9,26,15,-1023
1990,23.035428,1,5,9,23,13,-1020
1991,23.046956,1,5,9,23,15,-1024
1992,23.058518,2,6,9,22,13,-1024
1993,23.070159,1,6,10,22,12,-1022
1994,23.081816,1,6,9,20,8,-1021
1995,23.093469,1,5,8,21,9,-1024
1996,23.105145,2,5,9,22,16,-1028
1997,23.116804,2,6,9,27,12,-1024
1998,23.128473,2,6,9,21,13,-1026
1999,23.140138,1,6,9,22,12,-1026
