sample,t_s,gyro_x,gyro_y,gyro_z,accel_x,accel_y,accel_z
0,1.3e-05,0,0,0,0,1,-1017
1,0.011249,0,0,0,2,-2,-1019
2,0.022443,-1,-2,0,-1,1,-1024
3,0.033626,0,-1,1,-2,-2,-1024
4,0.044811,-1,-2,1,-2,-1,-1024
5,0.055991,-1,0,0,-1,1,-1022
6,0.067172,-1,0,0,-2,-1,-1029
7,0.078354,-1,1,0,0,-4,-1021
8,0.089551,-1,0,0,-2,-4,-1020
9,0.100737,0,0,0,2,1,-1030
10,0.11193,0,0,0,2,-3,-1030
11,0.123114,0,-2,-1,1,-2,-1014
12,0.134296,0,-1,-1,1,-1,-1019
13,0.145484,-1,-1,0,-2,1,-1028
14,0.156673,-1,0,0,0,-2,-1026
15,0.16786,-1,-1,0,-5,-1,-1026
16,0.179043,-1,-1,0,1,2,-1023
17,0.190232,0,-1,0,3,-1,-1022
18,0.201419,0,-1,0,-2,-2,-1026
19,0.212601,0,0,0,-3,-4,-1024
20,0.223805,0,-1,0,1,0,-1021
21,0.234986,-1,-2,0,-1,-1,-1026
22,0.246172,0,-2,0,2,-2,-1019
23,0.257367,0,-1,0,-1,3,-1029
24,0.268548,0,-1,-1,-2,1,-1021
25,0.279738,-1,-2,0,3,0,-1021
26,0.29092,0,-1,-1,-4,0,-1028
27,0.302104,0,0,0,0,-2,-1021
28,0.313301,-1,-1,0,2,3,-1023
29,0.324519,-1,-2,0,3,0,-1029
30,0.335712,0,1,0,0,3,-1020
31,0.346901,0,1,0,-2,0,-1029
32,0.35809,0,0,1,-3,-1,-1025
33,0.369277,1,1,0,1,-1,-1026
34,0.380474,-1,-1,0,3,-3,-1023
35,0.391623,-1,1,0,-3,1,-1026
36,0.402805,-1,-1,0,0,-3,-1022
37,0.413992,-1,-1,1,2,1,-1020
38,0.425173,0,0,0,1,-1,-1020
39,0.436361,0,1,0,-4,-1,-1025
40,0.447556,0,1,0,-1,-3,-1023
41,0.45874,-1,-1,1,0,-1,-1032
42,0.469921,0,0,1,3,0,-1023
43,0.481107,1,1,1,-2,0,-1023
44,0.492295,0,1,-1,5,-3,-1027
45,0.503489,0,1,-1,-2,-3,-1026
46,0.514671,-1,1,0,1,-2,-1020
47,0.525857,0,0,1,2,-1,-1020
48,0.537045,0,1,0,-1,2,-1026
49,0.54823,0,1,1,0,0,-1026
50,0.559432,0,0,0,1,-1,-1015
51,0.570617,0,0,0,2,0,-1023
52,0.581801,0,-2,-1,0,1,-1025
53,0.592985,0,-2,0,-1,-2,-1021
54,0.604181,0,-1,0,-2,1,-1026
55,0.615361,-1,-1,0,-3,-1,-1025
56,0.626545,-1,-2,1,2,2,-1024
57,0.637727,-1,-2,0,2,0,-1025
58,0.648912,0,-2,0,-5,1,-1023
59,0.660106,0,-1,0,-3,-4,-1019
60,0.671291,0,-1,0,-3,-1,-1022
61,0.682475,-1,-1,0,0,1,-1027
62,0.693677,-1,-1,0,2,-4,-1024
63,0.704859,0,-1,0,-3,-3,-1027
64,0.716052,-1,0,0,-4,1,-1025
65,0.727241,0,1,0,-1,-3,-1025
66,0.738429,-1,1,0,-1,-1,-1020
67,0.749617,0,1,0,1,-3,-1018
68,0.760797,0,1,0,0,1,-1019
69,0.771991,-1,-1,0,2,-6,-1026
70,0.783178,0,1,1,0,-1,-1016
71,0.794361,0,1,0,-2,-5,-1015
72,0.805554,0,1,1,3,-3,-1017
73,0.816736,0,0,1,1,-3,-1020
74,0.827925,0,1,0,2,2,-1022
75,0.839108,0,1,1,-2,0,-1027
76,0.850297,0,0,-1,0,2,-1022
77,0.861503,0,0,0,-2,-1,-1021
78,0.872685,0,0,0,-1,-2,-1023
79,0.883878,-1,-3,0,1,3,-1025
80,0.895063,0,-2,-1,-2,-3,-1017
81,0.906248,0,-2,0,-3,-1,-1016
82,0.917438,0,0,0,-2,-1,-1021
83,0.928621,-1,-1,0,0,0,-1025
84,0.939809,0,-2,0,2,-2,-1025
85,0.950996,0,-1,0,-5,-1,-1023
86,0.962181,-1,-1,0,1,-3,-1018
87,0.973369,0,-1,0,0,-2,-1026
88,0.984565,1,0,-1,3,-1,-1024
89,0.995812,0,0,0,1,1,-1025
90,1.006999,0,0,0,1,0,-1025
91,1.018186,0,-1,0,-2,4,-1022
92,1.029373,-2,-2,0,-3,0,-1022
93,1.04056,0,-2,0,-5,-4,-1028
94,1.05175,0,-2,-1,0,-1,-1019
95,1.062933,0,-1,0,-1,-1,-1024
96,1.07412,0,0,-1,0,-3,-1026
97,1.085305,-1,-2,0,3,-2,-1024
98,1.096493,0,-1,0,0,-1,-1019
99,1.107684,0,-2,-1,-1,0,-1021
100,1.118867,0,0,0,4,-2,-1026
101,1.130056,0,-1,-1,1,-2,-1020
102,1.14124,0,-1,-2,1,-3,-1027
103,1.152431,0,-1,-1,-3,3,-1026
104,1.163623,0,0,0,1,-2,-1023
105,1.174804,0,0,0,2,1,-1026
106,1.185989,0,0,0,-2,-2,-1024
107,1.197176,0,0,-1,-2,0,-1021
108,1.208361,0,0,-1,-1,-4,-1024
109,1.219562,0,-1,0,-3,-5,-1019
110,1.230749,0,0,-1,-1,-1,-1025
111,1.241931,0,1,0,0,-2,-1022
112,1.253116,0,1,0,1,-3,-1022
113,1.264301,-1,1,-1,3,-4,-1020
114,1.275506,0,0,0,-1,0,-1019
115,1.286746,-1,-1,0,-1,-1,-1018
116,1.297939,-1,1,1,-1,-1,-1020
117,1.309122,0,0,0,1,-3,-1022
118,1.320313,0,1,0,-3,-2,-1026
119,1.331503,0,0,0,-4,-1,-1022
120,1.342686,0,0,0,2,-1,-1026
121,1.353874,-1,0,0,-3,-1,-1023
122,1.365057,0,0,0,3,-1,-1019
123,1.376251,-1,1,0,2,-2,-1021
124,1.387444,-1,0,1,-1,0,-1025
125,1.398627,-1,-2,0,4,0,-1030
126,1.409812,0,-1,0,6,0,-1024
127,1.420998,0,-1,0,0,2,-1023
128,1.432178,-1,-1,1,-2,-1,-1017
129,1.443382,0,0,0,0,1,-1019
130,1.454596,-1,0,1,-3,-1,-1030
131,1.465784,0,-1,1,-3,1,-1014
132,1.476967,0,0,0,0,-2,-1028
133,1.488179,-1,1,-1,-1,2,-1029
134,1.499365,0,1,0,-1,0,-1017
135,1.510547,0,1,0,2,4,-1023
136,1.521733,0,0,0,1,-3,-1023
137,1.532918,0,0,0,-1,2,-1022
138,1.544108,0,2,0,0,0,-1024
139,1.555296,0,1,-1,1,0,-1029
140,1.566483,1,1,0,2,-6,-1024
141,1.577667,0,0,0,1,-3,-1034
142,1.58885,0,2,0,3,6,-1015
143,1.600041,0,2,0,1,1,-1023
144,1.611225,0,2,-1,0,0,-1017
145,1.622408,0,1,-1,1,-2,-1026
146,1.633593,0,0,0,0,-5,-1028
147,1.644781,0,0,-1,-1,3,-1024
148,1.655967,-1,0,-2,-1,2,-1020
149,1.667159,0,0,0,0,0,-1022
150,1.67835,-1,0,0,0,0,-1026
151,1.689538,0,2,0,0,-2,-1017
152,1.700724,0,1,0,2,2,-1023
153,1.711926,-1,0,1,-3,-1,-1022
154,1.723114,0,0,0,3,0,-1014
155,1.734303,0,0,1,0,1,-1017
156,1.745502,-1,-2,0,-2,-1,-1025
157,1.756685,0,1,-1,2,0,-1023
158,1.76788,-1,1,0,-2,0,-1020
159,1.779061,-1,0,0,0,1,-1024
160,1.79025,-1,0,0,1,1,-1025
161,1.801444,0,1,0,5,5,-1023
162,1.812627,0,0,0,2,2,-1026
163,1.82381,-1,0,0,-2,-1,-1027
164,1.834996,0,0,0,-3,-2,-1025
165,1.84618,-1,1,0,1,-3,-1022
166,1.857366,0,1,0,0,1,-1025
167,1.868553,-2,0,0,1,-2,-1031
168,1.879744,0,0,0,0,-1,-1023
169,1.890952,1,-1,-1,0,-1,-1022
170,1.902137,0,-1,0,3,-3,-1023
171,1.913318,0,-1,0,2,-1,-1018
172,1.924505,0,-1,-1,-1,-2,-1027
173,1.9357,-1,-1,0,3,-3,-1022
174,1.94688,0,-1,0,-3,-2,-1022
175,1.958072,0,-2,1,-1,-4,-1022
176,1.969276,-1,-1,1,3,-1,-1025
177,1.980477,0,1,0,-1,-1,-1022
178,1.991672,0,0,0,-1,-4,-1025
179,2.002858,0,1,-1,-2,-2,-1026
180,2.014047,1,0,-1,-4,7,-1025
181,2.025229,0,0,0,0,3,-1024
182,2.03642,0,1,-1,-2,-1,-1017
183,2.047619,0,0,0,0,-1,-1022
184,2.058817,-1,1,0,-1,-2,-1018
185,2.070036,-1,-1,0,-2,2,-1021
186,2.08123,0,0,0,3,1,-1023
187,2.092421,-1,-1,-1,0,-1,-1023
188,2.103626,0,1,0,-3,-2,-1020
189,2.114811,-1,0,0,0,1,-1022
190,2.125999,0,1,0,1,-3,-1022
191,2.137184,0,0,0,-3,0,-1023
192,2.148367,0,0,1,0,-2,-1023
193,2.159558,0,1,-1,-3,0,-1027
194,2.170744,-1,0,0,2,1,-1026
195,2.18193,-1,0,1,1,-2,-1025
196,2.193112,0,0,-1,-2,1,-1027
197,2.204301,0,0,0,-1,2,-1026
198,2.215492,0,1,0,-1,2,-1026
199,2.226676,0,0,1,-2,-2,-1020
200,2.237887,0,-1,0,0,4,-1026
201,2.249072,0,0,-1,-1,-4,-1020
202,2.260256,0,0,-1,3,-2,-1023
203,2.271437,0,-1,-1,-1,2,-1023
204,2.282621,0,-1,0,1,-1,-1019
205,2.293806,0,0,0,1,-2,-1021
206,2.304992,-1,-2,0,2,-2,-1022
207,2.316177,0,-2,0,-3,-1,-1032
208,2.327362,-1,-1,0,0,3,-1024
209,2.338546,-1,-1,0,-1,0,-1023
210,2.349733,-1,-1,0,-3,1,-1031
211,2.360916,-1,0,0,1,-1,-1029
212,2.372105,0,0,0,-1,-2,-1019
213,2.383289,0,0,1,2,2,-1022
214,2.394473,-1,-1,0,-1,1,-1026
215,2.405659,0,-1,1,1,-1,-1018
216,2.416839,0,1,0,0,3,-1024
217,2.427993,-1,-1,0,3,1,-1025
218,2.439177,0,0,0,1,-3,-1024
219,2.450368,0,0,0,0,2,-1023
220,2.461562,0,-1,0,1,-2,-1022
221,2.472745,0,0,0,0,2,-1024
222,2.483941,-1,-1,0,2,-2,-1028
223,2.495126,-1,-1,0,-1,2,-1020
224,2.506313,-1,-1,0,-4,-3,-1025
225,2.517501,0,-1,0,2,-3,-1026
226,2.528683,0,0,-1,-2,-1,-1023
227,2.539874,0,-1,0,0,0,-1023
228,2.551063,0,-2,0,1,-2,-1019
229,2.562245,-1,-1,0,1,2,-1016
230,2.573433,0,-2,-1,2,0,-1024
231,2.58462,-1,-1,-1,0,1,-1028
232,2.595824,-1,-1,0,-2,2,-1024
233,2.60701,0,1,0,-5,-5,-1022
234,2.618193,0,2,0,-1,0,-1025
235,2.629381,1,1,1,-4,-1,-1024
236,2.640568,0,1,0,-2,-3,-1018
237,2.651755,0,1,-1,1,1,-1028
238,2.662939,1,2,0,-2,0,-1027
239,2.674123,-1,1,-1,2,0,-1026
240,2.685306,0,0,-1,-3,2,-1022
241,2.696495,0,0,0,2,-2,-1024
242,2.707696,0,1,0,-1,-1,-1025
243,2.71888,0,-1,1,-4,-2,-1027
244,2.730068,0,0,1,-3,-4,-1020
245,2.741253,0,1,0,0,-2,-1028
246,2.752444,0,0,0,3,-5,-1021
247,2.763623,0,-1,0,-1,3,-1026
248,2.774809,0,1,0,0,0,-1020
249,2.785994,-1,1,0,-1,-1,-1024
250,2.797177,0,0,0,-2,-1,-1023
251,2.808364,0,1,0,1,-1,-1027
252,2.819555,0,1,0,-1,1,-1016
253,2.830742,0,0,0,1,0,-1024
254,2.841927,0,0,1,1,-3,-1027
255,2.853111,0,0,0,-5,1,-1027
256,2.864302,-1,0,0,-2,-2,-1023
257,2.875494,0,-1,0,2,1,-1025
258,2.886681,-1,-1,0,-1,-3,-1026
259,2.897871,-1,-1,0,3,0,-1021
260,2.909056,0,-1,0,-2,-1,-1021
261,2.92025,-1,-2,-1,-4,-2,-1019
262,2.931441,-1,0,0,2,-4,-1024
263,2.942623,0,-1,0,1,1,-1024
264,2.953822,-1,0,1,3,0,-1019
265,2.965007,-1,1,0,-5,-1,-1027
266,2.976179,0,0,0,0,0,-1026
267,2.987367,0,-2,-1,1,-1,-1021
268,2.998559,0,-1,0,1,-6,-1020
269,3.009749,0,0,0,0,-1,-1025
270,3.020932,0,1,-1,-1,-1,-1019
271,3.032122,0,0,0,-2,-1,-1024
272,3.043306,0,-1,0,1,2,-1020
273,3.054492,0,1,0,-1,-1,-1022
274,3.065683,0,-1,-1,0,-1,-1024
275,3.076866,0,0,-1,1,-3,-1025
276,3.088058,0,0,-1,4,-3,-1028
277,3.099242,0,0,0,-4,-3,-1022
278,3.110432,0,0,-1,-1,-2,-1024
279,3.121621,0,1,0,-1,-3,-1022
280,3.132806,1,2,-1,-4,1,-1014
281,3.143996,0,0,0,-1,2,-1019
282,3.155183,-1,1,-1,1,1,-1027
283,3.166375,0,0,1,-2,1,-1025
284,3.177559,-1,0,1,2,-3,-1014
285,3.188746,-1,-1,1,2,3,-1030
286,3.199942,-1,0,0,-1,-6,-1024
287,3.211126,-1,-2,1,-2,-2,-1020
288,3.222313,-1,-2,0,1,-1,-1020
289,3.233509,-1,-2,0,4,3,-1031
290,3.244695,0,-1,0,-2,-1,-1028
291,3.255892,-1,0,1,-3,-2,-1017
292,3.267079,0,1,0,-2,-4,-1019
293,3.278271,1,2,0,-2,4,-1019
294,3.289476,-1,-2,1,6,3,-1024
295,3.300662,-1,-2,0,-2,2,-1021
296,3.311879,0,0,0,-2,-1,-1017
297,3.323064,-1,-1,0,-1,0,-1030
298,3.334255,-1,-2,0,-2,-2,-1026
299,3.34545,0,-2,0,0,-3,-1020
300,3.356633,0,-1,0,1,-1,-1022
301,3.36781,0,-2,0,0,-3,-1023
302,3.378996,-1,0,0,3,-2,-1019
303,3.390191,-1,-2,0,1,-1,-1020
304,3.401388,0,0,0,0,0,-1023
305,3.412574,0,1,0,-2,3,-1024
306,3.423763,0,2,0,-5,0,-1025
307,3.434946,0,1,0,2,0,-1023
308,3.446134,0,0,0,-1,0,-1017
309,3.457321,0,0,0,1,3,-1020
310,3.468509,0,2,0,2,2,-1021
311,3.479701,1,2,-1,2,-2,-1021
312,3.490884,1,1,0,1,0,-1019
313,3.502075,-1,1,-1,2,0,-1021
314,3.513258,0,0,1,-3,-4,-1021
315,3.524447,0,0,1,1,-2,-1024
316,3.53563,-1,1,0,3,2,-1025
317,3.546817,0,0,0,-5,0,-1027
318,3.558006,0,0,0,-1,-2,-1025
319,3.569194,0,0,0,2,1,-1026
320,3.580372,-1,1,0,-4,2,-1020
321,3.591562,-1,1,-1,0,-1,-1022
322,3.602752,0,0,0,0,-4,-1019
323,3.613944,0,0,0,1,-4,-1018
324,3.625133,-1,-1,0,3,-2,-1026
325,3.636322,-1,-2,0,-1,-4,-1021
326,3.647518,-1,0,0,-1,-5,-1026
327,3.658703,-1,-1,0,-1,2,-1021
328,3.669921,-1,-1,-1,1,1,-1021
329,3.681106,-1,-2,0,1,1,-1026
330,3.692293,-1,-2,0,1,2,-1023
331,3.703438,0,-2,1,3,0,-1022
332,3.714623,0,-1,0,0,2,-1022
333,3.725813,-1,0,0,2,3,-1019
334,3.736997,0,-1,0,-1,-1,-1026
335,3.748182,-1,-1,0,3,0,-1022
336,3.759365,-1,0,1,0,-1,-1023
337,3.770554,0,-1,0,-1,4,-1024
338,3.781739,-1,-1,1,2,1,-1026
339,3.792925,-1,0,0,-3,-2,-1019
340,3.804113,0,0,0,-2,-1,-1024
341,3.815294,-1,0,0,-3,-1,-1023
342,3.826476,1,2,0,3,-2,-1020
343,3.837656,0,2,0,-2,-3,-1024
344,3.848838,0,0,0,-2,1,-1026
345,3.85999,-1,0,0,-1,0,-1023
346,3.871184,0,1,-1,0,-3,-1026
347,3.882369,0,1,-1,-2,-4,-1022
348,3.893555,0,2,0,3,-3,-1027
349,3.904752,0,1,1,-2,2,-1020
350,3.916,0,0,0,-1,-2,-1026
351,3.927194,0,1,0,0,2,-1022
352,3.938383,0,1,0,1,-3,-1019
353,3.949576,0,0,0,5,2,-1027
354,3.960759,0,-1,0,1,-2,-1024
355,3.971956,-1,0,0,-3,3,-1024
356,3.98349,0,-1,-1,1,-1,-1017
357,3.995143,0,-1,0,0,0,-1028
358,4.006798,-1,0,0,0,0,-1024
359,4.018588,0,0,0,-1,-3,-1024
360,4.03029,-1,-1,0,2,-2,-1023
361,4.041965,-1,-1,0,1,2,-1024
362,4.053616,0,-1,0,-2,-2,-1026
363,4.065269,0,0,1,0,4,-1016
364,4.076972,0,0,0,0,-1,-1025
365,4.088643,0,0,1,2,3,-1030
366,4.100306,-1,0,1,-3,-1,-1023
367,4.112071,0,0,0,-3,1,-1019
368,4.123752,-1,-1,0,-5,-1,-1024
369,4.135433,0,0,0,-2,1,-1023
370,4.1471,0,0,0,-1,-1,-1021
371,4.158755,-1,0,0,-2,0,-1020
372,4.17043,0,0,0,1,3,-1027
373,4.182109,-1,0,0,-1,-2,-1024
374,4.193781,-1,-1,0,-2,2,-1021
375,4.205337,-1,-1,0,1,4,-1023
376,4.216918,0,0,0,0,-1,-1023
377,4.228427,-1,0,0,0,0,-1023
378,4.239954,-1,0,1,-5,2,-1023
379,4.251474,-1,0,1,0,-1,-1025
380,4.263022,0,0,1,3,-1,-1021
381,4.27457,0,0,0,-2,-7,-1023
382,4.286152,0,-1,0,2,-2,-1025
383,4.297785,0,0,0,0,1,-1022
384,4.309464,-1,-1,-1,-3,-3,-1020
385,4.321119,0,0,0,2,-4,-1020
386,4.332765,0,0,0,-3,-4,-1023
387,4.344425,-1,0,0,1,-2,-1027
388,4.356154,0,0,0,1,0,-1022
389,4.367826,0,0,0,-2,0,-1027
390,4.379493,0,-1,0,3,0,-1020
391,4.391162,0,-1,1,-4,-1,-1018
392,4.402849,0,0,0,-2,-3,-1016
393,4.414427,0,0,0,-1,0,-1028
394,4.425982,-1,-1,0,0,1,-1028
395,4.437544,0,0,0,-3,1,-1028
396,4.449114,0,-1,0,-2,-4,-1026
397,4.460686,0,-1,0,-3,-2,-1029
398,4.47228,0,0,0,3,-3,-1018
399,4.483843,-1,0,0,-2,-2,-1022
400,4.495405,-1,0,0,-1,-3,-1018
401,4.507028,0,-1,1,0,-2,-1024
402,4.518682,0,-1,0,-1,-2,-1020
403,4.530346,0,0,0,-1,2,-1023
404,4.542001,0,-1,0,2,0,-1020
405,4.553649,0,0,0,-1,-2,-1025
406,4.565305,0,-1,0,-2,-3,-1026
407,4.576976,0,0,0,-1,-4,-1026
408,4.588641,-1,0,0,-1,-3,-1019
409,4.600316,-1,0,0,-3,-1,-1023
410,4.611976,0,0,0,-1,2,-1020
411,4.623598,0,0,0,-2,-2,-1022
412,4.63517,-1,0,-1,2,1,-1023
413,4.646724,-1,0,0,-2,1,-1028
414,4.658281,-1,0,1,0,-1,-1025
415,4.669832,-1,-1,1,-2,1,-1022
416,4.681388,-1,0,0,4,1,-1025
417,4.692941,-1,0,-1,1,0,-1025
418,4.70451,0,-1,0,-4,0,-1024
419,4.71614,0,0,1,1,-1,-1025
420,4.727805,0,-1,0,0,-2,-1019
421,4.739493,0,0,0,-2,-1,-1023
422,4.751154,-1,0,0,-1,-1,-1024
423,4.762803,0,0,0,3,-1,-1022
424,4.774504,0,0,0,-1,2,-1020
425,4.786169,-1,-1,-1,-2,1,-1026
426,4.797825,-1,0,-1,-4,-1,-1026
427,4.809504,-1,0,-1,4,0,-1021
428,4.821162,-1,0,-1,1,-1,-1026
429,4.832731,0,-1,1,2,-6,-1027
430,4.844319,0,0,0,0,-3,-1025
431,4.855935,0,0,0,0,-5,-1026
432,4.867478,0,0,0,-4,-3,-1026
433,4.879047,0,1,0,1,1,-1024
434,4.890595,0,-1,-1,0,-4,-1026
435,4.902158,-1,0,0,1,-7,-1023
436,4.913723,0,-1,0,0,4,-1026
437,4.925348,-1,-1,1,-4,-1,-1024
438,4.937043,0,0,-1,2,0,-1020
439,4.948707,-1,0,0,1,-2,-1023
440,4.960384,-1,0,0,0,-2,-1025
441,4.972041,0,0,0,2,-3,-1019
442,4.983735,0,0,0,-7,1,-1021
443,4.995382,0,0,0,0,0,-1022
444,5.007036,-1,0,0,-1,-1,-1019
445,5.018721,0,0,0,1,1,-1025
446,5.030382,0,-2,0,-5,2,-1020
447,5.042049,0,-1,0,-2,1,-1028
448,5.053604,0,0,0,-4,1,-1021
449,5.065155,0,-1,1,2,0,-1022
450,5.076683,-1,-1,0,-3,-1,-1021
451,5.088286,0,0,0,-1,-2,-1032
452,5.099865,0,0,1,-2,0,-1016
453,5.111431,0,-1,0,-2,5,-1024
454,5.122993,-1,0,0,2,-2,-1022
455,5.134651,-1,-1,0,3,0,-1026
456,5.14632,-1,0,0,-1,-1,-1021
457,5.157987,0,0,-1,-1,1,-1021
458,5.169653,0,0,0,1,0,-1019
459,5.181302,-1,-1,0,2,0,-1026
460,5.192985,0,0,0,-3,1,-1028
461,5.204652,0,-1,0,-1,-2,-1026
462,5.216348,-1,0,0,-5,-1,-1026
463,5.228015,-1,0,0,1,-3,-1027
464,5.239723,0,0,0,1,0,-1027
465,5.251297,0,0,1,1,1,-1017
466,5.262839,0,-1,0,4,-2,-1023
467,5.274394,0,0,0,2,2,-1035
468,5.285939,0,-1,0,1,-1,-1022
469,5.297482,0,0,0,1,-2,-1018
470,5.309025,-1,0,0,-1,-1,-1025
471,5.320572,0,-1,0,3,1,-1024
472,5.332194,0,0,0,1,-3,-1026
473,5.344023,0,0,-1,1,-3,-1026
474,5.355749,0,-1,0,0,-1,-1023
475,5.367406,0,0,-1,-4,0,-1028
476,5.37906,-1,0,-1,1,-2,-1028
477,5.390738,0,0,0,0,1,-1021
478,5.402382,0,-1,-1,0,0,-1022
479,5.414034,0,0,0,-2,1,-1027
480,5.42571,0,0,1,0,-1,-1026
481,5.437386,0,1,0,4,-3,-1022
482,5.448953,-1,0,-1,-2,-5,-1029
483,5.460546,-1,-1,-1,-1,-2,-1024
484,5.472108,0,0,-1,-2,-1,-1028
485,5.483696,0,0,0,2,1,-1024
486,5.495261,-1,0,0,0,0,-1020
487,5.506836,-1,0,1,2,1,-1024
488,5.518393,0,-1,0,0,-3,-1025
489,5.529957,0,0,0,-1,1,-1019
490,5.541623,0,-1,0,-1,-5,-1028
491,5.553289,0,-1,0,1,-3,-1026
492,5.564961,0,0,-1,-1,-6,-1020
493,5.576651,-1,0,0,0,-1,-1025
494,5.588317,0,0,0,1,-3,-1022
495,5.599996,-1,0,1,-2,0,-1024
496,5.61166,-1,-1,1,-1,-4,-1020
497,5.623315,0,0,0,0,-1,-1024
498,5.635003,0,0,1,1,-2,-1025
499,5.646675,-1,0,0,4,-2,-1026
500,5.65824,-1,0,0,-3,2,-1026
501,5.669795,-1,0,0,-2,-4,-1026
502,5.681346,0,1,0,-1,-4,-1023
503,5.692933,-1,-1,0,0,-3,-1022
504,5.704483,0,0,1,3,-2,-1020
505,5.716054,0,0,0,-1,3,-1021
506,5.727625,0,0,0,0,-3,-1020
507,5.739197,0,0,-1,-1,4,-1018
508,5.750846,-1,0,1,0,1,-1024
509,5.762503,-1,1,0,-1,-1,-1023
510,5.774153,0,0,-1,2,-3,-1022
511,5.785796,0,0,0,1,0,-1022
512,5.797471,-1,0,0,1,-4,-1025
513,5.809111,0,0,0,-2,-2,-1021
514,5.8208,0,-1,0,3,-1,-1024
515,5.832502,0,0,0,-2,-1,-1028
516,5.844169,0,0,0,1,-2,-1019
517,5.855845,-1,-1,0,-4,-1,-1022
518,5.867402,0,1,0,-1,1,-1022
519,5.878979,0,0,0,0,3,-1025
520,5.890558,-1,1,0,-5,-3,-1023
521,5.902117,0,0,0,2,-2,-1021
522,5.913682,0,-1,0,0,0,-1026
523,5.925226,0,0,-1,0,0,-1032
524,5.936817,0,0,0,-1,1,-1022
525,5.9484,0,0,1,2,-4,-1031
526,5.96017,1,0,0,-2,-2,-1025
527,5.971876,0,0,0,-4,-3,-1024
528,5.983528,0,0,0,-4,-2,-1021
529,5.99518,0,0,0,2,1,-1025
530,6.006875,-1,0,0,-1,3,-1017
531,6.018519,0,0,0,-1,-1,-1021
532,6.030177,0,0,0,1,-1,-1024
533,6.041858,0,-1,1,-2,2,-1029
534,6.053539,0,0,0,-2,3,-1026
535,6.065248,-1,-1,0,1,-2,-1022
536,6.076818,0,0,0,-1,-2,-1022
537,6.088381,-1,0,0,1,-4,-1024
538,6.099962,0,0,0,0,1,-1026
539,6.111478,0,0,0,-3,3,-1021
540,6.12303,-1,0,-1,-2,2,-1025
541,6.134583,0,0,-1,-1,-1,-1021
542,6.146165,-1,-1,-1,-1,0,-1020
543,6.157799,-1,0,0,-3,0,-1019
544,6.169479,-1,-1,0,2,-1,-1029
545,6.181141,0,-2,-1,0,5,-1021
546,6.192773,-1,0,0,1,-1,-1024
547,6.204437,0,-1,0,-1,-3,-1024
548,6.216136,0,0,0,1,-2,-1021
549,6.227798,0,-1,0,-2,3,-1026
550,6.239491,0,0,0,1,4,-1025
551,6.251195,-1,0,0,1,-1,-1025
552,6.262873,0,-1,0,-2,2,-1030
553,6.274445,0,-1,0,2,-2,-1022
554,6.285991,0,-1,1,2,1,-1020
555,6.297538,0,-1,-1,-5,3,-1028
556,6.309089,-1,0,0,0,1,-1020
557,6.3207,0,0,1,4,-4,-1021
558,6.33229,-1,-1,0,0,-5,-1033
559,6.343855,0,-1,0,2,-1,-1019
560,6.355412,0,0,-1,-3,-1,-1022
561,6.367082,1,0,0,-2,-2,-1028
562,6.378744,0,0,0,2,-1,-1029
563,6.390407,0,0,0,-2,3,-1020
564,6.402109,0,0,1,-2,1,-1025
565,6.413758,-1,0,1,3,-1,-1023
566,6.425416,-1,0,1,-1,0,-1030
567,6.437094,-1,0,1,-1,-1,-1021
568,6.448763,0,0,0,-1,2,-1021
569,6.46044,-2,0,0,0,1,-1025
570,6.472115,-1,0,0,-2,2,-1029
571,6.483711,-1,0,0,-1,-1,-1026
572,6.495298,0,0,1,0,3,-1021
573,6.506851,0,-1,0,-1,-1,-1025
574,6.518429,-1,-1,0,-1,3,-1023
575,6.529972,-1,-1,0,2,0,-1024
576,6.541515,-1,-1,-1,-3,0,-1024
577,6.553068,0,-1,0,4,-2,-1023
578,6.564669,-1,0,0,1,4,-1023
579,6.576311,0,0,1,2,2,-1018
580,6.588005,0,0,0,1,-1,-1028
581,6.599679,-1,0,1,-1,0,-1024
582,6.61135,0,0,0,-1,-1,-1025
583,6.623048,0,-1,0,-3,0,-1023
584,6.634719,-1,-2,0,1,0,-1020
585,6.646378,0,-1,0,0,2,-1015
586,6.658055,0,0,0,-2,2,-1018
587,6.669735,0,0,1,2,0,-1021
588,6.681398,0,-1,1,1,-1,-1019
589,6.692968,1,-1,1,-3,-2,-1020
590,6.704568,0,-1,0,4,-3,-1025
591,6.716132,-1,-1,0,-1,0,-1029
592,6.727707,0,0,0,0,2,-1022
593,6.739255,0,-1,0,4,-3,-1029
594,6.750815,0,-1,-1,-2,0,-1024
595,6.762368,0,-1,-1,-3,0,-1017
596,6.773949,0,-1,0,1,-3,-1025
597,6.785571,0,-1,0,1,-3,-1026
598,6.797232,0,0,1,-1,1,-1023
599,6.8089,0,0,1,-1,-2,-1018
600,6.82064,0,-1,-1,3,3,-1026
601,6.832297,0,0,0,2,0,-1027
602,6.843996,0,-1,0,4,2,-1023
603,6.855657,-1,0,0,0,3,-1024
604,6.867306,0,0,0,1,-2,-1025
605,6.878976,0,0,0,0,1,-1026
606,6.890645,-1,-1,0,-2,0,-1025
607,6.9022,-1,0,0,2,3,-1025
608,6.91375,-1,0,1,-2,1,-1020
609,6.925305,0,0,-1,2,0,-1022
610,6.936861,0,-1,0,-1,-6,-1026
611,6.948442,-1,0,1,4,-3,-1020
612,6.960023,-1,0,0,-2,-1,-1025
613,6.971591,0,-1,0,0,-4,-1025
614,6.98315,0,1,0,-3,2,-1021
615,6.994807,-1,0,1,3,2,-1027
616,7.006494,-1,0,0,2,-2,-1024
617,7.018152,-1,-1,0,-2,-3,-1023
618,7.029853,-1,-1,0,2,-2,-1031
619,7.041501,0,-1,1,-2,0,-1024
620,7.053151,0,-1,0,3,0,-1023
621,7.064774,0,0,0,-2,1,-1021
622,7.076455,-1,1,0,-5,-3,-1021
623,7.088198,-1,0,-1,1,3,-1026
624,7.099882,0,0,0,-2,0,-1022
625,7.111471,0,0,0,1,-2,-1029
626,7.12302,-1,0,0,-3,-2,-1030
627,7.134562,0,0,-1,-2,-2,-1028
628,7.146119,-1,0,0,3,-1,-1028
629,7.157682,0,0,0,2,0,-1029
630,7.169229,-1,-1,0,-1,1,-1025
631,7.18081,0,0,1,-2,1,-1024
632,7.192369,-1,0,0,-4,-2,-1025
633,7.204007,-1,-2,0,-2,2,-1019
634,7.215664,0,0,0,0,-1,-1024
635,7.227316,0,0,0,5,-2,-1021
636,7.238987,-1,0,0,-2,0,-1019
637,7.250634,0,-1,0,1,2,-1021
638,7.262289,0,-1,-1,-1,-1,-1022
639,7.273976,-1,0,0,2,1,-1022
640,7.285908,0,-1,0,2,0,-1022
641,7.297644,0,-1,0,0,1,-1020
642,7.309214,0,0,0,0,-1,-1025
643,7.32081,-1,0,1,1,-1,-1023
644,7.332366,0,0,0,5,0,-1030
645,7.343955,0,0,0,-2,-2,-1023
646,7.355548,0,-1,0,-3,-2,-1024
647,7.367126,0,0,1,1,-4,-1022
648,7.37869,0,0,0,-3,0,-1020
649,7.390238,0,0,0,0,1,-1024
650,7.401805,0,0,0,1,-3,-1021
651,7.413483,0,1,1,2,2,-1025
652,7.425136,0,0,0,1,-2,-1029
653,7.436782,0,0,0,0,0,-1026
654,7.448461,0,0,0,0,-2,-1023
655,7.460127,-1,1,0,-1,3,-1019
656,7.471749,-1,0,1,-1,-4,-1021
657,7.483401,0,0,0,0,0,-1022
658,7.495059,-1,0,0,0,0,-1023
659,7.50674,0,-1,0,1,-1,-1027
660,7.518397,0,0,-1,-4,-2,-1030
661,7.530068,0,0,0,0,-3,-1025
662,7.541731,-1,0,0,-3,-1,-1023
663,7.553386,-1,0,-1,-2,1,-1020
664,7.565044,-1,-1,0,-3,-4,-1024
665,7.576715,-1,0,0,-3,0,-1027
666,7.588389,0,0,-1,0,0,-1024
667,7.600127,-1,0,0,-2,-5,-1024
668,7.611803,1,1,-1,0,-2,-1024
669,7.623357,0,0,0,-2,4,-1023
670,7.634938,0,0,0,-3,2,-1020
671,7.646483,-1,0,-1,-3,0,-1022
672,7.658034,0,0,0,0,0,-1022
673,7.669592,-1,0,0,1,1,-1025
674,7.681139,0,-1,0,-6,-2,-1030
675,7.692693,1,0,0,4,-3,-1024
676,7.704274,0,-1,0,0,0,-1026
677,7.715914,-1,-2,0,2,-2,-1023
678,7.727618,-1,0,0,2,3,-1021
679,7.739295,0,0,0,-3,-1,-1021
680,7.750956,0,-1,0,1,-1,-1021
681,7.762631,0,0,0,-2,0,-1021
682,7.774289,0,-1,0,0,1,-1024
683,7.785946,0,0,-1,1,0,-1022
684,7.797613,0,0,0,0,-3,-1024
685,7.809275,0,1,0,0,0,-1015
686,7.820982,0,-1,0,1,5,-1023
687,7.832566,0,-1,-1,0,-5,-1020
688,7.844131,0,0,0,-6,2,-1023
689,7.855709,-1,-1,0,-1,0,-1021
690,7.867269,-1,0,0,-2,2,-1024
691,7.878819,0,-1,1,3,-2,-1030
692,7.890359,-1,-1,0,1,-2,-1023
693,7.901899,1,0,0,2,-1,-1026
694,7.913465,0,0,0,-3,-4,-1026
695,7.925079,0,0,0,0,-1,-1021
696,7.936771,-1,0,0,2,0,-1028
697,7.94844,-1,0,0,-3,2,-1026
698,7.960125,0,0,0,-2,0,-1025
699,7.971752,0,-1,0,2,-3,-1028
700,7.983403,-1,-1,0,-2,-3,-1020
701,7.995049,0,-1,0,0,-1,-1019
702,8.006718,-1,-1,0,-1,-1,-1029
703,8.018389,-1,0,0,-2,4,-1024
704,8.030052,-1,-1,0,2,2,-1030
705,8.041621,0,0,0,-2,-2,-1023
706,8.053171,-1,0,1,-3,3,-1021
707,8.064691,0,-1,1,-3,2,-1019
708,8.076262,0,-1,0,-5,3,-1021
709,8.08785,0,-1,0,-2,5,-1023
710,8.09949,-1,0,1,3,1,-1020
711,8.11104,-1,-1,0,-1,0,-1021
712,8.122625,0,0,0,1,-3,-1021
713,8.134254,0,-1,0,2,-6,-1022
714,8.145912,0,0,0,-1,0,-1027
715,8.157585,0,-1,-1,1,0,-1023
716,8.169238,0,0,-1,0,-1,-1023
717,8.180908,0,0,1,2,0,-1023
718,8.192587,-1,-1,0,2,-3,-1019
719,8.204264,0,0,1,2,-1,-1028
720,8.215933,0,0,0,1,-1,-1025
721,8.227638,0,0,0,-1,-3,-1026
722,8.239296,0,0,0,4,-5,-1032
723,8.250862,0,0,0,2,1,-1032
724,8.262437,0,0,0,1,-3,-1022
725,8.273983,-1,0,0,-1,-2,-1018
726,8.285552,-1,0,0,0,-1,-1019
727,8.297102,0,0,-1,1,-3,-1025
728,8.30869,0,0,0,-1,1,-1026
729,8.320244,-1,0,0,3,-1,-1030
730,8.331843,0,0,0,-2,0,-1022
731,8.343488,0,-1,0,-4,-1,-1018
732,8.355134,-1,-1,0,3,-3,-1021
733,8.36682,-1,-1,1,1,0,-1027
734,8.378587,0,-1,0,1,0,-1020
735,8.390257,0,-1,-1,3,4,-1027
736,8.401902,-1,-1,1,0,0,-1024
737,8.413551,0,-1,0,2,-2,-1020
738,8.425222,0,0,1,0,1,-1023
739,8.436915,0,1,0,-1,-2,-1022
740,8.448641,-1,0,0,3,-5,-1020
741,8.460203,-1,0,0,-1,-2,-1031
742,8.471796,0,0,-1,-1,-3,-1024
743,8.483362,0,1,0,-3,-1,-1028
744,8.494913,0,-1,0,3,0,-1015
745,8.506462,1,-1,0,-2,-1,-1028
746,8.518071,0,-1,0,3,1,-1024
747,8.529624,-1,-2,0,-2,0,-1026
748,8.541199,0,0,0,0,0,-1022
749,8.552854,0,0,0,0,0,-1027
750,8.56453,0,0,0,-4,2,-1025
751,8.576206,-1,0,0,-1,0,-1025
752,8.587876,-1,0,-1,-1,-2,-1022
753,8.59951,-1,0,-1,-6,0,-1025
754,8.611165,-1,1,0,3,3,-1020
755,8.62281,-1,0,0,0,-1,-1024
756,8.634491,0,0,0,-1,0,-1020
757,8.646161,-1,-1,-1,-4,1,-1024
758,8.657829,-1,0,0,3,1,-1026
759,8.669424,-1,-1,0,-1,-1,-1024
760,8.680978,0,0,0,-1,-2,-1018
761,8.692577,0,0,0,1,2,-1025
762,8.704127,-1,0,0,-4,-1,-1026
763,8.715712,-1,0,0,1,-3,-1020
764,8.72726,-1,-1,0,0,-3,-1027
765,8.738804,0,-1,0,-2,-2,-1020
766,8.750373,-1,0,0,1,1,-1028
767,8.762007,0,-1,0,-1,-2,-1028
768,8.773722,0,0,-1,-2,0,-1020
769,8.785386,0,-1,0,2,2,-1020
770,8.797041,0,-2,0,0,-1,-1029
771,8.808694,-1,0,0,-1,2,-1019
772,8.820385,0,-1,0,3,-2,-1023
773,8.83205,-1,-1,0,-2,-2,-1020
774,8.843758,-1,-1,0,0,1,-1020
775,8.855421,0,-1,0,3,-1,-1023
776,8.867105,0,-1,0,-1,-1,-1025
777,8.878673,0,0,0,0,-1,-1026
778,8.89023,0,-1,0,6,0,-1014
779,8.901774,-1,-1,0,0,-5,-1023
780,8.913318,0,0,0,-1,0,-1021
781,8.924877,0,0,-1,-1,1,-1022
782,8.936452,-1,0,0,-1,-1,-1024
783,8.948006,-1,-1,1,-1,-1,-1026
784,8.959607,0,-1,0,-4,0,-1027
785,8.97123,-1,0,0,-3,0,-1028
786,8.982883,0,0,1,-1,-1,-1022
787,8.994536,1,-1,0,-1,0,-1023
788,9.006196,0,-1,0,0,1,-1018
789,9.017854,0,0,0,-4,0,-1022
790,9.029513,0,0,0,4,2,-1018
791,9.041155,-1,0,0,1,-1,-1021
792,9.052776,-1,0,1,0,1,-1027
793,9.064442,-1,-1,1,0,3,-1018
794,9.076128,-1,0,0,2,-4,-1028
795,9.087788,0,-1,-1,1,-2,-1025
796,9.099434,0,0,0,2,-3,-1020
797,9.11108,0,-1,1,-2,-2,-1024
798,9.122748,0,-1,1,-2,1,-1024
799,9.134395,0,0,0,-2,-1,-1023
800,9.146072,0,0,0,-4,2,-1019
801,9.157724,1,0,0,2,2,-1026
802,9.169411,0,0,0,0,-2,-1024
803,9.18109,-1,-1,0,-2,1,-1019
804,9.1927,0,0,0,-1,0,-1021
805,9.204254,-1,0,1,1,2,-1025
806,9.21586,-1,-1,0,0,-3,-1023
807,9.227409,-1,0,0,-1,-3,-1025
808,9.238962,-1,0,1,2,-1,-1025
809,9.250551,0,-2,0,3,-2,-1020
810,9.262123,-1,-1,0,1,1,-1021
811,9.273703,0,0,0,-5,0,-1021
812,9.285319,0,0,0,-2,0,-1025
813,9.296995,0,0,0,0,0,-1024
814,9.308674,0,0,0,-2,-2,-1025
815,9.320332,0,1,1,-1,-2,-1027
816,9.332018,0,-1,0,0,-1,-1020
817,9.343675,0,0,0,-1,0,-1022
818,9.35532,-1,-1,0,0,0,-1025
819,9.366973,0,0,0,0,-2,-1020
820,9.378654,0,0,0,1,0,-1022
821,9.390325,-1,0,0,1,1,-1021
822,9.401893,0,-1,-1,1,2,-1022
823,9.413465,0,0,0,-3,1,-1018
824,9.425066,0,0,-1,2,2,-1024
825,9.43662,0,-1,-1,-4,-2,-1025
826,9.448207,0,0,-1,0,3,-1023
827,9.459756,0,-1,0,2,-1,-1024
828,9.471301,0,0,0,0,-1,-1022
829,9.482867,0,-2,1,-1,-1,-1018
830,9.494501,-1,-1,1,2,-1,-1022
831,9.506154,-1,0,0,3,-3,-1023
832,9.517808,0,-1,0,0,-1,-1022
833,9.529471,0,1,0,-2,0,-1025
834,9.541131,0,1,0,-1,-1,-1018
835,9.552792,0,-1,1,1,3,-1022
836,9.564447,0,-1,-1,-1,0,-1028
837,9.576149,0,-1,0,-1,-1,-1023
838,9.587841,0,-1,0,-2,-3,-1025
839,9.599519,-1,-1,0,1,-2,-1020
840,9.611086,0,-1,0,-4,1,-1017
841,9.622639,0,0,0,2,1,-1025
842,9.634201,0,-1,0,1,-3,-1023
843,9.645752,0,-1,0,-4,1,-1025
844,9.657305,0,-1,0,-3,5,-1027
845,9.668865,-1,-1,0,2,-1,-1024
846,9.680453,0,0,0,-1,0,-1029
847,9.692029,0,-1,1,2,-1,-1030
848,9.703649,0,0,0,7,-1,-1028
849,9.715313,0,0,0,1,0,-1021
850,9.726964,0,-1,0,-2,1,-1023
851,9.738628,0,0,-1,0,-1,-1026
852,9.750282,0,0,-1,3,0,-1024
853,9.761969,-1,0,0,3,-3,-1025
854,9.773626,-1,0,-1,-2,1,-1025
855,9.785281,-1,0,0,2,-1,-1028
856,9.796947,0,-1,0,-2,1,-1023
857,9.808633,-1,0,-1,3,4,-1026
858,9.820217,-1,0,0,0,-3,-1028
859,9.831802,0,0,0,1,-1,-1023
860,9.843356,0,0,0,1,2,-1028
861,9.854948,0,0,0,0,-3,-1023
862,9.866489,0,0,0,0,0,-1028
863,9.878032,-1,-1,0,2,-1,-1026
864,9.889588,-1,0,-1,-1,2,-1019
865,9.901138,-1,0,0,0,-3,-1021
866,9.912769,-1,0,-1,0,0,-1020
867,9.924433,0,-1,0,-5,-3,-1019
868,9.936142,-1,0,0,1,-1,-1024
869,9.947796,-1,-1,1,-3,1,-1026
870,9.959524,0,0,0,1,-1,-1023
871,9.971183,0,0,0,0,3,-1027
872,9.982829,-1,-1,0,4,1,-1025
873,9.994502,0,-1,0,0,1,-1022
874,10.006154,0,0,-1,-1,-1,-1019
875,10.01772,-1,0,0,-2,-1,-1027
876,10.029301,-1,0,0,1,1,-1025
877,10.040853,0,0,0,-2,-1,-1022
878,10.052453,0,0,0,-1,3,-1028
879,10.064005,-1,-1,0,0,-1,-1022
880,10.07555,-1,-1,0,0,-1,-1026
881,10.087093,0,0,0,-1,0,-1025
882,10.098671,0,-1,-1,2,1,-1022
883,10.110296,0,-1,0,3,1,-1021
884,10.121968,0,-1,-1,0,0,-1031
885,10.133628,-1,-1,0,2,0,-1024
886,10.145282,-1,0,-1,-2,0,-1021
887,10.156948,-1,-1,0,0,-1,-1025
888,10.168667,-1,1,0,-4,-1,-1025
889,10.180325,-1,1,1,1,1,-1021
890,10.192019,0,0,1,-4,-4,-1030
891,10.203689,0,-1,-1,3,1,-1021
892,10.215347,0,0,0,-1,0,-1025
893,10.22692,0,0,0,1,-2,-1027
894,10.238478,0,0,0,0,-3,-1032
895,10.250053,0,-1,0,-1,0,-1022
896,10.261605,0,0,0,4,-2,-1020
897,10.273192,0,-1,0,-5,-1,-1018
898,10.284752,0,-1,-1,1,-2,-1028
899,10.296335,0,-1,0,0,0,-1023
900,10.307896,0,0,0,1,4,-1028
901,10.319529,0,-1,0,0,-1,-1022
902,10.331214,0,-1,0,-2,-1,-1021
903,10.342875,-1,-1,0,-5,-1,-1020
904,10.354533,0,0,-1,-2,-2,-1018
905,10.366203,0,-1,0,-3,-2,-1018
906,10.377877,-1,0,-1,1,1,-1031
907,10.38953,0,0,0,-2,0,-1028
908,10.401183,0,0,0,-2,-3,-1026
909,10.412851,0,0,0,2,-3,-1019
910,10.42446,-1,-1,0,-2,0,-1021
911,10.436017,0,-1,0,-3,0,-1024
912,10.4476,0,0,0,-1,-4,-1018
913,10.459144,-1,0,0,-2,1,-1022
914,10.470693,-1,-1,0,-4,2,-1020
915,10.482244,0,0,0,1,1,-1017
916,10.493789,0,0,0,-3,-1,-1025
917,10.505336,0,-1,0,1,2,-1020
918,10.516958,-1,0,0,1,-3,-1025
919,10.528651,-1,0,1,-1,-4,-1023
920,10.540315,0,0,1,-1,1,-1025
921,10.551997,0,-1,0,0,3,-1028
922,10.563653,0,-1,-1,-1,-2,-1017
923,10.575306,-1,0,0,0,-6,-1027
924,10.586979,0,1,0,1,0,-1025
925,10.598631,0,0,0,0,-2,-1025
926,10.610298,0,0,-1,1,3,-1025
927,10.62198,-1,-1,-1,-3,-3,-1024
928,10.633639,0,0,-1,0,-1,-1026
929,10.645293,0,1,-1,-2,-2,-1028
930,10.656965,0,0,0,2,-5,-1026
931,10.668646,-1,0,1,-1,2,-1021
932,10.680303,-1,0,0,-2,1,-1026
933,10.691999,0,0,0,-3,-3,-1021
934,10.703685,-1,1,0,0,-1,-1018
935,10.715409,-1,-1,0,3,-1,-1016
936,10.727075,0,0,0,0,-3,-1026
937,10.73863,0,-1,1,-1,-5,-1026
938,10.750204,0,0,0,-3,-1,-1028
939,10.761757,-1,0,0,-2,1,-1020
940,10.773329,-1,0,0,3,0,-1022
941,10.784906,-1,0,-1,2,0,-1021
942,10.796462,-1,-1,0,2,-1,-1020
943,10.808005,-1,-1,0,-3,-1,-1024
944,10.819559,-1,0,-1,-1,-4,-1023
945,10.831175,0,0,0,0,1,-1024
946,10.842855,-1,0,0,1,2,-1028
947,10.854517,-1,-1,0,-1,-1,-1016
948,10.866169,-1,0,1,-2,-2,-1022
949,10.877841,-1,-1,0,2,4,-1027
950,10.889511,0,0,0,4,1,-1019
951,10.901165,-1,0,1,1,-1,-1024
952,10.912823,-1,0,0,0,-2,-1021
953,10.924534,-1,0,0,2,-3,-1025
954,10.936245,-1,0,0,-1,1,-1025
955,10.94785,0,-1,0,2,1,-1025
956,10.959394,-1,0,0,0,-1,-1022
957,10.970946,0,0,0,2,1,-1021
958,10.98249,0,0,0,1,2,-1030
959,10.994036,0,0,-1,0,-2,-1024
960,11.005587,0,0,0,3,0,-1024
961,11.017143,0,0,0,0,-1,-1022
962,11.028725,-1,0,0,-3,-3,-1018
963,11.040393,0,0,-1,4,-1,-1022
964,11.052059,0,-1,0,0,-1,-1020
965,11.0638,-1,-1,1,0,3,-1021
966,11.075483,0,-1,0,5,-3,-1027
967,11.087136,-1,0,0,1,-5,-1025
968,11.098787,0,-1,1,1,1,-1026
969,11.110432,0,0,0,-2,-1,-1017
970,11.122101,-1,0,-1,0,1,-1029
971,11.133767,0,-1,0,3,0,-1024
972,11.145422,0,0,0,2,0,-1031
973,11.156978,0,0,0,-1,-1,-1019
974,11.168584,0,-1,-1,-2,0,-1023
975,11.180133,0,0,-1,-3,-2,-1018
976,11.191725,0,0,1,4,0,-1026
977,11.203271,0,1,1,1,-1,-1023
978,11.214824,0,0,0,0,2,-1022
979,11.226376,-1,-1,0,-2,-1,-1020
980,11.237987,0,-1,0,-1,-3,-1021
981,11.249641,0,0,0,-1,-1,-1023
982,11.261301,0,0,0,0,-4,-1017
983,11.272955,-1,-1,-1,0,0,-1023
984,11.284653,-1,-1,0,0,0,-1022
985,11.296309,-1,0,0,-5,-1,-1022
986,11.308002,0,-1,0,0,-3,-1016
987,11.319658,0,0,0,0,-1,-1019
988,11.331314,-1,0,0,-2,-1,-1023
989,11.342976,0,0,0,-1,-1,-1022
990,11.354654,0,0,0,1,0,-1021
991,11.366222,0,0,0,-3,-5,-1027
992,11.377773,0,0,1,1,0,-1021
993,11.389328,-1,-1,-1,2,1,-1028
994,11.400925,0,-1,0,-2,-2,-1026
995,11.412482,0,0,-1,1,-1,-1026
996,11.424107,0,0,0,1,0,-1027
997,11.435746,0,0,0,3,0,-1026
998,11.447313,0,0,0,2,1,-1031
999,11.45901,0,0,0,2,1,-1020
1000,11.470671,-1,1,0,-1,-4,-1020
1001,11.482337,-1,0,0,-1,-1,-1023
1002,11.494002,-1,-1,0,0,3,-1030
1003,11.505653,-1,-1,0,1,-2,-1026
1004,11.517304,0,-1,0,-2,0,-1023
1005,11.528952,0,-1,0,-1,-1,-1014
1006,11.540645,0,0,0,-3,-1,-1027
1007,11.552322,0,0,1,0,-1,-1020
1008,11.564008,0,0,0,-1,0,-1027
1009,11.575665,0,0,0,3,-4,-1024
1010,11.587322,0,0,0,2,1,-1022
1011,11.59897,0,1,0,-1,-1,-1022
1012,11.610635,-1,0,0,1,-2,-1024
1013,11.622288,-1,0,0,0,0,-1021
1014,11.633935,-1,0,-1,0,-3,-1027
1015,11.645603,0,0,0,3,-2,-1020
1016,11.657281,0,0,0,-1,-1,-1032
1017,11.668946,0,0,0,0,3,-1021
1018,11.680643,0,0,0,1,1,-1027
1019,11.692301,-1,0,0,2,-1,-1022
1020,11.703994,0,0,1,2,-1,-1025
1021,11.715652,0,0,0,-3,-1,-1029
1022,11.727328,0,0,-1,3,-4,-1024
1023,11.739005,-1,-1,1,-5,1,-1030
1024,11.750661,-1,-1,1,-1,-1,-1024
1025,11.762394,0,0,0,0,3,-1026
1026,11.774059,-1,0,0,-3,0,-1021
1027,11.785612,-1,-1,1,0,-2,-1023
1028,11.797194,-1,-1,0,-4,-1,-1023
1029,11.808772,-1,0,-1,-1,1,-1024
1030,11.820344,0,-1,-1,-2,0,-1017
1031,11.831896,0,1,0,-3,-2,-1019
1032,11.843473,0,0,0,-1,-1,-1024
1033,11.855016,0,0,0,1,1,-1029
1034,11.866597,0,-1,0,0,1,-1029
1035,11.878217,-1,0,1,0,3,-1016
1036,11.889887,-1,-1,-1,-2,1,-1023
1037,11.90154,0,-1,0,1,-1,-1026
1038,11.913198,0,-1,0,0,1,-1025
1039,11.924872,0,-1,0,2,-1,-1024
1040,11.936523,0,-1,-1,4,3,-1021
1041,11.948182,-1,-1,1,1,-2,-1027
1042,11.959878,-1,-1,0,-2,0,-1026
1043,11.971545,-1,-2,0,-1,-2,-1023
1044,11.983211,-1,0,0,1,-3,-1018
1045,11.994772,0,0,0,1,-4,-1020
1046,12.006329,0,-1,0,1,1,-1019
1047,12.01788,0,0,0,2,-1,-1023
1048,12.029436,-1,-1,0,1,-2,-1021
1049,12.040989,0,0,0,3,-2,-1024
1050,12.052592,0,-1,0,0,0,-1022
1051,12.064139,0,0,0,0,0,-1018
1052,12.075731,-1,0,-1,-1,1,-1025
1053,12.08738,-1,-1,0,-2,-2,-1020
1054,12.099045,0,-1,0,-2,1,-1028
1055,12.110702,0,0,1,-2,0,-1018
1056,12.122377,-1,0,-1,-5,1,-1024
1057,12.134033,0,-1,-1,-2,1,-1023
1058,12.145683,-1,-1,0,1,-1,-1028
1059,12.157347,0,0,1,1,-2,-1023
1060,12.169038,0,0,0,2,-2,-1017
1061,12.180739,-1,0,-1,-1,3,-1022
1062,12.19241,-1,0,0,0,0,-1023
1063,12.203978,-1,0,0,1,-1,-1023
1064,12.215555,-1,0,0,-1,-1,-1031
1065,12.227122,0,0,0,0,-2,-1025
1066,12.238678,-1,0,0,-1,0,-1023
1067,12.250233,-1,0,1,0,0,-1025
1068,12.261778,0,0,0,1,3,-1026
1069,12.273322,0,0,0,-3,1,-1022
1070,12.284889,0,-1,0,-3,0,-1023
1071,12.296513,0,0,0,1,-4,-1022
1072,12.308172,-1,0,0,-1,2,-1022
1073,12.319867,0,0,1,3,-1,-1024
1074,12.331525,0,0,0,0,-1,-1022
1075,12.343176,0,-1,1,1,-4,-1021
1076,12.354826,0,0,0,1,1,-1025
1077,12.366474,0,-1,0,0,0,-1022
1078,12.378136,0,0,0,5,1,-1030
1079,12.389803,-1,-1,-1,-1,-3,-1019
1080,12.40147,0,-1,1,1,0,-1020
1081,12.413031,0,-1,0,0,1,-1026
1082,12.424592,0,0,0,4,-3,-1020
1083,12.436151,0,0,0,0,3,-1025
1084,12.447736,0,0,0,0,-1,-1019
1085,12.459321,-1,0,0,1,-4,-1023
1086,12.470874,0,0,0,-2,1,-1026
1087,12.482466,0,-1,-1,-3,0,-1025
1088,12.494019,-1,-1,0,1,-1,-1022
1089,12.505654,-1,0,1,0,-1,-1023
1090,12.517306,-1,0,0,2,2,-1019
1091,12.528965,-1,0,0,-5,1,-1023
1092,12.540678,-1,0,1,0,-1,-1020
1093,12.552393,0,0,0,0,-3,-1021
1094,12.564063,0,-1,0,0,4,-1024
1095,12.575762,0,-1,0,1,0,-1023
1096,12.587421,-1,0,0,-2,0,-1027
1097,12.599089,-1,0,0,-2,5,-1026
1098,12.61077,0,0,1,-3,2,-1021
1099,12.622349,0,0,0,-2,0,-1019
1100,12.633918,0,0,0,-2,-1,-1022
1101,12.645484,0,0,0,-1,-3,-1027
1102,12.657052,0,-1,0,0,0,-1024
1103,12.668605,0,-1,-1,2,2,-1025
1104,12.680179,0,0,0,-3,3,-1015
1105,12.691728,-1,0,0,-1,-4,-1030
1106,12.703284,-1,-1,1,0,2,-1025
1107,12.71493,-1,0,0,-3,0,-1024
1108,12.726614,-1,-1,0,0,-1,-1023
1109,12.738285,0,-1,0,0,0,-1021
1110,12.74994,0,0,0,2,2,-1026
1111,12.761593,0,0,1,0,0,-1022
1112,12.773243,-1,0,0,-2,-1,-1025
1113,12.784959,-1,-1,0,1,-1,-1021
1114,12.796676,0,0,-1,-4,0,-1017
1115,12.808334,0,-1,1,2,0,-1024
1116,12.820012,0,-1,-1,4,0,-1020
1117,12.831672,0,-1,0,-1,-3,-1022
1118,12.84332,0,-1,-1,-4,-3,-1029
1119,12.854975,0,0,0,-2,1,-1029
1120,12.866671,0,-1,0,-2,-2,-1019
1121,12.87832,0,-1,0,0,-4,-1029
1122,12.889984,0,-1,0,2,1,-1027
1123,12.901639,0,-2,1,-2,0,-1026
1124,12.913302,-1,0,1,2,-5,-1031
1125,12.925009,-1,0,0,-1,0,-1023
1126,12.936575,-1,0,0,-3,5,-1023
1127,12.948134,0,-1,0,1,-3,-1025
1128,12.959728,-1,-1,0,-4,3,-1022
1129,12.971283,0,0,0,-1,0,-1029
1130,12.982848,0,0,0,2,-2,-1025
1131,12.994394,-1,-1,0,3,-4,-1021
1132,13.005936,-1,0,-1,-1,-4,-1025
1133,13.017503,0,0,0,-2,1,-1021
1134,13.02917,0,0,-1,-1,-2,-1022
1135,13.040836,-1,0,0,-2,4,-1026
1136,13.052541,-1,-1,0,-2,1,-1027
1137,13.064252,0,-1,-1,0,-1,-1022
1138,13.075921,0,0,0,-2,-1,-1025
1139,13.087636,0,-1,0,-2,1,-1023
1140,13.09929,0,1,0,0,1,-1029
1141,13.110947,-1,-1,0,-2,-4,-1018
1142,13.122608,0,0,0,-1,-3,-1024
1143,13.134285,0,0,0,0,2,-1022
1144,13.145846,-1,0,0,0,0,-1019
1145,13.157403,0,0,0,-4,3,-1023
1146,13.168974,-1,-1,0,-3,2,-1018
1147,13.180569,-1,0,0,-2,-4,-1026
1148,13.192119,-1,0,0,-1,4,-1023
1149,13.203662,0,0,1,-3,0,-1018
1150,13.215235,0,-1,0,-2,-1,-1025
1151,13.226793,-1,0,1,-3,-3,-1019
1152,13.238444,-1,0,0,2,5,-1016
1153,13.250125,0,0,0,-2,-1,-1026
1154,13.261784,0,0,0,3,0,-1020
1155,13.273441,0,0,0,2,-2,-1029
1156,13.285164,-1,0,0,0,5,-1021
1157,13.297046,-1,-1,1,-1,2,-1022
1158,13.308719,1,0,0,-2,-1,-1019
1159,13.320408,0,0,0,-6,-1,-1017
1160,13.3322,0,0,0,-4,0,-1020
1161,13.343889,0,-1,0,0,-1,-1020
1162,13.355483,0,-1,1,0,-2,-1024
1163,13.367061,0,0,1,-6,-1,-1027
1164,13.378619,0,0,0,1,4,-1023
1165,13.39017,-1,0,1,1,-2,-1034
1166,13.401737,-1,0,0,-5,-1,-1024
1167,13.413293,-1,0,0,0,3,-1022
1168,13.424858,0,-1,0,1,-1,-1023
1169,13.436462,-1,0,0,-5,0,-1019
1170,13.448151,-1,0,-1,0,0,-1025
1171,13.459814,0,0,0,-1,2,-1023
1172,13.471504,0,0,0,2,-1,-1023
1173,13.483182,0,-1,0,-4,-5,-1024
1174,13.494835,0,0,0,1,-8,-1024
1175,13.506514,0,0,0,1,-3,-1025
1176,13.518173,-1,0,-1,1,2,-1026
1177,13.529851,0,0,0,-3,-3,-1022
1178,13.541608,-1,0,0,-4,-7,-1020
1179,13.553192,-1,0,0,4,-1,-1023
1180,13.564744,-1,0,1,2,-3,-1027
1181,13.57635,0,0,0,-3,0,-1023
1182,13.587898,0,0,0,1,-3,-1022
1183,13.599483,-1,-2,-1,0,-1,-1020
1184,13.611032,0,0,0,-1,1,-1022
1185,13.622584,0,0,0,-4,0,-1029
1186,13.634138,0,-1,0,-2,-3,-1034
1187,13.645738,0,0,0,-2,1,-1019
1188,13.657427,0,-1,0,-3,2,-1025
1189,13.669123,0,0,-1,-1,-1,-1023
1190,13.6808,0,0,-1,2,-4,-1024
1191,13.692521,1,0,0,0,2,-1027
1192,13.704183,0,0,-1,-3,0,-1030
1193,13.715894,0,0,0,1,-1,-1026
1194,13.727545,-1,0,0,3,0,-1022
1195,13.739199,-1,0,0,1,-1,-1023
1196,13.750898,0,0,0,0,1,-1022
1197,13.762581,-1,0,-1,0,-1,-1019
1198,13.774146,-1,0,0,0,-1,-1020
1199,13.785726,0,0,0,-1,-1,-1024
1200,13.797291,0,-1,0,-3,-1,-1018
1201,13.809009,-1,0,1,-1,1,-1025
1202,13.820605,-1,-1,0,-1,1,-1023
1203,13.832186,-1,0,0,-3,-2,-1020
1204,13.84372,0,-1,0,0,0,-1025
1205,13.855284,0,0,0,0,3,-1026
1206,13.866844,-1,0,0,2,1,-1020
1207,13.878401,-1,-1,0,1,2,-1025
1208,13.889974,-1,-1,-1,-1,2,-1019
1209,13.901533,0,0,0,0,-3,-1024
1210,13.913085,-1,-1,0,-3,-1,-1026
1211,13.924673,1,-1,0,2,1,-1024
1212,13.93622,0,-1,0,0,-3,-1023
1213,13.947784,0,-1,-1,2,-3,-1022
1214,13.95944,0,0,-1,4,-5,-1023
1215,13.971095,-1,0,-1,1,-2,-1020
1216,13.982781,0,0,0,4,-1,-1022
1217,13.994433,0,-1,0,-3,2,-1020
1218,14.006088,-1,-1,1,-1,1,-1021
1219,14.017749,0,0,0,-2,-2,-1023
1220,14.029434,0,0,-1,-4,-4,-1025
1221,14.041083,0,0,0,-1,3,-1024
1222,14.052784,0,0,0,3,-2,-1021
1223,14.064475,0,-1,1,2,0,-1025
1224,14.07615,-1,-1,0,2,0,-1026
1225,14.087808,-1,0,0,-1,-2,-1016
1226,14.099481,0,0,0,-3,-1,-1018
1227,14.111137,-1,-1,0,1,1,-1025
1228,14.122807,-1,-1,0,-4,0,-1022
1229,14.134465,-1,-1,0,2,1,-1021
1230,14.146165,-1,-1,0,2,0,-1024
1231,14.157814,-1,0,1,-2,2,-1024
1232,14.169545,0,-1,1,-4,2,-1026
1233,14.181211,0,-1,0,0,1,-1021
1234,14.192811,0,0,-1,-1,0,-1019
1235,14.204372,0,0,1,0,1,-1029
1236,14.215966,0,0,1,1,-4,-1026
1237,14.227531,-1,0,0,-1,2,-1021
1238,14.239103,-1,-1,0,0,-1,-1020
1239,14.250662,0,-1,0,-2,-4,-1020
1240,14.26224,0,-1,1,3,0,-1019
1241,14.273802,0,0,1,-2,-2,-1026
1242,14.285424,0,0,0,-4,-3,-1021
1243,14.297086,-1,0,0,-1,3,-1026
1244,14.30878,-1,1,0,-1,-1,-1017
1245,14.320444,0,-1,0,-2,-5,-1019
1246,14.332136,0,-1,0,-1,0,-1027
1247,14.343793,-1,1,0,-2,1,-1015
1248,14.355466,0,0,0,0,0,-1023
1249,14.36714,0,0,0,2,-3,-1022
1250,14.378792,0,0,0,-3,0,-1021
1251,14.390386,-1,0,0,1,-5,-1019
1252,14.40199,-1,0,0,0,-3,-1022
1253,14.413547,-1,-1,0,3,0,-1038
1254,14.425113,0,0,0,-1,2,-1024
1255,14.436688,-1,0,-1,2,-2,-1021
1256,14.448242,-1,-1,0,4,-1,-1025
1257,14.459795,-1,0,0,-2,0,-1027
1258,14.471389,-1,0,0,-3,-3,-1021
1259,14.482979,-1,-1,0,1,-2,-1022
1260,14.494678,0,-1,0,-5,-1,-1022
1261,14.506358,-1,0,0,-2,2,-1023
1262,14.518043,0,0,-1,-4,-2,-1024
1263,14.529699,0,-1,0,0,-1,-1021
1264,14.541372,-1,-1,0,-1,2,-1029
1265,14.553034,0,-1,0,-1,-1,-1028
1266,14.564688,0,0,-1,-1,1,-1022
1267,14.576392,0,-1,0,-2,3,-1022
1268,14.588069,-1,0,0,-2,-1,-1021
1269,14.599729,0,-1,0,1,-1,-1019
1270,14.611286,0,0,0,0,-1,-1016
1271,14.622859,-1,0,0,1,-1,-1027
1272,14.634408,0,0,-1,3,-1,-1021
1273,14.645974,0,0,0,-1,0,-1023
1274,14.657525,0,-1,0,5,0,-1020
1275,14.669069,0,1,0,0,3,-1024
1276,14.680652,0,0,0,1,-4,-1026
1277,14.692224,0,-1,1,2,2,-1022
1278,14.70383,0,-1,0,1,0,-1025
1279,14.715492,0,-1,0,-1,0,-1013
1280,14.727148,0,0,0,1,2,-1026
1281,14.738801,0,-1,0,-5,-5,-1016
1282,14.750448,-1,-1,0,0,0,-1027
1283,14.762093,0,-1,0,-4,-1,-1027
1284,14.773792,0,-1,0,1,2,-1029
1285,14.78544,0,0,0,-3,-1,-1027
1286,14.797106,0,0,0,6,1,-1024
1287,14.808783,0,0,-1,3,1,-1020
1288,14.820374,0,-1,0,2,1,-1030
1289,14.831962,-1,0,0,0,-5,-1026
1290,14.843513,-1,-1,0,-3,-1,-1022
1291,14.855062,0,0,-1,0,2,-1029
1292,14.866613,0,0,0,-3,0,-1023
1293,14.878162,-1,0,0,1,-3,-1022
1294,14.889733,-1,-1,0,2,1,-1027
1295,14.901303,0,0,0,2,-1,-1020
1296,14.912949,0,0,-1,2,1,-1018
1297,14.924633,0,0,-1,-3,2,-1026
1298,14.936278,-1,0,-1,-3,-6,-1026
1299,14.947931,0,0,1,0,-5,-1021
1300,14.959624,0,-1,-1,0,1,-1028
1301,14.971277,0,1,0,-3,1,-1027
1302,14.982933,-1,0,1,1,0,-1021
1303,14.994584,0,-1,0,0,-3,-1021
1304,15.006244,-1,-1,0,2,1,-1022
1305,15.017923,0,0,0,1,-3,-1027
1306,15.029493,0,0,0,-3,-1,-1021
1307,15.041043,0,0,1,3,-1,-1022
1308,15.052603,0,-1,0,2,-3,-1018
1309,15.064182,0,0,0,-3,-2,-1026
1310,15.075737,0,0,0,-2,-1,-1027
1311,15.087289,0,0,0,0,0,-1023
1312,15.098864,0,0,-1,-4,1,-1025
1313,15.110424,0,-1,0,2,3,-1027
1314,15.122044,0,0,0,2,0,-1030
1315,15.133715,0,-1,0,2,-1,-1024
1316,15.145399,0,0,0,-2,0,-1026
1317,15.157063,-1,0,0,-2,0,-1026
1318,15.168795,0,0,0,-1,3,-1022
1319,15.180502,0,0,0,-4,-4,-1028
1320,15.192189,0,-1,0,1,1,-1022
1321,15.203871,0,0,1,0,-1,-1029
1322,15.215559,-1,-1,0,1,3,-1022
1323,15.227229,0,0,0,2,-3,-1021
1324,15.238787,0,-1,0,1,2,-1022
1325,15.250351,0,0,0,-3,1,-1024
1326,15.261906,0,0,-1,-1,1,-1027
1327,15.273463,0,-1,0,-1,0,-1020
1328,15.285052,-1,0,-1,-8,-1,-1021
1329,15.296612,0,-1,0,-2,0,-1024
1330,15.308211,-1,0,0,0,2,-1026
1331,15.319782,0,-1,0,1,-3,-1028
1332,15.331361,0,-1,1,-1,1,-1023
1333,15.342905,0,0,-1,-1,-1,-1012
1334,15.354459,0,-1,1,4,-1,-1024
1335,15.366009,0,0,1,2,-1,-1022
1336,15.377555,0,0,0,-3,-3,-1029
1337,15.389103,0,0,0,0,-3,-1020
1338,15.400681,0,-1,0,-4,-2,-1017
1339,15.412214,0,-1,1,0,-1,-1025
1340,15.42384,0,0,1,1,-5,-1019
1341,15.435486,0,0,0,0,-3,-1023
1342,15.447153,0,0,0,-2,-3,-1021
1343,15.458817,-1,0,0,0,0,-1023
1344,15.470473,-1,0,0,1,0,-1023
1345,15.482149,-1,0,0,2,-4,-1020
1346,15.493805,-1,0,0,0,1,-1025
1347,15.505461,0,1,-1,-1,1,-1024
1348,15.517164,0,0,0,-2,2,-1017
1349,15.528842,0,-1,0,0,-3,-1020
1350,15.540533,0,-1,0,-6,-3,-1028
1351,15.552185,0,0,0,2,-3,-1023
1352,15.563864,-1,-1,0,2,-2,-1016
1353,15.57555,0,-1,0,-1,-1,-1022
1354,15.587198,-1,0,0,0,-1,-1030
1355,15.598851,0,-1,0,3,-3,-1021
1356,15.610523,-1,-1,-1,0,-4,-1015
1357,15.622179,0,0,-1,-2,-1,-1022
1358,15.633861,0,0,0,-3,1,-1025
1359,15.645543,0,0,1,-3,-1,-1020
1360,15.657212,0,0,0,-5,-5,-1023
1361,15.668903,0,-1,0,-1,1,-1027
1362,15.680569,-1,0,0,0,-2,-1027
1363,15.692247,0,0,0,4,4,-1029
1364,15.703922,-1,0,0,1,1,-1027
1365,15.715597,0,0,-1,-2,-1,-1017
1366,15.727271,-1,0,0,1,-1,-1024
1367,15.73899,-1,0,0,-2,-5,-1023
1368,15.750622,0,-1,0,2,-2,-1021
1369,15.762171,-1,0,0,-2,1,-1026
1370,15.773721,0,-1,0,-1,2,-1023
1371,15.785272,0,1,0,-1,0,-1020
1372,15.796835,0,0,0,2,-4,-1023
1373,15.808385,0,-1,-1,-3,0,-1024
1374,15.819968,0,0,0,1,-2,-1024
1375,15.831533,0,-1,0,0,-3,-1028
1376,15.843122,0,0,0,3,5,-1022
1377,15.854745,0,0,1,-2,-2,-1026
1378,15.866417,0,0,0,2,-2,-1020
1379,15.878066,0,-1,1,2,-1,-1020
1380,15.889747,0,0,1,1,-2,-1020
1381,15.901421,0,0,0,0,0,-1025
1382,15.913076,-1,0,1,1,-1,-1032
1383,15.924784,0,-2,0,-3,2,-1024
1384,15.936446,0,0,0,-3,-4,-1024
1385,15.948133,0,0,0,0,-7,-1022
1386,15.959805,-1,-1,-1,0,-3,-1028
1387,15.971378,0,-1,0,1,0,-1020
1388,15.98293,-1,0,1,-1,-1,-1020
1389,15.994502,0,-1,0,4,-1,-1025
1390,16.006112,0,-1,0,2,1,-1025
1391,16.017677,-1,-1,0,0,0,-1018
1392,16.02925,0,-1,0,1,1,-1020
1393,16.040823,0,-1,0,-2,-1,-1021
1394,16.052396,0,-1,0,6,-3,-1018
1395,16.064063,0,-1,0,1,-1,-1021
1396,16.075762,-1,0,0,1,-3,-1026
1397,16.087446,0,-1,0,-5,-2,-1028
1398,16.099123,-1,-1,0,-2,0,-1024
1399,16.110799,0,-1,0,0,-3,-1029
1400,16.122458,0,0,-1,-2,-3,-1023
1401,16.134133,0,0,0,0,4,-1026
1402,16.145822,0,1,-1,-4,-2,-1022
1403,16.157493,0,0,0,-4,-3,-1028
1404,16.169166,0,0,0,-3,-4,-1021
1405,16.180743,-1,0,0,5,2,-1020
1406,16.19232,0,-1,0,3,0,-1026
1407,16.203891,0,0,0,-3,5,-1024
1408,16.215468,0,0,-1,4,-1,-1019
1409,16.227016,0,0,0,2,-2,-1022
1410,16.238617,0,-1,0,2,2,-1016
1411,16.250169,0,0,0,-3,-1,-1021
1412,16.261767,-1,0,1,-1,-1,-1022
1413,16.273384,0,0,1,2,2,-1022
1414,16.285049,0,0,-1,6,6,-1023
1415,16.296703,0,0,0,1,0,-1025
1416,16.308387,-1,0,0,-4,-1,-1022
1417,16.320063,0,0,0,-3,2,-1027
1418,16.331742,0,-1,1,-2,-1,-1023
1419,16.343387,0,-1,0,0,2,-1023
1420,16.355062,0,-1,0,1,-3,-1024
1421,16.36673,0,0,0,-1,0,-1017
1422,16.37841,0,-1,0,-2,-2,-1028
1423,16.39,0,0,0,-2,-2,-1026
1424,16.401573,-1,0,1,-7,0,-1021
1425,16.413174,0,-1,1,3,0,-1023
1426,16.424746,0,0,0,-2,-1,-1026
1427,16.436318,0,0,0,-3,-3,-1030
1428,16.447878,0,1,0,-1,-2,-1024
1429,16.459442,0,0,-1,-1,6,-1023
1430,16.471027,0,-1,0,1,1,-1026
1431,16.482708,1,0,0,-5,-2,-1026
1432,16.49437,-1,1,1,1,2,-1020
1433,16.506051,-1,0,0,-5,0,-1018
1434,16.5177,-1,0,0,-2,3,-1025
1435,16.529381,-1,-1,0,3,-1,-1023
1436,16.54105,-1,0,1,2,-8,-1022
1437,16.552701,-1,0,1,-2,-4,-1025
1438,16.564375,0,0,1,1,-1,-1020
1439,16.576066,0,0,1,-4,0,-1014
1440,16.587723,-1,0,0,-1,-1,-1025
1441,16.599297,-1,0,0,1,2,-1022
1442,16.610898,0,0,0,1,0,-1024
1443,16.622479,0,0,0,4,-3,-1025
1444,16.634089,-1,-1,0,-1,-3,-1027
1445,16.645647,-1,-1,0,-2,5,-1020
1446,16.657226,-1,0,-1,-2,1,-1027
1447,16.668812,0,-1,0,2,2,-1024
1448,16.680396,0,0,0,2,0,-1025
1449,16.692078,0,-1,0,1,1,-1022
1450,16.70377,0,-1,0,-2,2,-1023
1451,16.71546,0,-1,0,-3,3,-1025
1452,16.727108,0,0,0,-3,0,-1019
1453,16.738778,-1,0,1,-3,-1,-1020
1454,16.750437,0,0,0,0,0,-1026
1455,16.762097,0,0,1,0,3,-1022
1456,16.773774,-1,-1,0,1,-3,-1027
1457,16.785461,0,-1,0,2,1,-1025
1458,16.797139,0,-1,0,-1,-6,-1023
1459,16.808696,0,0,0,2,-1,-1018
1460,16.82026,0,0,1,-5,2,-1027
1461,16.83184,0,0,0,2,2,-1022
1462,16.843398,0,0,-1,-1,1,-1027
1463,16.854969,-1,-1,0,4,-1,-1023
1464,16.866525,-1,0,0,2,0,-1024
1465,16.878136,0,0,0,-1,-6,-1026
1466,16.889711,-1,0,0,-1,-1,-1024
1467,16.901327,1,0,-1,4,3,-1024
1468,16.913045,0,-1,0,1,0,-1027
1469,16.924706,0,0,-1,-1,3,-1020
1470,16.936407,0,1,0,4,-2,-1020
1471,16.948066,-1,1,0,-5,-1,-1025
1472,16.959739,-1,-1,1,0,-3,-1027
1473,16.971414,0,0,0,0,-4,-1022
1474,16.983073,-1,0,0,-3,3,-1025
1475,16.994774,0,-1,1,0,2,-1021
1476,17.006433,-1,-1,0,2,1,-1021
1477,17.018003,0,-1,0,-1,-1,-1023
1478,17.029551,0,0,0,-1,-2,-1021
1479,17.041098,0,-1,0,4,1,-1022
1480,17.052675,0,-1,0,-3,2,-1022
1481,17.064197,0,0,-1,1,-1,-1027
1482,17.075714,0,-1,0,-3,-1,-1019
1483,17.087263,0,-1,0,-3,-2,-1028
1484,17.098824,0,-1,0,0,-5,-1016
1485,17.110483,0,0,0,-1,-3,-1018
1486,17.122182,-1,-1,0,0,-5,-1029
1487,17.133831,0,-1,0,-1,2,-1024
1488,17.145483,0,-1,0,-1,-2,-1015
1489,17.157158,0,0,0,2,-2,-1020
1490,17.168828,0,0,0,2,-2,-1022
1491,17.180517,0,-1,0,0,1,-1022
1492,17.192191,0,0,0,-1,2,-1024
1493,17.20388,0,0,0,-1,2,-1021
1494,17.215538,0,0,0,-3,1,-1025
1495,17.227192,0,0,0,0,1,-1026
1496,17.23885,0,-1,0,1,-7,-1028
1497,17.250527,0,1,0,-2,-4,-1017
1498,17.262186,-1,1,1,1,6,-1015
1499,17.273839,-1,0,0,-3,-1,-1020
1500,17.285502,-1,0,0,-1,1,-1026
1501,17.297162,0,0,0,-3,-2,-1019
1502,17.308864,0,1,0,2,-2,-1023
1503,17.320536,0,0,0,-7,0,-1027
1504,17.332235,0,0,0,3,-1,-1025
1505,17.343933,0,0,0,-2,3,-1023
1506,17.355605,0,0,0,0,-2,-1023
1507,17.36729,-1,0,0,1,4,-1027
1508,17.378958,0,-1,1,3,-1,-1022
1509,17.390598,0,0,0,0,1,-1018
1510,17.402247,0,0,0,-3,0,-1023
1511,17.413924,0,0,0,-1,-3,-1023
1512,17.425563,-1,-1,0,0,1,-1027
1513,17.437137,-1,0,-1,1,-1,-1027
1514,17.448689,0,-1,0,-1,2,-1023
1515,17.460264,-1,-1,0,-2,1,-1025
1516,17.471836,0,-1,0,4,-2,-1025
1517,17.483389,0,0,0,0,-1,-1027
1518,17.494958,0,0,0,0,0,-1019
1519,17.506508,0,0,-1,0,1,-1017
1520,17.51806,0,0,0,-1,0,-1018
1521,17.529721,0,0,0,-2,-2,-1024
1522,17.541393,0,-1,0,3,2,-1024
1523,17.55307,0,0,0,2,-2,-1026
1524,17.564765,-1,-1,0,-1,-2,-1024
1525,17.576427,0,-1,0,4,1,-1026
1526,17.588087,-1,0,0,1,-1,-1016
1527,17.599751,0,0,0,-4,-5,-1020
1528,17.611475,0,-1,1,-3,-2,-1021
1529,17.623165,-1,-1,1,-1,-7,-1021
1530,17.634769,0,-1,0,-2,-2,-1019
1531,17.646323,0,0,0,0,0,-1022
1532,17.657878,0,-1,0,-3,-3,-1021
1533,17.669443,-1,0,0,0,-3,-1025
1534,17.680995,-1,-1,-1,1,1,-1017
1535,17.692568,-1,0,0,-2,0,-1023
1536,17.704144,0,-1,0,-2,0,-1021
1537,17.715717,0,0,0,1,0,-1017
1538,17.727348,-1,0,0,-2,-3,-1022
1539,17.73903,-1,0,0,-1,-1,-1029
1540,17.750708,-1,1,0,1,0,-1020
1541,17.762369,0,0,0,-1,3,-1026
1542,17.774037,0,-1,-1,2,1,-1023
1543,17.78569,0,0,0,5,1,-1027
1544,17.797349,0,-1,-1,-1,2,-1024
1545,17.809039,-1,-1,0,1,-1,-1020
1546,17.820707,-1,0,-1,-3,-1,-1023
1547,17.832395,-1,0,-1,1,-1,-1025
1548,17.844063,-1,-1,0,2,-3,-1025
1549,17.855732,0,-1,0,1,-4,-1025
1550,17.867404,0,0,0,0,-3,-1029
1551,17.879068,-1,0,0,0,-1,-1023
1552,17.890719,-1,0,1,1,-3,-1023
1553,17.902385,0,0,0,2,1,-1022
1554,17.914049,0,0,0,-4,1,-1023
1555,17.925697,0,-1,0,-2,0,-1023
1556,17.9374,-1,1,0,2,2,-1023
1557,17.949073,-1,-1,0,0,-4,-1024
1558,17.96077,-1,-1,-1,-1,-1,-1022
1559,17.97244,0,-1,0,1,-1,-1017
1560,17.984119,-1,-1,0,0,2,-1023
1561,17.995805,-1,0,0,0,-1,-1017
1562,18.007481,-1,-1,0,1,-2,-1026
1563,18.019149,0,0,0,2,1,-1021
1564,18.030816,0,0,0,-2,1,-1026
1565,18.042495,-1,-1,0,1,0,-1020
1566,18.05417,-1,-1,0,2,-2,-1024
1567,18.065828,0,0,0,-1,-2,-1031
1568,18.077483,1,0,0,-4,-3,-1022
1569,18.089151,-1,-1,0,0,0,-1024
1570,18.100865,-1,0,-1,3,0,-1023
1571,18.112539,-1,0,0,-1,1,-1021
1572,18.1242,-1,0,1,1,1,-1023
1573,18.135881,0,-1,0,4,-3,-1026
1574,18.147574,0,0,0,1,-2,-1021
1575,18.159271,0,0,1,2,0,-1024
1576,18.172811,0,0,0,-3,-3,-1023
1577,18.184427,0,0,0,-2,0,-1025
1578,18.195956,0,0,1,-1,-2,-1024
1579,18.207473,0,0,0,2,1,-1025
1580,18.219025,0,0,-1,1,-3,-1024
1581,18.230574,0,0,0,-2,-1,-1024
1582,18.242136,-1,0,0,1,-2,-1021
1583,18.253702,-1,0,1,-1,2,-1026
1584,18.265262,-1,1,1,3,0,-1024
1585,18.276822,0,1,0,-5,-3,-1028
1586,18.288385,0,0,0,1,1,-1018
1587,18.299944,-1,0,0,0,-1,-1022
1588,18.311472,-1,0,-1,3,-3,-1019
1589,18.32302,-1,0,0,0,2,-1022
1590,18.334578,0,0,0,-2,-1,-1020
1591,18.346129,0,-1,0,1,-3,-1020
1592,18.357775,0,-1,-1,0,-3,-1019
1593,18.369416,0,0,0,-2,-1,-1020
1594,18.381108,-1,-1,1,-2,0,-1022
1595,18.392795,-1,0,1,2,0,-1020
1596,18.404463,0,0,-1,-1,1,-1023
1597,18.416148,0,-1,-1,-1,0,-1024
1598,18.427812,-1,-1,0,0,0,-1018
1599,18.439488,-1,-1,0,2,2,-1021
1600,18.451169,-1,0,1,0,1,-1025
1601,18.46284,0,0,0,-2,0,-1024
1602,18.474514,0,0,1,-2,-4,-1022
1603,18.486109,0,-1,0,-2,0,-1024
1604,18.497663,0,0,0,4,2,-1024
1605,18.509209,0,0,0,1,1,-1022
1606,18.52077,0,0,0,3,-3,-1024
1607,18.53234,-1,-1,0,-1,0,-1028
1608,18.543898,-1,0,1,1,0,-1026
1609,18.555468,-1,1,0,3,1,-1023
1610,18.567036,-1,0,-1,-7,-1,-1021
1611,18.578703,-1,0,1,-2,-1,-1021
1612,18.590356,-1,-1,0,2,-1,-1017
1613,18.602068,-1,0,0,-1,-2,-1033
1614,18.613834,0,0,0,1,-1,-1025
1615,18.625513,0,-1,0,-2,0,-1025
1616,18.637169,0,0,-1,-1,0,-1022
1617,18.648842,0,0,0,1,-5,-1019
1618,18.660525,-1,-1,0,-1,1,-1020
1619,18.672197,0,0,0,2,2,-1026
1620,18.683894,0,-1,0,2,1,-1029
1621,18.695469,0,0,0,0,0,-1032
1622,18.707019,-1,-1,-1,-1,-1,-1023
1623,18.718564,-1,-1,0,-1,-2,-1024
1624,18.730118,0,-1,0,-4,-1,-1019
1625,18.741664,0,-1,0,-5,-1,-1029
1626,18.753233,0,-1,0,-1,0,-1024
1627,18.764844,0,0,0,-2,-1,-1019
1628,18.776533,-1,-1,0,0,-2,-1024
1629,18.788193,0,0,0,1,-6,-1024
1630,18.799887,-1,0,0,2,-1,-1018
1631,18.811564,0,-1,0,2,-1,-1024
1632,18.823221,0,0,0,1,-3,-1019
1633,18.834894,0,-1,0,-1,3,-1026
1634,18.84657,0,0,-1,-1,-1,-1022
1635,18.858267,0,0,0,-1,-1,-1027
1636,18.869945,0,0,0,2,1,-1018
1637,18.8816,-1,0,0,2,-2,-1023
1638,18.893254,0,0,0,-3,-4,-1019
1639,18.904937,0,0,0,0,1,-1028
1640,18.91658,-1,0,0,-5,4,-1025
1641,18.928263,-1,0,0,3,0,-1027
1642,18.939941,0,1,0,0,0,-1018
1643,18.951607,0,-1,0,0,2,-1026
1644,18.963257,0,0,0,-1,0,-1021
1645,18.974927,0,0,0,-2,-1,-1024
1646,18.986636,0,-1,0,3,-3,-1025
1647,18.998333,1,0,0,0,2,-1026
1648,19.009912,0,-1,0,0,-4,-1021
1649,19.021503,0,-1,0,-2,-1,-1023
1650,19.033052,0,0,0,1,2,-1024
1651,19.044609,0,-1,0,-1,0,-1026
1652,19.056192,0,-1,0,1,-2,-1017
1653,19.06777,0,0,0,1,0,-1018
1654,19.079347,0,0,0,1,-2,-1026
1655,19.0909,1,0,0,2,-6,-1022
1656,19.102595,0,0,0,-6,0,-1027
1657,19.114269,-1,0,0,0,1,-1023
1658,19.125946,0,0,0,-1,0,-1022
1659,19.13761,-1,-1,0,1,0,-1024
1660,19.149288,0,0,-1,-6,4,-1028
1661,19.160953,0,0,0,-1,0,-1021
1662,19.172642,-1,0,0,-1,0,-1026
1663,19.184321,0,0,0,3,-1,-1023
1664,19.195985,0,-1,1,2,-1,-1021
1665,19.207547,-1,0,0,-2,-1,-1026
1666,19.219133,-1,0,-1,1,-2,-1021
1667,19.230698,-1,-1,0,1,0,-1015
1668,19.242261,0,-1,0,1,-2,-1021
1669,19.253814,0,0,-1,0,2,-1024
1670,19.265391,0,-1,0,2,1,-1027
1671,19.276994,-1,-1,0,2,1,-1021
1672,19.288824,0,-1,0,0,-2,-1024
1673,19.30046,0,-1,0,-1,-3,-1025
1674,19.312038,-1,0,0,0,-2,-1024
1675,19.323611,0,0,0,0,-1,-1027
1676,19.335166,-1,0,1,-2,2,-1024
1677,19.346741,-1,0,0,-2,2,-1026
1678,19.358301,0,0,-1,-3,-3,-1029
1679,19.369906,-1,-1,0,1,-1,-1030
1680,19.381516,1,0,0,0,0,-1024
1681,19.393163,1,0,0,1,-4,-1024
1682,19.404807,0,-1,0,-3,-2,-1026
1683,19.416524,0,-1,-1,-5,3,-1021
1684,19.428189,0,-1,0,-5,2,-1029
1685,19.439869,0,0,0,0,2,-1015
1686,19.451558,1,0,0,1,0,-1026
1687,19.463208,0,0,-1,-1,-1,-1023
1688,19.474867,0,0,0,-1,0,-1026
1689,19.486535,-1,-1,0,-3,-1,-1027
1690,19.498199,0,-1,0,-2,3,-1024
1691,19.509853,-1,-1,0,-4,-1,-1029
1692,19.521514,0,0,0,0,-1,-1025
1693,19.533156,0,-1,0,-1,1,-1022
1694,19.544834,0,-1,0,0,-1,-1026
1695,19.556515,0,-1,1,1,1,-1026
1696,19.568261,0,0,0,-5,-1,-1023
1697,19.579927,0,-1,0,-4,1,-1024
1698,19.591609,-1,-1,0,0,-2,-1027
1699,19.603362,0,0,0,4,-2,-1024
1700,19.615028,0,-1,0,3,-1,-1021
1701,19.626654,0,0,0,-1,-1,-1031
1702,19.638214,0,0,1,2,-1,-1028
1703,19.649783,0,0,-1,1,2,-1024
1704,19.661328,0,-1,0,4,0,-1024
1705,19.672915,0,0,-1,2,-3,-1021
1706,19.684442,-1,-1,0,-1,0,-1022
1707,19.69602,-1,0,0,-1,0,-1027
1708,19.707602,-1,-1,0,0,-2,-1022
1709,19.719265,0,-1,0,-3,-1,-1025
1710,19.730948,0,0,0,0,4,-1022
1711,19.74259,0,0,0,1,-3,-1028
1712,19.754239,0,-1,0,1,2,-1024
1713,19.765938,0,-1,0,-5,-1,-1024
1714,19.777584,-1,-1,0,2,-1,-1017
1715,19.789235,-1,0,0,1,4,-1033
1716,19.800914,-1,0,1,-3,-2,-1018
1717,19.81261,-1,0,0,-1,-2,-1024
1718,19.824264,-1,0,0,2,0,-1021
1719,19.835846,0,-1,0,-1,-2,-1023
1720,19.847402,0,0,1,-3,1,-1027
1721,19.858973,-1,0,1,-3,0,-1022
1722,19.870533,0,0,0,-2,2,-1028
1723,19.882087,0,0,0,3,-2,-1021
1724,19.893655,-1,0,0,1,0,-1020
1725,19.905197,-1,-1,0,0,-5,-1023
1726,19.916771,0,0,0,0,-1,-1019
1727,19.928406,0,0,0,0,0,-1029
1728,19.940077,0,-1,0,3,0,-1024
1729,19.951796,0,0,0,-4,-4,-1024
1730,19.963484,0,-1,-1,1,0,-1028
1731,19.975194,0,0,0,2,-2,-1025
1732,19.986842,0,0,0,2,-1,-1023
1733,19.998497,0,0,-1,-3,1,-1024
1734,20.010193,-1,-1,0,1,1,-1021
1735,20.021855,0,-1,0,0,-2,-1023
1736,20.033527,0,0,-1,-1,5,-1025
1737,20.045201,-1,-1,0,1,2,-1027
1738,20.056908,0,0,0,-4,-2,-1025
1739,20.068581,0,-1,0,3,0,-1019
1740,20.080313,0,-1,0,0,0,-1031
1741,20.091996,0,0,0,1,1,-1020
1742,20.103649,0,0,0,2,-1,-1021
1743,20.115326,0,0,0,0,-2,-1019
1744,20.126989,0,0,0,0,-1,-1024
1745,20.13866,-1,-1,0,-5,1,-1022
1746,20.150242,0,-1,-1,-4,1,-1020
1747,20.161798,0,0,-1,3,1,-1021
1748,20.173345,-1,0,0,0,-1,-1027
1749,20.184928,0,-1,0,-1,-1,-1022
1750,20.196506,0,-1,0,-1,-1,-1025
1751,20.208087,0,-1,0,-3,-1,-1018
1752,20.219677,0,-1,0,-3,3,-1030
1753,20.231275,-1,-1,0,2,1,-1018
1754,20.242898,-1,0,0,5,1,-1019
1755,20.254582,-1,-1,0,3,-3,-1017
1756,20.266235,0,0,1,-4,1,-1022
1757,20.27789,-1,0,0,0,-1,-1021
1758,20.289579,-1,0,0,0,2,-1022
1759,20.301278,-1,0,0,-2,2,-1017
1760,20.312958,0,0,0,-3,-1,-1024
1761,20.324646,-1,-1,0,2,-2,-1025
1762,20.336352,-1,-1,-1,1,-5,-1027
1763,20.348092,0,0,0,-1,-2,-1024
1764,20.359679,0,-1,0,1,3,-1016
1765,20.371266,0,-1,0,1,-2,-1019
1766,20.38281,0,-1,-1,0,0,-1018
1767,20.39438,0,0,0,-2,-6,-1026
1768,20.405943,0,0,0,-1,-2,-1028
1769,20.417496,-1,-1,0,-1,1,-1024
1770,20.42905,-1,-1,0,1,-2,-1024
1771,20.440673,-1,0,-1,-1,-3,-1018
1772,20.452245,-1,0,-1,2,0,-1021
1773,20.4638,-1,0,0,-4,5,-1021
1774,20.475342,0,-1,0,3,-3,-1028
1775,20.486885,-1,-1,-1,-1,0,-1022
1776,20.498437,-1,0,0,2,4,-1026
1777,20.50999,-1,0,0,1,-3,-1022
1778,20.521548,0,0,0,1,0,-1026
1779,20.533141,0,0,0,1,-3,-1026
1780,20.544754,-1,1,0,-2,-2,-1023
1781,20.556431,0,0,0,1,1,-1023
1782,20.568131,0,0,-1,-2,-2,-1023
1783,20.579819,-1,0,0,-5,4,-1024
1784,20.591477,-1,0,0,-2,-1,-1025
1785,20.603133,0,0,1,-3,-2,-1022
1786,20.614807,0,0,1,4,-1,-1014
1787,20.62646,-1,0,0,0,-2,-1030
1788,20.638113,0,-1,0,-1,-3,-1023
1789,20.649787,0,-1,0,-1,-5,-1028
1790,20.661454,0,0,0,4,1,-1024
1791,20.673019,-1,1,0,-3,1,-1028
1792,20.684581,0,1,-1,-1,2,-1022
1793,20.69616,1,0,0,1,-1,-1021
1794,20.707799,-1,0,0,1,0,-1017
1795,20.719423,0,0,0,0,-2,-1026
1796,20.730987,0,0,0,0,0,-1021
1797,20.742543,-1,0,0,-1,2,-1021
1798,20.754119,0,-1,-1,0,-5,-1019
1799,20.765802,0,-1,0,2,-1,-1021
1800,20.77747,0,-1,0,-3,-1,-1024
1801,20.789111,0,-1,0,0,-2,-1025
1802,20.800774,0,0,0,-1,0,-1021
1803,20.812463,0,-1,0,-3,-3,-1029
1804,20.824131,1,0,-1,0,0,-1021
1805,20.835818,0,0,0,-3,0,-1029
1806,20.847486,0,0,0,1,0,-1021
1807,20.85915,0,0,0,1,2,-1025
1808,20.870821,0,-1,-1,3,0,-1026
1809,20.882407,-1,0,0,1,-2,-1021
1810,20.893957,-1,0,-1,2,-3,-1020
1811,20.905508,-1,-1,-1,-4,0,-1022
1812,20.917059,-1,-1,-1,1,-2,-1024
1813,20.928621,-1,-1,0,0,1,-1022
1814,20.940194,0,-1,0,1,-1,-1021
1815,20.951779,-1,-1,-1,-1,-1,-1022
1816,20.963348,-1,0,0,-3,0,-1021
1817,20.975041,0,0,0,-3,-3,-1018
1818,20.986713,-1,0,1,-1,2,-1024
1819,20.99837,0,0,0,0,-1,-1019
1820,21.010019,0,0,0,-1,1,-1029
1821,21.021676,0,-1,1,1,-2,-1027
1822,21.033342,0,0,0,-1,-2,-1019
1823,21.045065,0,0,-1,2,0,-1023
1824,21.056741,0,0,0,0,0,-1022
1825,21.068433,0,0,0,-2,2,-1028
1826,21.080131,-1,0,0,-2,2,-1021
1827,21.091733,0,0,0,-3,4,-1021
1828,21.103288,0,0,0,1,-5,-1017
1829,21.114882,-1,0,1,0,-4,-1026
1830,21.126436,0,0,0,-3,0,-1020
1831,21.138006,0,0,0,-2,1,-1024
1832,21.149543,-1,-1,0,-4,-4,-1022
1833,21.161089,-1,0,0,2,-1,-1017
1834,21.172679,-1,0,-1,-3,1,-1023
1835,21.184345,-1,-1,0,1,-1,-1020
1836,21.196009,0,0,1,0,-2,-1026
1837,21.207675,-1,0,0,0,-2,-1024
1838,21.219344,0,0,-1,-4,-2,-1025
1839,21.230993,-1,0,0,1,-2,-1025
1840,21.242644,-2,0,-1,-3,-1,-1022
1841,21.254318,0,0,0,-1,3,-1021
1842,21.265969,0,-1,0,2,-3,-1028
1843,21.277637,0,0,0,4,0,-1023
1844,21.289318,-1,0,0,-3,5,-1021
1845,21.30091,0,0,0,-2,2,-1023
1846,21.312454,0,-1,1,-5,-5,-1024
1847,21.324046,0,-1,0,-1,0,-1023
1848,21.335623,-1,0,1,3,2,-1030
1849,21.347169,0,-1,0,0,-2,-1022
1850,21.358736,0,-1,0,0,2,-1030
1851,21.370286,0,-1,1,2,3,-1023
1852,21.381861,0,0,0,-4,-4,-1021
1853,21.393516,0,-1,0,1,1,-1027
1854,21.405197,-1,-1,0,2,-3,-1025
1855,21.416897,-1,-1,0,0,2,-1025
1856,21.428586,0,-1,-1,-3,1,-1021
1857,21.44026,0,0,0,1,1,-1026
1858,21.451978,-1,0,0,0,1,-1022
1859,21.463638,-1,0,0,-1,-1,-1024
1860,21.475313,0,-1,0,-3,-2,-1024
1861,21.486982,0,0,0,-2,0,-1029
1862,21.498633,-1,-1,1,3,-1,-1025
1863,21.510191,-1,-1,0,-2,-5,-1024
1864,21.521773,-1,0,0,-1,-2,-1019
1865,21.533318,0,0,1,-2,1,-1022
1866,21.544924,-1,0,0,-2,2,-1029
1867,21.556443,0,0,0,2,-1,-1024
1868,21.56796,-1,0,0,1,0,-1027
1869,21.579477,-1,0,0,-3,-2,-1019
1870,21.591055,0,0,0,-3,1,-1021
1871,21.602676,-1,0,0,0,1,-1021
1872,21.614335,-1,0,0,2,4,-1019
1873,21.625991,0,-1,0,1,-5,-1025
1874,21.637666,-1,-2,0,-1,-2,-1022
1875,21.649331,0,0,0,-1,0,-1023
1876,21.661017,0,1,0,-1,4,-1033
1877,21.672716,0,-1,0,3,1,-1024
1878,21.684387,0,0,-1,-1,2,-1019
1879,21.696083,0,-1,0,0,2,-1024
1880,21.707738,0,-1,0,-1,2,-1020
1881,21.719302,0,-1,0,-8,0,-1023
1882,21.730884,-1,-1,0,1,-3,-1023
1883,21.742433,-1,-1,0,2,0,-1024
1884,21.753978,0,-1,0,0,-3,-1022
1885,21.765537,-1,0,0,-3,-3,-1023
1886,21.77708,0,-1,-1,-3,2,-1021
1887,21.788637,-1,0,0,-1,0,-1024
1888,21.800213,0,1,0,-1,0,-1022
1889,21.811908,-1,0,0,1,2,-1025
1890,21.823634,0,0,0,3,-2,-1027
1891,21.835281,-1,0,1,-1,-5,-1023
1892,21.846938,0,-1,0,-1,-2,-1020
1893,21.858598,0,-2,0,0,1,-1025
1894,21.870248,0,0,0,0,-1,-1025
1895,21.881918,0,0,0,-1,2,-1020
1896,21.893568,0,-1,0,2,-1,-1024
1897,21.905232,0,-1,0,1,-4,-1027
1898,21.916883,0,-1,-1,-1,1,-1020
1899,21.928447,0,0,0,1,1,-1021
1900,21.940026,-1,-1,0,0,-5,-1026
1901,21.951608,0,-1,0,2,-1,-1018
1902,21.963169,-1,-1,-1,-5,-6,-1024
1903,21.974722,-1,0,0,-2,2,-1028
1904,21.986292,-1,0,-1,-3,0,-1020
1905,21.997835,-1,0,0,1,-1,-1024
1906,22.009395,0,1,0,0,2,-1021
1907,22.021069,0,0,-1,1,1,-1029
1908,22.032783,0,0,-1,2,-3,-1026
1909,22.044477,-1,-1,0,0,-1,-1024
1910,22.056139,0,0,0,0,0,-1023
1911,22.06782,0,0,0,1,-2,-1027
1912,22.07947,-1,0,-1,-1,-4,-1019
1913,22.091111,-1,0,1,-5,-1,-1020
1914,22.102761,0,0,0,2,0,-1022
1915,22.11443,0,0,-1,-1,2,-1024
1916,22.126108,0,0,0,-5,-2,-1023
1917,22.137674,0,0,-1,-5,1,-1024
1918,22.14922,0,0,0,0,-2,-1023
1919,22.160798,0,-1,0,2,0,-1021
1920,22.172399,0,0,0,2,-3,-1020
1921,22.183958,0,0,0,1,1,-1027
1922,22.195554,0,0,0,3,-5,-1016
1923,22.207101,-1,-1,0,-1,-2,-1021
1924,22.218661,-1,0,0,2,-4,-1024
1925,22.230275,0,-1,0,1,-5,-1025
1926,22.241928,0,0,0,0,2,-1029
1927,22.253595,-1,0,-1,-2,-2,-1025
1928,22.265253,-1,0,0,-3,-3,-1030
1929,22.276914,-1,0,0,1,2,-1025
1930,22.288596,0,0,-1,1,0,-1024
1931,22.300262,0,-1,0,2,-3,-1023
1932,22.311922,0,0,0,0,-3,-1016
1933,22.323618,0,0,1,0,0,-1023
1934,22.335272,0,0,0,2,0,-1025
1935,22.346847,0,0,0,-1,2,-1024
1936,22.358426,0,0,0,0,0,-1016
1937,22.369977,0,0,0,2,2,-1022
1938,22.381543,0,0,0,-4,-1,-1026
1939,22.393098,-1,0,0,2,-2,-1021
1940,22.40468,-1,1,0,-1,0,-1022
1941,22.416252,-1,0,0,0,-1,-1021
1942,22.427832,-2,0,0,2,-2,-1022
1943,22.439545,-1,0,0,-4,3,-1028
1944,22.451222,-1,0,1,0,-3,-1026
1945,22.462886,-1,-1,1,-3,-1,-1020
1946,22.474558,0,1,0,1,0,-1022
1947,22.486212,0,0,0,-2,-3,-1025
1948,22.497863,-1,-1,0,0,1,-1025
1949,22.509518,-1,-1,-1,0,0,-1031
1950,22.521193,-1,-1,0,2,-4,-1021
1951,22.532882,0,0,0,3,1,-1021
1952,22.544545,0,0,0,0,1,-1024
1953,22.556105,0,-1,0,1,1,-1030
1954,22.56768,0,0,-1,-1,2,-1022
1955,22.579228,0,0,0,-4,-2,-1023
1956,22.590778,0,0,0,0,4,-1025
1957,22.602327,0,0,-1,-4,0,-1028
1958,22.613928,-1,0,0,-1,-2,-1023
1959,22.625484,0,0,-1,-4,-2,-1017
1960,22.637042,0,-1,-1,-2,2,-1020
1961,22.64875,-1,0,0,3,-1,-1019
1962,22.660434,0,0,0,1,1,-1024
1963,22.67212,0,0,0,-2,2,-1023
1964,22.683748,0,0,-1,-2,3,-1024
1965,22.695399,0,-1,1,-2,0,-1022
1966,22.707062,1,0,0,-2,-1,-1023
1967,22.718717,-1,0,0,0,-5,-1030
1968,22.730366,0,0,0,-4,-3,-1024
1969,22.74203,1,0,0,0,-2,-1023
1970,22.753682,0,0,0,-1,-1,-1028
1971,22.765339,0,-1,0,0,-2,-1025
1972,22.777039,-1,0,0,2,0,-1021
1973,22.788704,-1,0,0,0,-3,-1026
1974,22.800377,-1,0,0,3,0,-1025
1975,22.812002,0,0,-1,-1,-3,-1026
1976,22.82365,0,0,0,-3,-1,-1023
1977,22.835299,0,0,0,-2,0,-1026
1978,22.847017,0,0,0,-1,-1,-1026
1979,22.858665,-1,0,0,-4,0,-1025
1980,22.870336,-1,-1,0,6,0,-1025
1981,22.881991,0,-1,1,-2,-1,-1023
1982,22.893642,0,0,0,-1,0,-1025
1983,22.905307,-1,-1,0,-3,-1,-1024
1984,22.91697,-1,-1,1,0,2,-1023
1985,22.928646,0,0,-1,1,2,-1029
1986,22.940351,0,0,0,0,-1,-1023
1987,22.952001,0,-1,0,3,-1,-1020
1988,22.963552,-1,-1,0,4,0,-1019
1989,22.975104,0,-1,0,0,2,-1024
1990,22.986657,0,0,0,-6,-3,-1019
1991,22.998204,0,0,0,1,-2,-1028
1992,23.009793,0,0,0,1,-2,-1023
1993,23.021347,0,0,0,-1,2,-1020
1994,23.03293,0,0,0,-5,-4,-1020
1995,23.044489,0,0,0,3,2,-1025
1996,23.056115,-1,0,0,-3,0,-1023
1997,23.067746,0,0,0,1,2,-1026
1998,23.079476,0,0,0,0,-1,-1023
1999,23.091124,0,-1,1,-5,4,-1024
