sample,t_s,gyro_x,gyro_y,gyro_z,accel_x,accel_y,accel_z
0,1.3e-05,-1,2,2,1050,0,-1557
1,0.011242,1,2,3,1047,1,-1562
2,0.022443,-1,0,-1,1050,2,-1552
3,0.033626,1,2,0,1046,0,-1558
4,0.044815,1,1,-2,1044,-1,-1560
5,0.056001,1,-1,2,1046,2,-1556
6,0.067182,2,0,1,1046,0,-1559
7,0.07835,0,1,-1,1047,0,-1566
8,0.089534,-1,1,-1,1047,-1,-1561
9,0.100717,0,0,1,1043,0,-1564
10,0.111902,0,2,-1,1042,-2,-1557
11,0.123085,1,0,-1,1046,2,-1557
12,0.134276,1,3,0,1045,0,-1560
13,0.145462,1,1,0,1045,2,-1558
14,0.156642,0,3,1,1047,-1,-1565
15,0.167823,0,-1,1,1049,1,-1556
16,0.179015,2,5,0,1045,2,-1563
17,0.190209,0,-1,1,1046,-3,-1556
18,0.201393,-1,1,-1,1044,0,-1559
19,0.21258,1,0,-1,1046,1,-1562
20,0.223762,-1,1,-1,1046,0,-1558
21,0.234945,0,-1,0,1045,1,-1560
22,0.246129,1,0,1,1047,0,-1562
23,0.257312,-2,1,1,1050,1,-1555
24,0.268494,0,0,-2,1047,0,-1559
25,0.279677,0,-1,0,1046,0,-1559
26,0.290861,1,-1,1,1051,-2,-1557
27,0.302043,0,2,-1,1045,0,-1559
28,0.31323,1,0,1,1045,1,-1562
29,0.32441,1,3,-1,1047,0,-1554
30,0.335598,-1,1,-2,1047,3,-1562
31,0.346786,0,0,1,1046,-1,-1563
32,0.357976,1,0,1,1047,-3,-1558
33,0.369164,1,0,1,1046,2,-1561
34,0.38035,1,1,0,1046,0,-1561
35,0.391533,2,0,-1,1048,0,-1561
36,0.402719,0,0,1,1049,-1,-1555
37,0.413906,-1,1,1,1046,0,-1562
38,0.425095,0,0,-2,1046,-3,-1559
39,0.436278,1,0,-1,1045,0,-1564
40,0.447468,-1,1,-2,1044,0,-1558
41,0.458659,0,-1,1,1047,0,-1558
42,0.46984,1,0,-1,1044,1,-1559
43,0.481027,0,1,0,1048,0,-1562
44,0.492212,0,-2,0,1045,4,-1563
45,0.503397,0,0,1,1046,0,-1559
46,0.514594,-1,2,0,1043,2,-1562
47,0.525779,-1,0,2,1047,0,-1559
48,0.536968,0,3,1,1048,-4,-1554
49,0.548151,0,0,1,1048,1,-1563
50,0.559337,0,1,-1,1050,4,-1557
51,0.570531,1,-1,-2,1047,0,-1561
52,0.581714,0,-1,-1,1048,0,-1556
53,0.592897,-2,2,0,1049,0,-1568
54,0.604084,2,-1,-1,1047,2,-1567
55,0.615265,2,2,0,1046,0,-1557
56,0.626456,0,1,-1,1048,4,-1560
57,0.637641,2,1,0,1045,0,-1557
58,0.648825,-1,-4,2,1048,-1,-1559
59,0.660009,0,1,-1,1047,0,-1558
60,0.671197,3,0,-1,1051,0,-1561
61,0.682343,1,1,0,1044,0,-1550
62,0.693526,0,0,0,1047,-3,-1568
63,0.704718,-1,-1,0,1045,0,-1563
64,0.7159,0,3,1,1045,-5,-1559
65,0.727087,0,1,-3,1048,0,-1555
66,0.738274,1,-1,-1,1045,-1,-1558
67,0.749455,1,2,2,1042,1,-1568
68,0.76064,1,-2,-1,1049,0,-1563
69,0.771822,-1,-3,0,1045,3,-1555
70,0.783014,0,0,-1,1047,0,-1562
71,0.79416,0,1,0,1044,0,-1561
72,0.805342,1,1,1,1045,2,-1560
73,0.816524,2,2,0,1046,1,-1562
74,0.827706,-1,-2,-2,1045,-3,-1560
75,0.838895,-1,-1,0,1053,4,-1566
76,0.850086,2,2,-1,1047,-3,-1561
77,0.861272,1,0,-3,1046,0,-1556
78,0.872455,1,1,0,1046,-1,-1556
79,0.883637,0,1,0,1050,0,-1559
80,0.894825,-1,2,0,1046,0,-1560
81,0.905975,1,0,1,1047,5,-1558
82,0.917157,0,2,0,1049,-2,-1555
83,0.928339,-1,-1,0,1046,2,-1557
84,0.939521,1,-1,0,1045,2,-1560
85,0.950712,0,3,-1,1045,4,-1556
86,0.961892,0,2,1,1046,0,-1557
87,0.973075,0,-2,-2,1046,0,-1566
88,0.984255,2,-2,-1,1044,0,-1560
89,0.995437,-1,-1,2,1047,0,-1557
90,1.006625,1,2,-1,1044,-2,-1561
91,1.017806,0,-1,-1,1044,2,-1562
92,1.028993,1,0,-1,1045,0,-1557
93,1.040179,0,1,2,1049,0,-1558
94,1.051363,0,3,0,1045,0,-1557
95,1.062531,-2,2,1,1046,1,-1561
96,1.073713,0,1,1,1046,-1,-1560
97,1.084894,1,1,0,1050,0,-1557
98,1.096076,0,-1,3,1048,0,-1559
99,1.107263,0,3,0,1051,2,-1557
100,1.118458,-2,1,-1,1043,3,-1558
101,1.129643,0,1,0,1046,0,-1557
102,1.140829,1,2,2,1045,-1,-1559
103,1.15201,0,2,0,1044,-1,-1558
104,1.163194,1,-1,2,1045,1,-1564
105,1.17435,-2,2,1,1045,0,-1565
106,1.185536,1,0,1,1042,0,-1565
107,1.196729,0,-1,-1,1044,0,-1559
108,1.207919,0,-2,-1,1044,1,-1562
109,1.219115,-1,0,-1,1049,1,-1561
110,1.230301,0,0,-1,1046,1,-1557
111,1.241484,0,-1,1,1045,0,-1560
112,1.252674,0,1,3,1046,-1,-1553
113,1.263856,0,-2,0,1047,1,-1560
114,1.275048,0,0,1,1041,0,-1562
115,1.286235,0,1,0,1048,-3,-1561
116,1.297419,2,1,0,1047,0,-1554
117,1.308607,-1,2,-1,1047,1,-1555
118,1.319788,1,1,-1,1048,-1,-1563
119,1.330977,1,0,1,1046,0,-1558
120,1.342165,-1,1,1,1046,1,-1554
121,1.353347,1,0,1,1048,-1,-1561
122,1.364534,0,0,0,1046,0,-1564
123,1.375717,2,-2,-2,1045,1,-1561
124,1.386901,1,1,-1,1049,5,-1561
125,1.398088,1,2,1,1048,-2,-1560
126,1.40927,0,0,1,1047,-1,-1557
127,1.420453,1,0,-1,1045,-3,-1560
128,1.431635,0,-2,-1,1048,2,-1564
129,1.442832,0,0,0,1043,3,-1558
130,1.454025,0,1,-1,1047,1,-1564
131,1.465209,0,2,0,1050,0,-1560
132,1.476395,0,1,0,1047,0,-1560
133,1.487582,1,3,1,1048,0,-1558
134,1.498774,0,2,-3,1046,-1,-1555
135,1.509974,1,2,-2,1050,3,-1555
136,1.521158,0,-1,1,1046,0,-1563
137,1.532339,-1,3,-2,1046,-2,-1560
138,1.543523,1,2,0,1047,0,-1558
139,1.554712,1,2,0,1050,0,-1563
140,1.565895,0,0,-1,1045,-1,-1558
141,1.577079,-1,0,1,1049,0,-1561
142,1.588263,1,0,2,1047,3,-1560
143,1.599447,0,0,1,1046,0,-1558
144,1.61065,0,0,1,1044,0,-1559
145,1.621832,0,-1,1,1047,-2,-1561
146,1.633023,0,0,0,1044,1,-1556
147,1.644204,-1,0,-3,1046,-1,-1556
148,1.655392,2,0,1,1043,-5,-1562
149,1.666582,-1,2,1,1046,-3,-1564
150,1.677764,0,0,0,1047,1,-1561
151,1.688979,-1,-2,1,1048,1,-1558
152,1.700257,0,-2,-1,1046,-1,-1556
153,1.711455,0,0,2,1046,1,-1561
154,1.722659,-1,-2,0,1045,0,-1560
155,1.733848,-1,1,-2,1044,0,-1551
156,1.745035,2,3,0,1044,1,-1560
157,1.756223,1,0,-1,1046,0,-1564
158,1.767411,-1,1,0,1047,0,-1556
159,1.778601,0,0,-1,1044,0,-1552
160,1.789787,2,-3,1,1047,-5,-1554
161,1.80097,1,0,-1,1049,-3,-1563
162,1.812155,2,0,-2,1047,-1,-1555
163,1.823338,-1,0,1,1048,0,-1554
164,1.83453,0,1,-1,1048,1,-1556
165,1.845712,0,1,1,1047,-3,-1557
166,1.856896,1,1,1,1050,2,-1565
167,1.868077,-1,0,1,1046,3,-1558
168,1.879285,-1,-1,0,1049,1,-1553
169,1.890474,-1,1,-2,1048,2,-1560
170,1.901656,0,0,2,1046,2,-1565
171,1.912839,-1,-2,0,1044,-2,-1563
172,1.92402,0,-1,1,1050,-2,-1558
173,1.935206,-2,-1,-1,1046,1,-1562
174,1.946391,1,0,1,1044,0,-1566
175,1.957572,1,0,1,1047,1,-1557
176,1.968752,0,-1,0,1044,3,-1560
177,1.979949,0,1,0,1050,0,-1556
178,1.991131,0,0,0,1045,-3,-1556
179,2.002317,1,2,-1,1046,2,-1559
180,2.013498,0,1,2,1047,0,-1555
181,2.024682,-1,2,-2,1049,0,-1566
182,2.035865,0,1,-1,1044,-1,-1569
183,2.047052,0,0,0,1048,0,-1557
184,2.058244,0,2,-1,1044,0,-1557
185,2.069425,0,2,-1,1045,2,-1563
186,2.080615,0,0,3,1044,0,-1563
187,2.091797,2,0,-2,1043,0,-1557
188,2.102987,-2,0,-1,1045,0,-1558
189,2.114163,0,1,-1,1047,-3,-1558
190,2.125354,1,-1,0,1047,-1,-1562
191,2.136547,1,-1,0,1046,-2,-1556
192,2.147735,-1,-1,-1,1047,0,-1555
193,2.158902,-1,1,1,1048,-4,-1561
194,2.170094,2,0,0,1047,2,-1561
195,2.181287,0,0,1,1049,-2,-1563
196,2.192472,1,0,0,1047,0,-1560
197,2.203659,-1,0,0,1049,4,-1557
198,2.214854,2,3,0,1049,1,-1555
199,2.226055,-1,2,1,1047,0,-1564
200,2.237248,0,0,0,1045,0,-1559
201,2.248434,1,1,0,1049,1,-1563
202,2.259616,0,-1,0,1047,0,-1561
203,2.270801,2,2,-3,1045,0,-1563
204,2.281976,-1,0,2,1049,2,-1559
205,2.293164,1,-1,-1,1044,0,-1561
206,2.304352,1,2,-2,1048,1,-1558
207,2.315536,3,1,-1,1046,1,-1561
208,2.326719,1,1,0,1048,0,-1558
209,2.337904,-1,1,2,1048,-1,-1559
210,2.3491,0,1,0,1046,0,-1562
211,2.360283,2,0,-1,1049,1,-1562
212,2.371473,1,1,-1,1045,1,-1564
213,2.38266,0,2,0,1048,-1,-1558
214,2.393846,2,1,-2,1045,0,-1557
215,2.405034,0,1,-1,1048,0,-1556
216,2.416215,0,1,1,1046,2,-1559
217,2.427402,0,1,0,1043,1,-1553
218,2.438591,0,2,-1,1048,0,-1560
219,2.449789,1,0,-1,1048,2,-1565
220,2.460977,2,-3,1,1046,0,-1559
221,2.472158,-1,-1,1,1045,0,-1560
222,2.483344,0,0,1,1044,0,-1556
223,2.494541,1,2,-1,1047,0,-1558
224,2.505724,1,1,-1,1042,0,-1554
225,2.516908,0,-2,0,1047,0,-1560
226,2.528095,0,-1,1,1048,-2,-1564
227,2.539277,1,0,0,1044,0,-1553
228,2.550473,0,-1,-2,1047,-1,-1555
229,2.561657,-1,2,0,1046,1,-1553
230,2.572845,0,1,0,1047,-2,-1554
231,2.584038,2,1,0,1049,4,-1558
232,2.595219,1,2,1,1045,-3,-1557
233,2.606407,3,0,-1,1047,0,-1562
234,2.617592,-1,1,1,1043,1,-1559
235,2.628775,0,0,1,1045,0,-1562
236,2.639964,-1,-2,1,1043,0,-1554
237,2.651144,1,-1,0,1045,5,-1563
238,2.662348,1,-3,-1,1042,0,-1560
239,2.673528,1,0,2,1048,2,-1559
240,2.684712,1,1,-1,1045,0,-1560
241,2.695906,-1,0,0,1045,-3,-1559
242,2.70709,-1,-2,1,1042,1,-1555
243,2.718283,1,-2,-2,1044,0,-1556
244,2.729466,-1,1,0,1044,3,-1562
245,2.740651,0,-2,1,1045,0,-1555
246,2.751835,2,-1,0,1047,3,-1563
247,2.763021,2,-2,1,1050,-1,-1563
248,2.774161,-1,0,0,1050,0,-1561
249,2.785343,-1,1,-1,1047,1,-1555
250,2.796526,0,1,0,1045,4,-1561
251,2.807706,-1,-1,-1,1047,0,-1560
252,2.8189,0,0,-2,1048,-2,-1561
253,2.830088,3,2,1,1047,-1,-1553
254,2.84127,1,0,0,1045,-1,-1559
255,2.85246,-1,-1,-1,1046,1,-1561
256,2.863642,2,1,-1,1046,1,-1562
257,2.874827,-1,-1,2,1044,-1,-1561
258,2.885975,0,-1,-1,1044,1,-1565
259,2.897156,-2,1,-1,1047,1,-1562
260,2.908337,-1,0,-2,1043,4,-1557
261,2.919533,0,0,-1,1048,0,-1561
262,2.930715,1,-1,-1,1047,1,-1564
263,2.941907,0,1,0,1047,0,-1563
264,2.953091,0,1,1,1044,-2,-1558
265,2.964273,0,1,0,1047,0,-1565
266,2.975455,0,0,2,1045,0,-1562
267,2.986641,0,0,2,1049,0,-1557
268,2.997822,-1,-3,-1,1050,3,-1559
269,3.009006,1,0,-2,1045,-1,-1562
270,3.020188,0,0,-2,1046,0,-1558
271,3.031373,0,-1,0,1049,0,-1568
272,3.042532,0,0,-1,1045,1,-1558
273,3.053711,1,-1,-1,1043,1,-1564
274,3.064892,1,-2,0,1046,-1,-1558
275,3.076073,0,0,0,1046,3,-1560
276,3.087255,-2,0,2,1046,4,-1564
277,3.098453,0,-1,0,1047,4,-1559
278,3.109633,-1,-1,-1,1047,3,-1561
279,3.120814,0,0,1,1046,1,-1556
280,3.131997,0,0,0,1045,-1,-1561
281,3.14318,-1,-1,-1,1044,0,-1558
282,3.154347,-1,1,0,1040,0,-1559
283,3.165533,1,-1,0,1044,0,-1557
284,3.176727,0,0,0,1048,1,-1560
285,3.187913,0,0,1,1047,0,-1560
286,3.199158,0,-1,0,1044,1,-1555
287,3.210351,0,0,0,1049,1,-1562
288,3.221539,0,0,1,1049,-3,-1559
289,3.232728,1,-1,0,1046,0,-1557
290,3.243915,2,3,0,1046,-1,-1559
291,3.255108,0,0,0,1044,0,-1560
292,3.266306,0,1,-1,1044,0,-1564
293,3.277508,0,2,-1,1044,2,-1564
294,3.288691,0,-1,-1,1043,0,-1559
295,3.2999,-1,1,1,1043,0,-1558
296,3.311088,-1,1,1,1043,1,-1555
297,3.322291,-2,0,0,1047,2,-1553
298,3.333478,0,1,0,1044,5,-1556
299,3.344667,1,0,0,1045,1,-1559
300,3.355855,1,0,-1,1046,0,-1560
301,3.367047,1,2,-1,1046,5,-1561
302,3.378231,0,0,1,1046,0,-1557
303,3.389416,0,3,0,1046,-2,-1560
304,3.400601,1,0,1,1047,5,-1561
305,3.411787,0,1,0,1043,0,-1556
306,3.422978,0,0,2,1047,-3,-1558
307,3.43416,0,0,-2,1047,0,-1558
308,3.445348,0,-3,-1,1047,0,-1558
309,3.456537,0,0,-2,1047,0,-1559
310,3.467723,0,-1,0,1044,6,-1558
311,3.478912,1,-1,0,1045,0,-1561
312,3.490101,0,0,2,1045,0,-1560
313,3.501286,-1,1,3,1046,-5,-1562
314,3.512472,1,1,0,1044,1,-1560
315,3.523655,-1,0,1,1046,0,-1557
316,3.534846,0,-1,1,1044,2,-1565
317,3.546036,1,1,0,1046,0,-1558
318,3.557222,-1,0,0,1044,1,-1557
319,3.568423,0,2,2,1045,-1,-1558
320,3.579605,1,0,-1,1047,-3,-1562
321,3.590794,1,2,-1,1047,4,-1559
322,3.601977,0,-1,-2,1045,1,-1560
323,3.613164,-1,-1,-2,1048,0,-1562
324,3.62435,-1,1,2,1047,0,-1557
325,3.635551,-1,2,-2,1044,1,-1561
326,3.646717,1,2,1,1044,1,-1560
327,3.65791,2,1,0,1050,-1,-1560
328,3.669092,-1,2,0,1047,1,-1557
329,3.680278,-2,2,-1,1046,0,-1559
330,3.691464,0,1,0,1047,1,-1562
331,3.702653,0,1,1,1048,0,-1560
332,3.713839,1,0,1,1049,1,-1557
333,3.725022,0,1,1,1049,1,-1565
334,3.736207,1,-1,0,1050,0,-1565
335,3.7474,0,0,-1,1044,0,-1555
336,3.758589,0,2,-1,1044,0,-1563
337,3.769774,1,0,0,1047,5,-1562
338,3.780962,0,-2,-1,1043,3,-1559
339,3.792144,1,0,1,1047,-2,-1558
340,3.803329,0,0,-2,1047,0,-1558
341,3.814533,-1,1,0,1044,0,-1563
342,3.825718,1,0,-2,1046,0,-1556
343,3.836905,-1,2,0,1048,1,-1564
344,3.848088,-1,1,-1,1045,0,-1561
345,3.859274,1,4,-2,1046,-2,-1555
346,3.870466,1,1,-1,1049,0,-1558
347,3.881649,-1,0,1,1049,-1,-1556
348,3.892834,0,1,2,1047,0,-1565
349,3.904019,2,1,0,1048,-2,-1565
350,3.915204,3,2,-1,1047,-1,-1554
351,3.9264,2,-1,1,1042,3,-1553
352,3.937602,0,1,0,1044,4,-1560
353,3.949284,0,-1,1,1044,0,-1560
354,3.960945,0,-2,0,1043,-3,-1557
355,3.972601,0,3,0,1042,-2,-1560
356,3.984295,1,-1,-3,1046,-2,-1557
357,3.995944,-1,1,0,1044,-2,-1561
358,4.00759,1,-1,0,1046,0,-1562
359,4.019282,-1,3,1,1048,2,-1560
360,4.030952,0,1,-1,1051,1,-1569
361,4.042498,1,-3,3,1047,2,-1556
362,4.054014,1,1,-1,1048,1,-1555
363,4.065559,-1,2,0,1045,1,-1557
364,4.077112,0,-1,0,1041,0,-1554
365,4.088662,0,1,-1,1049,-1,-1561
366,4.100224,0,1,-1,1042,0,-1556
367,4.111826,1,0,-1,1050,0,-1562
368,4.123402,0,1,3,1049,0,-1560
369,4.134988,-1,1,0,1044,0,-1556
370,4.146682,1,3,0,1041,0,-1558
371,4.15835,-2,0,-3,1042,0,-1559
372,4.170024,-1,-1,-1,1050,0,-1562
373,4.181675,1,0,2,1049,3,-1557
374,4.193325,1,0,0,1045,2,-1553
375,4.204997,-1,1,0,1043,0,-1553
376,4.216647,2,0,0,1049,2,-1559
377,4.22831,1,1,1,1045,0,-1565
378,4.239989,0,0,-1,1047,0,-1561
379,4.251638,0,0,-1,1046,0,-1559
380,4.263311,1,-1,-2,1044,1,-1559
381,4.274996,1,-1,0,1046,2,-1556
382,4.286674,1,-3,0,1048,0,-1557
383,4.298355,1,3,1,1046,0,-1562
384,4.310028,0,2,-1,1048,1,-1563
385,4.321681,1,1,0,1046,0,-1562
386,4.333349,-1,1,-1,1049,-1,-1555
387,4.344937,2,0,-1,1046,0,-1556
388,4.356525,0,0,2,1045,0,-1562
389,4.368082,1,0,2,1047,2,-1553
390,4.379627,1,1,-1,1050,2,-1551
391,4.39123,-1,1,2,1044,1,-1557
392,4.402785,2,0,2,1046,0,-1552
393,4.414341,-2,0,-1,1044,1,-1563
394,4.425923,1,1,1,1049,2,-1556
395,4.437532,1,0,1,1045,0,-1558
396,4.449173,0,1,0,1042,1,-1553
397,4.460838,0,-1,1,1046,1,-1559
398,4.472504,1,-1,-1,1041,5,-1564
399,4.484158,-1,0,-2,1044,-2,-1562
400,4.495798,2,1,0,1049,2,-1561
401,4.507495,2,0,-1,1046,-1,-1555
402,4.519176,0,-1,0,1045,2,-1559
403,4.530794,-1,0,0,1049,1,-1559
404,4.542492,-2,0,1,1046,-3,-1560
405,4.554154,0,-2,0,1050,2,-1564
406,4.565829,0,1,1,1046,-1,-1562
407,4.577497,-1,1,2,1047,1,-1560
408,4.589151,-1,-1,-1,1047,0,-1562
409,4.600825,-1,2,2,1047,2,-1557
410,4.612483,1,0,1,1046,0,-1557
411,4.624138,1,1,3,1050,3,-1558
412,4.635793,0,0,0,1048,3,-1560
413,4.647533,-1,-1,0,1044,0,-1552
414,4.659236,2,0,0,1045,2,-1564
415,4.670825,-1,0,-1,1045,1,-1559
416,4.682404,-1,-1,-1,1045,1,-1563
417,4.693952,1,-1,0,1043,0,-1561
418,4.705504,0,0,0,1046,-1,-1555
419,4.717063,2,2,1,1047,-3,-1553
420,4.728703,0,-1,2,1053,1,-1562
421,4.740317,-1,2,0,1045,0,-1559
422,4.751887,-2,1,0,1048,0,-1566
423,4.763611,0,1,-1,1046,0,-1555
424,4.775298,0,2,1,1051,2,-1563
425,4.786979,-1,-1,0,1048,5,-1565
426,4.798657,1,1,1,1045,2,-1557
427,4.810341,0,0,-3,1046,3,-1555
428,4.822016,0,2,0,1040,0,-1564
429,4.833687,1,-1,0,1043,0,-1564
430,4.845348,2,-1,3,1050,-1,-1562
431,4.857015,-1,0,0,1048,2,-1561
432,4.868689,1,0,0,1049,2,-1562
433,4.880242,0,-1,1,1047,2,-1557
434,4.891793,-1,0,-3,1045,0,-1562
435,4.903349,2,-1,1,1045,0,-1560
436,4.914925,-1,0,1,1044,2,-1559
437,4.926499,0,0,-1,1050,0,-1564
438,4.938058,-1,1,0,1046,3,-1565
439,4.949605,0,0,1,1045,-4,-1565
440,4.961182,0,0,-1,1046,-1,-1562
441,4.972798,0,0,1,1048,0,-1560
442,4.984464,1,-1,-1,1046,2,-1560
443,4.996119,0,0,1,1047,2,-1557
444,5.007786,1,0,1,1047,0,-1559
445,5.019463,1,0,-1,1046,0,-1557
446,5.031122,0,-2,0,1048,0,-1565
447,5.042835,0,-2,0,1048,4,-1557
448,5.054519,0,-1,-2,1048,0,-1562
449,5.066215,1,0,1,1045,0,-1560
450,5.077865,-1,-1,1,1047,0,-1565
451,5.089429,2,2,1,1044,0,-1563
452,5.101005,0,0,-1,1048,0,-1557
453,5.112553,0,1,0,1047,-6,-1558
454,5.124156,0,1,-1,1042,-2,-1557
455,5.135708,-1,-1,-2,1045,-1,-1555
456,5.147282,2,0,1,1046,-2,-1561
457,5.158857,1,-1,1,1048,-4,-1563
458,5.170431,0,1,1,1050,0,-1560
459,5.182025,-2,0,0,1049,1,-1562
460,5.193674,1,1,-1,1049,2,-1558
461,5.205335,-1,-1,0,1045,-3,-1568
462,5.216993,-1,-2,1,1046,-1,-1561
463,5.228642,1,0,2,1046,1,-1560
464,5.240296,-2,3,0,1045,-1,-1555
465,5.251964,-1,0,-1,1045,0,-1563
466,5.263612,-1,-1,-1,1049,1,-1558
467,5.275312,2,3,0,1047,-1,-1563
468,5.286973,-2,1,3,1046,0,-1559
469,5.298544,-2,2,-1,1047,-1,-1558
470,5.310114,1,0,0,1047,1,-1561
471,5.321668,1,2,0,1046,0,-1563
472,5.33321,0,0,0,1048,-3,-1556
473,5.344765,-1,3,-1,1048,0,-1559
474,5.356315,1,1,1,1048,-4,-1555
475,5.367889,1,0,3,1048,-2,-1556
476,5.379504,-1,3,1,1048,0,-1559
477,5.391123,1,-1,-2,1046,-2,-1557
478,5.402807,0,-1,-1,1050,-1,-1565
479,5.414471,0,-3,0,1044,0,-1560
480,5.426152,1,0,1,1048,-1,-1561
481,5.437813,1,-2,0,1048,-2,-1562
482,5.449465,1,1,2,1049,1,-1561
483,5.46114,0,-1,0,1051,-3,-1565
484,5.472802,-2,1,0,1045,0,-1557
485,5.48447,2,0,0,1044,-1,-1561
486,5.49616,3,-1,0,1049,1,-1556
487,5.507817,0,-1,1,1048,-2,-1556
488,5.519475,-1,0,1,1043,2,-1555
489,5.53114,2,1,-1,1043,-2,-1556
490,5.542799,0,0,-2,1046,3,-1557
491,5.554459,0,3,1,1049,-2,-1558
492,5.5661,0,1,0,1045,1,-1559
493,5.577745,-1,-1,-1,1046,1,-1555
494,5.589426,-1,0,0,1046,0,-1559
495,5.601088,0,1,-2,1046,-2,-1561
496,5.612742,0,1,0,1047,-2,-1561
497,5.624419,0,0,0,1044,2,-1563
498,5.636066,0,1,0,1049,1,-1561
499,5.647715,-1,0,0,1045,1,-1555
500,5.659387,0,0,-1,1049,1,-1557
501,5.67105,0,-2,-1,1043,-3,-1561
502,5.682718,0,0,0,1048,-2,-1553
503,5.694426,2,1,0,1046,-2,-1557
504,5.70601,2,2,0,1044,-2,-1554
505,5.717583,0,1,1,1049,0,-1553
506,5.729135,0,1,-1,1047,0,-1558
507,5.740688,0,-1,0,1046,0,-1555
508,5.752256,0,-2,-2,1048,1,-1561
509,5.763791,1,0,1,1045,3,-1560
510,5.77537,1,-2,-1,1041,-1,-1555
511,5.786922,-1,0,1,1046,2,-1561
512,5.7985,2,1,0,1049,2,-1557
513,5.810164,0,-2,-2,1046,2,-1561
514,5.821811,0,1,0,1048,3,-1558
515,5.833494,0,-1,0,1048,2,-1555
516,5.845176,2,2,-1,1042,-1,-1551
517,5.856827,0,-1,0,1046,-2,-1559
518,5.868497,0,-1,-1,1050,2,-1561
519,5.880175,0,-1,1,1050,0,-1558
520,5.891821,-1,1,-1,1047,0,-1559
521,5.903554,-2,1,0,1045,1,-1560
522,5.915245,0,0,0,1045,0,-1554
523,5.926931,0,1,0,1047,2,-1556
524,5.938588,0,1,2,1045,0,-1552
525,5.950285,0,0,-1,1048,-3,-1559
526,5.961931,-1,1,1,1045,1,-1558
527,5.973578,1,0,1,1046,-4,-1552
528,5.985261,0,-1,-1,1049,1,-1559
529,5.996925,-1,0,-1,1047,4,-1560
530,6.008587,0,0,-1,1049,-1,-1557
531,6.020151,-2,2,0,1044,0,-1553
532,6.031728,1,-1,1,1043,0,-1565
533,6.043278,1,1,-1,1049,1,-1557
534,6.054855,1,1,0,1047,-1,-1556
535,6.066408,0,-1,-1,1048,0,-1561
536,6.077992,-1,-1,0,1041,1,-1553
537,6.089534,-1,0,1,1046,0,-1558
538,6.101101,-1,2,-2,1047,0,-1558
539,6.112712,0,1,0,1044,0,-1562
540,6.124374,1,0,0,1044,0,-1559
541,6.136028,0,-2,1,1048,4,-1567
542,6.147674,1,1,1,1042,0,-1558
543,6.159309,0,2,-1,1048,1,-1555
544,6.17099,2,1,0,1047,2,-1553
545,6.182668,1,0,0,1046,-3,-1564
546,6.194325,0,1,0,1045,1,-1550
547,6.206035,-1,2,-1,1048,-3,-1556
548,6.217585,1,0,-1,1050,0,-1561
549,6.229141,-1,1,-1,1048,4,-1569
550,6.240754,0,0,-2,1048,2,-1560
551,6.252333,0,0,1,1044,0,-1554
552,6.263878,1,0,1,1047,3,-1561
553,6.27546,0,2,-1,1048,-3,-1559
554,6.286979,1,2,0,1044,0,-1558
555,6.298499,1,-3,-1,1046,-1,-1560
556,6.310036,-1,1,-2,1047,0,-1556
557,6.32166,-2,0,1,1049,-1,-1557
558,6.33334,2,-1,0,1045,3,-1555
559,6.345004,-2,1,1,1047,3,-1555
560,6.35666,1,1,-1,1046,0,-1562
561,6.368306,1,-1,1,1045,1,-1559
562,6.379968,0,0,1,1046,0,-1558
563,6.391609,0,-1,1,1043,-3,-1558
564,6.403295,0,2,1,1047,0,-1557
565,6.414978,2,-1,-1,1051,1,-1561
566,6.426653,0,2,0,1048,0,-1550
567,6.438251,0,0,0,1045,0,-1559
568,6.449836,-1,0,1,1044,2,-1558
569,6.461383,0,0,-1,1044,-1,-1559
570,6.472942,-1,1,0,1048,1,-1563
571,6.484496,0,1,-2,1047,-3,-1558
572,6.496046,0,2,1,1046,-2,-1563
573,6.5076,0,-1,-2,1047,0,-1555
574,6.519226,0,0,1,1049,2,-1556
575,6.530912,-1,1,-2,1044,-1,-1560
576,6.542576,3,1,1,1047,-2,-1561
577,6.554283,0,-1,-2,1045,3,-1557
578,6.565945,0,2,1,1049,2,-1560
579,6.577622,2,-1,1,1049,-2,-1558
580,6.589277,2,2,0,1047,0,-1562
581,6.600927,-1,0,3,1046,0,-1559
582,6.612618,1,1,1,1049,2,-1561
583,6.624281,0,-1,-1,1046,2,-1558
584,6.635937,0,2,-3,1051,0,-1560
585,6.647608,-1,-1,1,1048,0,-1562
586,6.659286,-1,0,2,1048,0,-1562
587,6.670948,1,1,0,1047,-1,-1561
588,6.682621,1,0,-1,1048,-1,-1555
589,6.694282,2,1,0,1049,2,-1555
590,6.705928,0,-1,-1,1045,1,-1562
591,6.717594,-2,2,0,1049,2,-1557
592,6.729275,1,2,0,1042,-2,-1559
593,6.740931,0,-1,2,1048,-3,-1552
594,6.75261,-1,-2,0,1046,0,-1563
595,6.764258,1,0,-1,1045,0,-1559
596,6.775933,3,0,1,1048,0,-1561
597,6.787599,1,2,0,1044,-1,-1554
598,6.799275,1,2,1,1048,0,-1565
599,6.81093,1,-2,0,1046,-1,-1555
600,6.822612,1,-1,0,1045,0,-1558
601,6.834267,2,0,0,1044,-1,-1568
602,6.845822,2,-2,-1,1048,0,-1562
603,6.857366,1,1,-2,1042,0,-1557
604,6.868917,2,-1,0,1050,0,-1560
605,6.880464,-1,-2,1,1044,3,-1561
606,6.892049,2,-1,2,1044,-1,-1559
607,6.903599,0,2,-1,1045,2,-1555
608,6.915186,0,1,1,1047,4,-1556
609,6.926736,0,3,0,1048,1,-1562
610,6.938261,1,2,-1,1046,2,-1564
611,6.949955,-1,1,0,1044,-2,-1561
612,6.961621,-2,1,-1,1049,0,-1560
613,6.973265,1,1,0,1048,0,-1554
614,6.984933,-2,0,0,1049,0,-1561
615,6.996593,1,1,-2,1045,-1,-1561
616,7.008243,1,0,-1,1050,2,-1560
617,7.019925,1,1,0,1048,2,-1562
618,7.031575,0,-1,1,1047,-1,-1562
619,7.04328,0,1,1,1042,0,-1557
620,7.054964,1,1,1,1046,0,-1563
621,7.066619,0,0,0,1049,4,-1558
622,7.078285,0,1,-2,1046,3,-1557
623,7.08995,0,0,2,1046,2,-1557
624,7.101614,1,3,0,1047,0,-1556
625,7.113261,-1,-1,-1,1048,-2,-1562
626,7.12491,1,2,2,1045,-1,-1557
627,7.136581,0,2,0,1047,-1,-1554
628,7.148242,0,1,3,1047,-1,-1558
629,7.159925,1,1,0,1046,-4,-1557
630,7.171604,0,0,1,1047,-4,-1557
631,7.183273,3,1,0,1045,1,-1560
632,7.194939,-2,2,0,1050,1,-1559
633,7.206617,2,0,0,1046,0,-1551
634,7.218285,0,1,0,1048,-3,-1565
635,7.229934,0,1,0,1044,2,-1559
636,7.241599,0,1,1,1049,-5,-1555
637,7.253273,0,1,-2,1046,0,-1561
638,7.264927,0,2,-1,1044,-1,-1557
639,7.276594,1,-1,0,1047,0,-1560
640,7.288238,0,1,1,1046,-2,-1565
641,7.299887,-1,-1,-2,1050,-2,-1558
642,7.311595,-2,-1,4,1047,3,-1564
643,7.323293,-2,0,-1,1049,0,-1557
644,7.334966,1,-1,-1,1044,-1,-1556
645,7.346648,0,2,-1,1044,0,-1564
646,7.358367,1,0,0,1046,0,-1558
647,7.370018,0,1,2,1051,0,-1554
648,7.381582,0,1,0,1044,4,-1554
649,7.39316,-2,1,1,1047,0,-1562
650,7.404703,-1,1,-1,1043,-3,-1558
651,7.416248,0,1,2,1047,0,-1556
652,7.4278,0,0,-2,1047,1,-1561
653,7.439357,0,-1,-1,1048,3,-1563
654,7.450914,-2,0,-2,1044,-1,-1555
655,7.462517,0,0,0,1050,-2,-1558
656,7.474167,0,0,1,1046,-4,-1556
657,7.485844,0,-1,-1,1051,3,-1566
658,7.497494,0,2,1,1045,1,-1558
659,7.509145,1,1,1,1048,-2,-1554
660,7.520821,1,0,-1,1046,1,-1558
661,7.532472,1,0,-2,1047,-1,-1561
662,7.544119,-1,3,-2,1044,0,-1557
663,7.555788,0,0,2,1044,-5,-1551
664,7.567455,0,1,0,1047,0,-1563
665,7.578972,0,0,0,1041,1,-1557
666,7.590513,-1,0,0,1044,1,-1555
667,7.60207,1,2,2,1041,0,-1562
668,7.613619,1,-2,-2,1046,-2,-1558
669,7.625164,-1,1,0,1044,0,-1558
670,7.636737,-1,1,-1,1048,-1,-1557
671,7.648289,0,1,0,1044,-1,-1557
672,7.659838,2,-1,-2,1048,-1,-1556
673,7.671406,0,-1,-2,1047,0,-1565
674,7.683064,2,0,-2,1048,-3,-1556
675,7.694837,-1,1,-1,1050,0,-1553
676,7.706585,1,1,1,1047,-2,-1556
677,7.718286,0,-1,-1,1049,1,-1564
678,7.730003,-1,1,1,1046,1,-1563
679,7.741663,-2,0,1,1048,2,-1559
680,7.753335,0,-1,-1,1049,-1,-1558
681,7.764984,1,-1,-1,1045,-1,-1553
682,7.77663,1,-1,0,1046,2,-1559
683,7.788184,0,1,1,1043,-2,-1554
684,7.799729,0,1,-1,1049,-4,-1559
685,7.811288,-1,0,2,1046,-1,-1559
686,7.822862,2,-2,-1,1047,0,-1563
687,7.834436,0,1,0,1044,4,-1562
688,7.846018,1,0,0,1051,-1,-1556
689,7.857572,1,0,-1,1049,5,-1561
690,7.869133,3,0,3,1049,-1,-1559
691,7.880764,1,1,0,1045,-1,-1559
692,7.892433,0,1,-1,1051,1,-1563
693,7.904091,0,-1,0,1044,0,-1559
694,7.915736,1,1,-2,1045,-1,-1565
695,7.927391,2,2,-2,1045,0,-1553
696,7.939067,0,-1,2,1049,2,-1563
697,7.950725,1,0,0,1047,3,-1558
698,7.962414,2,-1,1,1046,1,-1551
699,7.974089,1,1,1,1047,1,-1557
700,7.985752,0,-1,-2,1044,1,-1560
701,7.997329,-1,1,-1,1046,0,-1555
702,8.008891,1,2,2,1048,3,-1558
703,8.020447,-1,-1,0,1047,2,-1560
704,8.032007,1,1,0,1046,0,-1558
705,8.043551,-1,-1,0,1045,0,-1558
706,8.055112,1,1,0,1049,0,-1556
707,8.06673,0,2,2,1043,2,-1556
708,8.07829,-1,1,1,1046,0,-1563
709,8.090054,-1,0,0,1045,-1,-1564
710,8.10172,1,0,1,1049,-1,-1555
711,8.113368,0,-1,-1,1041,4,-1564
712,8.125039,0,3,1,1046,0,-1563
713,8.136695,-1,1,-1,1045,4,-1558
714,8.148351,1,2,0,1048,2,-1554
715,8.160001,-1,-1,1,1048,1,-1565
716,8.171654,1,1,0,1049,2,-1558
717,8.183379,1,-1,2,1048,1,-1560
718,8.195067,-1,0,0,1047,-3,-1559
719,8.206636,-1,1,1,1048,-3,-1557
720,8.218255,0,0,-1,1046,0,-1558
721,8.229811,-1,1,-1,1045,-4,-1561
722,8.241374,0,0,1,1042,0,-1556
723,8.252917,1,0,1,1046,0,-1556
724,8.264481,-1,2,0,1047,-4,-1557
725,8.276026,1,0,2,1046,1,-1550
726,8.287583,-1,2,1,1047,-2,-1558
727,8.29921,1,0,0,1047,0,-1552
728,8.310868,0,0,-1,1045,-4,-1560
729,8.322538,0,1,0,1041,-1,-1551
730,8.334186,1,0,1,1046,0,-1564
731,8.345834,0,3,0,1050,1,-1564
732,8.3575,1,0,-1,1048,0,-1562
733,8.369191,-2,1,0,1047,0,-1562
734,8.380927,1,2,0,1044,2,-1559
735,8.392623,-1,0,-1,1047,0,-1561
736,8.404284,0,-3,0,1050,0,-1557
737,8.415938,1,0,1,1046,2,-1552
738,8.427623,1,0,0,1045,2,-1566
739,8.439317,0,-1,3,1045,0,-1559
740,8.450995,-1,1,0,1045,5,-1556
741,8.462698,0,1,0,1047,0,-1563
742,8.474355,-1,1,1,1045,1,-1557
743,8.486029,0,1,-1,1046,-1,-1557
744,8.497685,0,0,0,1049,-3,-1549
745,8.509344,-1,1,1,1047,-2,-1558
746,8.520902,1,-1,0,1046,1,-1557
747,8.532479,0,1,-1,1047,0,-1558
748,8.544021,0,0,0,1048,-4,-1560
749,8.555557,-1,0,2,1045,3,-1555
750,8.56711,1,0,1,1046,0,-1554
751,8.57866,0,1,1,1050,0,-1558
752,8.590248,1,0,-2,1048,-2,-1565
753,8.601871,0,1,0,1042,1,-1562
754,8.613625,2,-1,-1,1049,-5,-1562
755,8.625305,3,0,-1,1047,-2,-1555
756,8.636959,-1,0,0,1047,4,-1559
757,8.648655,1,1,1,1047,2,-1559
758,8.66031,1,-1,0,1045,0,-1560
759,8.671979,-1,1,0,1050,-3,-1559
760,8.683665,0,1,0,1046,-4,-1563
761,8.695311,-1,1,2,1045,1,-1558
762,8.706986,-2,-1,2,1044,1,-1560
763,8.718685,0,3,-1,1047,1,-1562
764,8.730252,-1,0,2,1050,3,-1559
765,8.7418,1,0,1,1050,3,-1551
766,8.753358,0,1,-1,1044,0,-1562
767,8.764911,1,-1,1,1052,0,-1559
768,8.776475,-1,2,0,1044,-1,-1553
769,8.788055,0,-1,0,1048,-2,-1558
770,8.799643,2,0,1,1048,0,-1563
771,8.811234,2,-1,-1,1047,2,-1559
772,8.82287,2,0,0,1045,-2,-1560
773,8.834556,0,1,1,1045,3,-1564
774,8.846248,0,-1,0,1048,-1,-1565
775,8.857906,-1,0,0,1044,0,-1559
776,8.869553,0,0,0,1050,0,-1558
777,8.881206,1,0,0,1047,0,-1562
778,8.892864,0,0,-1,1048,-3,-1556
779,8.904525,1,1,-1,1048,0,-1564
780,8.916201,4,0,-2,1043,1,-1568
781,8.927877,0,1,0,1048,-1,-1556
782,8.939484,0,2,0,1044,-1,-1559
783,8.951083,0,-1,1,1046,2,-1551
784,8.962645,1,1,-1,1047,-1,-1556
785,8.97423,1,1,0,1048,-1,-1558
786,8.98578,0,2,1,1046,1,-1563
787,8.997327,2,2,0,1046,2,-1558
788,9.008881,0,1,-1,1044,2,-1558
789,9.020465,-1,1,1,1047,5,-1563
790,9.032113,1,-1,0,1048,-1,-1557
791,9.043776,-1,-2,-1,1049,-1,-1558
792,9.05544,-1,-1,-2,1044,0,-1556
793,9.06711,0,0,0,1049,-1,-1564
794,9.078791,-2,2,-1,1044,-3,-1559
795,9.090451,-1,0,-1,1046,2,-1555
796,9.10214,0,0,0,1045,5,-1563
797,9.113794,2,0,-1,1049,1,-1563
798,9.125443,1,-1,0,1047,0,-1558
799,9.136999,1,0,-1,1046,3,-1557
800,9.148554,3,0,1,1046,2,-1554
801,9.160105,0,-1,4,1047,0,-1561
802,9.171714,2,1,-1,1044,0,-1558
803,9.183308,1,0,0,1048,-1,-1561
804,9.194862,1,1,2,1041,-3,-1558
805,9.20643,1,3,1,1048,1,-1558
806,9.218005,1,1,0,1045,-2,-1563
807,9.229568,2,0,1,1047,1,-1557
808,9.241214,-2,1,-3,1047,-1,-1558
809,9.252881,2,-1,-1,1045,1,-1559
810,9.26454,0,-1,-1,1045,-1,-1560
811,9.276196,0,-2,0,1047,0,-1557
812,9.287859,0,1,0,1045,0,-1559
813,9.299519,2,0,-2,1046,1,-1562
814,9.311186,-1,0,0,1046,0,-1557
815,9.322852,1,1,1,1047,7,-1567
816,9.334548,0,-1,2,1046,4,-1564
817,9.346209,-2,2,1,1046,0,-1558
818,9.357763,0,-2,1,1052,0,-1554
819,9.369318,-1,0,1,1049,0,-1559
820,9.380869,0,1,-2,1048,-2,-1557
821,9.392438,0,1,2,1048,-3,-1557
822,9.404113,1,-1,-1,1049,1,-1562
823,9.415671,0,2,2,1048,0,-1561
824,9.42723,-2,1,0,1049,-3,-1566
825,9.438835,1,1,0,1046,2,-1556
826,9.450541,0,-2,-1,1048,0,-1557
827,9.462218,1,1,0,1047,1,-1557
828,9.47388,-1,-3,-1,1045,0,-1563
829,9.485538,1,1,3,1047,7,-1562
830,9.49719,-1,1,0,1043,1,-1557
831,9.508858,1,1,-2,1045,3,-1560
832,9.520515,0,0,1,1047,-1,-1559
833,9.53216,-1,1,-1,1046,0,-1565
834,9.543861,1,1,0,1042,-1,-1565
835,9.555565,1,0,0,1047,0,-1560
836,9.567244,0,-1,-1,1048,-4,-1559
837,9.578966,0,-1,0,1047,-1,-1556
838,9.590645,1,0,1,1047,1,-1563
839,9.602284,0,-1,1,1048,-2,-1560
840,9.613964,0,0,0,1049,0,-1555
841,9.625612,-1,0,1,1045,-1,-1559
842,9.637265,3,-1,-1,1046,-2,-1560
843,9.648938,-1,1,-3,1048,0,-1556
844,9.660624,-1,1,-1,1046,0,-1561
845,9.672195,1,0,1,1047,1,-1556
846,9.683752,0,1,1,1045,-2,-1565
847,9.695367,-1,-1,2,1047,0,-1562
848,9.706934,1,-1,0,1049,-1,-1559
849,9.718505,0,5,1,1045,0,-1554
850,9.730076,1,3,1,1047,0,-1561
851,9.741662,1,2,1,1050,1,-1555
852,9.753221,0,0,-3,1047,0,-1558
853,9.76478,-2,1,3,1043,-3,-1556
854,9.77633,1,-2,3,1043,4,-1555
855,9.787879,-1,-1,1,1048,4,-1558
856,9.799463,0,2,1,1043,-1,-1560
857,9.81105,0,-1,2,1042,2,-1552
858,9.822625,2,-2,-2,1048,0,-1560
859,9.834192,1,-2,0,1046,0,-1564
860,9.845739,-1,0,-2,1047,5,-1561
861,9.857299,0,-1,2,1049,-2,-1555
862,9.868971,-2,1,-1,1049,0,-1562
863,9.880627,-1,-1,-1,1046,1,-1560
864,9.892319,1,0,1,1048,1,-1559
865,9.903948,0,0,1,1048,0,-1559
866,9.91565,1,0,1,1048,0,-1564
867,9.927327,0,0,1,1048,-2,-1556
868,9.938988,1,-1,0,1046,2,-1555
869,9.9507,0,0,1,1046,0,-1559
870,9.962432,-1,1,0,1044,3,-1553
871,9.974151,0,-1,2,1050,0,-1558
872,9.985709,2,-1,0,1047,0,-1559
873,9.99726,2,3,-1,1042,0,-1559
874,10.008816,0,0,0,1046,-1,-1557
875,10.020366,-2,-1,-3,1049,4,-1554
876,10.03193,0,-1,-1,1043,-1,-1559
877,10.043525,0,1,0,1047,0,-1559
878,10.055103,1,0,0,1047,0,-1562
879,10.06668,0,0,0,1048,0,-1564
880,10.078289,0,0,1,1044,1,-1559
881,10.089952,-1,-2,0,1048,0,-1563
882,10.101599,0,0,0,1047,1,-1562
883,10.113249,-1,0,-1,1047,0,-1558
884,10.124918,1,0,-2,1048,0,-1566
885,10.13657,1,0,4,1048,0,-1558
886,10.148219,1,0,0,1044,0,-1556
887,10.159868,0,0,-2,1046,-1,-1562
888,10.171572,1,0,0,1048,-3,-1563
889,10.183227,-1,0,-1,1048,0,-1561
890,10.194792,1,1,-2,1045,-2,-1563
891,10.206402,1,2,0,1046,3,-1555
892,10.21796,0,1,1,1043,4,-1562
893,10.229524,2,0,1,1048,-4,-1557
894,10.24107,1,1,0,1043,0,-1562
895,10.252628,0,0,0,1048,-3,-1557
896,10.264176,0,1,-1,1050,-1,-1560
897,10.275732,0,0,0,1047,0,-1554
898,10.287413,-1,-1,-1,1047,0,-1561
899,10.299063,2,-1,0,1046,0,-1555
900,10.31073,2,-1,-1,1045,0,-1561
901,10.322431,0,1,0,1047,2,-1559
902,10.334087,1,0,1,1044,4,-1560
903,10.345745,0,0,1,1048,3,-1561
904,10.357391,0,0,-1,1045,0,-1556
905,10.369047,0,0,1,1042,1,-1553
906,10.380715,0,0,0,1048,0,-1556
907,10.392363,-1,3,-1,1045,0,-1563
908,10.40392,0,0,0,1046,2,-1562
909,10.415467,1,2,-1,1052,1,-1551
910,10.427159,1,0,0,1044,0,-1561
911,10.438732,0,-2,1,1048,-1,-1570
912,10.450254,-1,2,0,1047,0,-1562
913,10.461807,1,0,-2,1050,-2,-1561
914,10.473377,1,4,-1,1046,1,-1564
915,10.484937,-1,-2,-1,1045,-3,-1560
916,10.496568,0,0,1,1048,0,-1558
917,10.508225,0,1,-2,1046,0,-1560
918,10.519863,-1,1,0,1044,0,-1567
919,10.53156,1,0,0,1048,1,-1561
920,10.543224,1,1,0,1047,2,-1557
921,10.554909,0,1,2,1048,-1,-1553
922,10.566546,2,1,0,1044,3,-1557
923,10.578202,1,-1,2,1049,1,-1558
924,10.589837,2,0,1,1045,1,-1559
925,10.60139,0,-1,0,1047,2,-1561
926,10.612939,-1,0,1,1045,-1,-1556
927,10.624504,2,-1,2,1050,4,-1562
928,10.636044,0,1,0,1045,-2,-1566
929,10.647581,-2,-2,1,1046,4,-1565
930,10.659156,2,-2,-1,1042,-1,-1558
931,10.670726,0,0,-1,1046,0,-1563
932,10.682255,2,0,2,1045,2,-1563
933,10.693826,0,1,-2,1045,-1,-1555
934,10.705454,-2,-1,3,1041,-3,-1556
935,10.717099,1,1,3,1046,2,-1552
936,10.728751,-1,1,0,1049,0,-1558
937,10.740423,0,0,-1,1047,0,-1555
938,10.752068,2,1,-1,1044,3,-1554
939,10.763717,0,0,-1,1047,0,-1559
940,10.77539,1,-1,0,1049,0,-1556
941,10.787053,1,-1,0,1049,2,-1566
942,10.798724,0,3,-2,1047,-2,-1558
943,10.810403,-1,0,0,1047,0,-1561
944,10.822012,-2,0,2,1046,2,-1562
945,10.833564,1,-1,1,1048,1,-1563
946,10.84512,1,2,1,1051,1,-1563
947,10.856678,1,1,1,1045,2,-1564
948,10.86825,-1,1,0,1048,0,-1557
949,10.879836,-1,1,0,1045,1,-1562
950,10.891394,2,1,1,1046,-1,-1560
951,10.903,1,1,3,1046,0,-1561
952,10.914679,1,0,0,1049,-3,-1559
953,10.926344,-1,2,-2,1049,-1,-1559
954,10.938028,-1,1,0,1052,0,-1552
955,10.949689,0,0,0,1045,2,-1557
956,10.961343,0,0,0,1049,5,-1561
957,10.973019,2,2,-1,1049,3,-1556
958,10.984675,-1,0,0,1049,3,-1561
959,10.996329,3,2,-2,1045,-1,-1560
960,11.008021,0,-1,0,1045,0,-1561
961,11.01969,-1,0,1,1045,0,-1563
962,11.031249,1,0,-1,1051,0,-1551
963,11.042832,-1,-1,0,1043,0,-1564
964,11.054406,1,-1,1,1048,-1,-1558
965,11.066002,-1,0,1,1051,0,-1563
966,11.077543,1,1,-1,1047,0,-1563
967,11.089089,0,-2,0,1040,0,-1562
968,11.100637,1,1,1,1048,0,-1555
969,11.112194,1,1,-1,1051,1,-1554
970,11.123811,0,1,1,1047,2,-1563
971,11.135467,1,1,-1,1048,0,-1560
972,11.14714,1,-1,-1,1045,-2,-1561
973,11.1588,2,0,3,1051,0,-1558
974,11.170458,3,0,0,1046,0,-1557
975,11.182149,0,1,0,1045,1,-1553
976,11.193789,0,1,2,1046,2,-1553
977,11.205439,0,0,0,1043,0,-1561
978,11.217094,-1,1,1,1048,4,-1557
979,11.228759,1,0,2,1047,0,-1562
980,11.240348,-2,2,-1,1044,-1,-1561
981,11.251907,2,1,0,1047,-2,-1565
982,11.263473,-1,1,1,1044,1,-1562
983,11.275025,2,-1,1,1046,-1,-1563
984,11.286618,0,1,-1,1045,-3,-1563
985,11.298172,0,0,2,1045,-1,-1559
986,11.309723,-1,0,0,1046,0,-1560
987,11.321293,2,2,-1,1045,0,-1557
988,11.332924,0,0,0,1047,1,-1559
989,11.344607,1,1,-2,1050,3,-1566
990,11.356272,0,2,1,1043,0,-1555
991,11.36793,1,-1,-1,1044,0,-1559
992,11.379606,1,-1,2,1044,1,-1556
993,11.391321,1,1,-1,1048,1,-1558
994,11.402984,1,1,0,1049,3,-1558
995,11.414666,0,2,-1,1043,0,-1562
996,11.426355,0,1,0,1047,-1,-1562
997,11.43802,0,5,0,1047,2,-1553
998,11.449598,0,0,1,1047,-2,-1556
999,11.461166,0,3,1,1048,-2,-1559
1000,11.472724,0,2,-2,1046,-3,-1561
1001,11.484277,-2,0,0,1047,-1,-1561
1002,11.495839,0,0,1,1048,-3,-1563
1003,11.507396,0,1,-3,1048,2,-1559
1004,11.518971,0,1,1,1046,4,-1568
1005,11.530515,1,1,-2,1045,-2,-1560
1006,11.542089,0,2,1,1046,3,-1555
1007,11.553634,-2,-1,0,1046,-1,-1557
1008,11.565184,-1,0,-2,1050,2,-1563
1009,11.576733,1,-1,0,1044,0,-1560
1010,11.588283,1,0,0,1045,-2,-1557
1011,11.599846,0,1,2,1051,3,-1565
1012,11.61144,2,-3,0,1046,3,-1556
1013,11.622982,1,0,0,1048,-1,-1555
1014,11.63462,2,-1,4,1047,2,-1560
1015,11.64626,0,1,0,1044,1,-1557
1016,11.657936,2,1,-1,1049,0,-1559
1017,11.669588,0,0,0,1047,-4,-1560
1018,11.681253,0,0,-1,1044,1,-1560
1019,11.692908,1,-2,0,1047,1,-1565
1020,11.704552,0,-1,2,1047,0,-1557
1021,11.716225,2,2,1,1046,0,-1563
1022,11.727875,1,0,0,1046,-2,-1566
1023,11.739584,3,1,-2,1051,1,-1556
1024,11.751273,1,0,1,1048,0,-1556
1025,11.76297,0,2,1,1044,-1,-1560
1026,11.774659,0,2,-2,1048,1,-1561
1027,11.786281,1,0,1,1047,1,-1558
1028,11.797948,0,0,-1,1046,-1,-1558
1029,11.809622,0,1,1,1048,-1,-1557
1030,11.821272,0,1,1,1047,0,-1556
1031,11.832923,2,0,2,1044,0,-1558
1032,11.844666,0,1,-2,1046,3,-1559
1033,11.856313,0,-1,-1,1049,3,-1561
1034,11.867866,-1,0,1,1050,-2,-1564
1035,11.879442,0,1,2,1048,0,-1558
1036,11.890978,0,0,-1,1047,0,-1561
1037,11.902548,2,-1,0,1046,-1,-1552
1038,11.914123,0,-1,0,1050,0,-1560
1039,11.925692,3,-2,1,1048,-1,-1563
1040,11.937246,1,-2,-1,1044,0,-1562
1041,11.948827,0,1,-1,1048,0,-1561
1042,11.960402,0,-1,-1,1046,0,-1556
1043,11.972083,3,1,1,1047,1,-1561
1044,11.983747,-2,1,-1,1048,0,-1557
1045,11.995416,0,-1,3,1048,0,-1553
1046,12.007052,-1,-2,-1,1047,0,-1557
1047,12.01877,0,2,3,1048,0,-1558
1048,12.030421,1,2,0,1045,3,-1556
1049,12.042099,-2,0,0,1048,3,-1554
1050,12.05377,2,2,0,1043,2,-1560
1051,12.065424,-1,1,1,1043,2,-1561
1052,12.076984,0,0,2,1045,0,-1559
1053,12.088554,0,-1,0,1053,6,-1559
1054,12.100104,0,1,1,1047,0,-1557
1055,12.111675,0,2,2,1046,0,-1558
1056,12.123218,0,1,1,1044,-1,-1562
1057,12.134799,0,1,0,1049,0,-1557
1058,12.146377,2,0,0,1043,1,-1563
1059,12.157943,2,0,2,1047,0,-1563
1060,12.169663,0,2,2,1048,0,-1557
1061,12.181343,1,1,-2,1043,-3,-1564
1062,12.193001,-2,-1,-1,1046,0,-1558
1063,12.204655,2,-2,2,1047,2,-1562
1064,12.216336,0,-1,1,1049,-5,-1559
1065,12.227997,0,0,0,1044,0,-1561
1066,12.239648,1,-1,-1,1045,0,-1562
1067,12.251318,1,-1,0,1048,2,-1556
1068,12.263013,0,0,-1,1041,1,-1556
1069,12.274676,0,1,2,1047,1,-1557
1070,12.286252,1,1,0,1048,-1,-1565
1071,12.297812,0,1,0,1047,2,-1557
1072,12.309356,1,0,2,1044,0,-1557
1073,12.320907,1,0,-2,1045,2,-1561
1074,12.332459,2,-2,-1,1045,3,-1562
1075,12.344039,-1,1,0,1049,-3,-1560
1076,12.35559,-1,-1,-1,1045,1,-1559
1077,12.367176,1,-1,-1,1051,1,-1561
1078,12.378794,1,0,-1,1045,-3,-1559
1079,12.390466,-1,1,-2,1047,1,-1561
1080,12.402145,1,-1,0,1044,0,-1558
1081,12.413813,0,1,0,1044,-1,-1560
1082,12.425465,-1,1,0,1046,4,-1563
1083,12.437116,-1,0,0,1046,3,-1563
1084,12.448766,1,0,-1,1048,2,-1556
1085,12.460434,1,0,0,1047,-1,-1558
1086,12.472103,2,0,-2,1047,2,-1559
1087,12.483784,0,0,2,1044,-2,-1555
1088,12.495356,-2,2,-1,1048,0,-1564
1089,12.506946,1,1,2,1046,1,-1554
1090,12.518495,0,0,0,1051,0,-1564
1091,12.530052,2,1,1,1043,-2,-1559
1092,12.541618,1,1,-2,1049,0,-1557
1093,12.55316,-2,2,-1,1048,-1,-1557
1094,12.564715,1,-2,-3,1044,-1,-1559
1095,12.576296,1,-3,0,1051,-2,-1558
1096,12.587945,0,1,-1,1044,1,-1553
1097,12.599601,0,3,2,1043,0,-1560
1098,12.611279,0,-1,0,1045,3,-1557
1099,12.622945,-1,2,0,1048,1,-1555
1100,12.634607,-1,0,-2,1048,0,-1557
1101,12.64628,-1,1,-1,1050,0,-1559
1102,12.657945,-1,1,-1,1042,-1,-1563
1103,12.6696,1,-2,-1,1045,1,-1554
1104,12.681256,2,1,1,1049,-4,-1555
1105,12.692912,1,2,-1,1046,0,-1556
1106,12.704477,-1,0,0,1048,2,-1561
1107,12.716044,1,2,1,1048,-1,-1559
1108,12.727625,1,0,-1,1047,-1,-1566
1109,12.739202,1,0,2,1047,-1,-1561
1110,12.750738,0,-4,1,1047,0,-1555
1111,12.762296,0,-1,-2,1045,0,-1562
1112,12.773879,-1,0,1,1048,-2,-1561
1113,12.785443,1,2,1,1047,0,-1558
1114,12.797085,1,1,-1,1044,2,-1561
1115,12.808745,0,0,0,1047,0,-1559
1116,12.820394,0,-1,1,1050,-1,-1559
1117,12.832068,1,-1,-3,1047,2,-1556
1118,12.843721,1,2,0,1045,0,-1559
1119,12.855368,0,0,0,1046,0,-1552
1120,12.867041,0,0,-1,1044,0,-1558
1121,12.878734,0,-1,0,1051,0,-1562
1122,12.890418,1,0,-3,1045,0,-1554
1123,12.902082,-1,-1,-2,1045,0,-1555
1124,12.913672,-1,-1,1,1043,0,-1560
1125,12.92523,1,2,0,1046,0,-1558
1126,12.936784,0,0,0,1046,-2,-1563
1127,12.948331,0,0,0,1049,1,-1559
1128,12.95988,2,2,-2,1049,-1,-1563
1129,12.971474,0,-1,0,1046,0,-1555
1130,12.983029,1,0,0,1046,1,-1559
1131,12.994616,-1,0,1,1042,3,-1564
1132,13.006277,1,1,-1,1044,0,-1558
1133,13.017935,0,1,3,1042,-1,-1557
1134,13.029589,4,-1,1,1045,1,-1558
1135,13.041237,0,0,0,1047,0,-1563
1136,13.052886,1,1,0,1049,0,-1561
1137,13.06456,1,1,0,1047,-1,-1565
1138,13.076211,-1,1,-2,1044,-2,-1561
1139,13.08786,-1,1,-1,1047,-1,-1555
1140,13.099571,-1,0,0,1048,0,-1566
1141,13.111243,0,1,-2,1043,-1,-1554
1142,13.122799,2,0,1,1045,3,-1556
1143,13.134369,0,-1,-1,1043,-1,-1559
1144,13.145916,-1,2,2,1043,-2,-1555
1145,13.157458,-1,-1,1,1047,0,-1564
1146,13.169006,-1,1,1,1044,1,-1562
1147,13.180559,0,0,1,1044,3,-1560
1148,13.192146,0,3,1,1045,0,-1566
1149,13.203704,0,1,1,1047,-3,-1569
1150,13.215304,0,2,1,1048,0,-1554
1151,13.22697,0,1,-1,1046,2,-1561
1152,13.23862,1,0,0,1047,0,-1562
1153,13.250283,2,0,0,1049,1,-1559
1154,13.261939,-1,1,-1,1045,-1,-1558
1155,13.273589,1,0,2,1045,-3,-1559
1156,13.285269,0,-2,-1,1045,0,-1559
1157,13.296927,2,1,0,1050,3,-1559
1158,13.308589,1,0,2,1045,-2,-1561
1159,13.320245,1,-1,-1,1044,2,-1570
1160,13.331799,0,4,0,1043,3,-1560
1161,13.343363,1,0,-1,1047,3,-1559
1162,13.35492,2,0,1,1047,0,-1554
1163,13.36651,1,1,0,1048,-2,-1561
1164,13.378067,0,1,1,1045,0,-1565
1165,13.389626,-1,-2,-1,1048,-1,-1558
1166,13.401171,0,1,-1,1050,2,-1559
1167,13.412744,0,-1,0,1048,2,-1556
1168,13.424364,-2,2,1,1049,2,-1560
1169,13.436023,1,3,-1,1047,0,-1557
1170,13.447677,0,2,1,1043,0,-1563
1171,13.45932,0,2,0,1051,1,-1555
1172,13.470972,1,0,2,1046,0,-1560
1173,13.482657,1,-2,1,1045,-1,-1557
1174,13.494292,0,1,-1,1045,-1,-1555
1175,13.505952,1,2,3,1044,5,-1563
1176,13.517596,2,0,0,1049,2,-1565
1177,13.529147,1,0,1,1047,3,-1566
1178,13.540701,0,0,-1,1045,0,-1562
1179,13.552252,1,1,1,1046,3,-1553
1180,13.563807,1,0,-1,1046,0,-1556
1181,13.575363,-1,0,-1,1050,1,-1558
1182,13.586922,0,2,-1,1041,0,-1556
1183,13.598499,-1,1,2,1047,1,-1556
1184,13.610054,-1,0,-1,1043,-4,-1555
1185,13.621638,1,2,1,1051,1,-1557
1186,13.633269,1,0,1,1047,-3,-1552
1187,13.644935,0,0,2,1046,0,-1557
1188,13.656733,2,-1,1,1047,-1,-1566
1189,13.668412,-1,0,0,1048,-2,-1564
1190,13.680332,2,0,0,1045,-1,-1557
1191,13.692116,0,0,0,1047,1,-1561
1192,13.703929,1,-1,-1,1046,-3,-1554
1193,13.71561,0,2,0,1045,3,-1555
1194,13.727436,0,-2,0,1046,-2,-1561
1195,13.739123,0,-1,2,1046,0,-1564
1196,13.750747,0,0,1,1048,4,-1561
1197,13.7623,1,0,-1,1046,0,-1557
1198,13.773847,-2,0,1,1051,0,-1565
1199,13.785407,0,1,-2,1047,-1,-1559
1200,13.796983,1,0,-1,1046,-3,-1561
1201,13.808534,-1,1,-2,1045,0,-1562
1202,13.820109,0,0,-1,1046,-1,-1557
1203,13.831719,-1,-1,-1,1046,-1,-1568
1204,13.843342,1,0,-2,1045,-1,-1561
1205,13.855056,0,1,0,1048,0,-1559
1206,13.866715,-2,0,0,1044,-1,-1558
1207,13.878403,0,0,0,1047,3,-1558
1208,13.890065,-1,-1,0,1045,0,-1555
1209,13.901706,0,2,0,1044,-2,-1560
1210,13.913353,-1,3,-1,1047,1,-1558
1211,13.925026,1,0,1,1047,0,-1565
1212,13.936686,0,0,2,1047,0,-1562
1213,13.948342,1,-3,-1,1049,0,-1556
1214,13.960022,1,1,1,1048,2,-1554
1215,13.971671,0,1,0,1045,-2,-1557
1216,13.983315,2,0,-1,1042,-1,-1559
1217,13.995047,0,1,2,1047,0,-1558
1218,14.006694,0,-1,1,1049,0,-1557
1219,14.018413,1,1,-1,1047,2,-1562
1220,14.030069,1,0,0,1044,0,-1553
1221,14.041762,1,0,2,1047,0,-1555
1222,14.053458,1,1,0,1045,1,-1557
1223,14.065123,0,1,-1,1046,-3,-1566
1224,14.076692,0,0,1,1043,1,-1563
1225,14.088237,0,-1,1,1046,-4,-1563
1226,14.099779,0,2,0,1046,-2,-1556
1227,14.111348,1,0,3,1047,0,-1559
1228,14.122904,0,-1,-1,1046,0,-1559
1229,14.1345,-2,0,-2,1050,-1,-1555
1230,14.14612,0,-1,-1,1047,0,-1566
1231,14.157817,-1,-1,0,1048,-2,-1565
1232,14.169479,1,-1,0,1047,-2,-1558
1233,14.181147,0,-1,-1,1043,1,-1562
1234,14.19281,1,1,1,1048,-2,-1558
1235,14.204484,1,-1,1,1047,2,-1556
1236,14.216151,1,-2,0,1044,3,-1558
1237,14.227795,1,1,-1,1046,-1,-1563
1238,14.239455,0,0,0,1046,-1,-1555
1239,14.25115,1,0,2,1045,-1,-1560
1240,14.262815,3,-1,-1,1048,0,-1560
1241,14.274396,-2,-2,1,1043,-2,-1558
1242,14.285961,-1,1,-1,1045,-1,-1562
1243,14.297511,0,0,1,1045,0,-1564
1244,14.309079,-1,0,1,1048,2,-1556
1245,14.32063,0,3,-1,1049,0,-1561
1246,14.33219,0,-1,1,1046,-2,-1561
1247,14.343737,0,1,2,1049,1,-1569
1248,14.355334,0,-1,-1,1047,2,-1559
1249,14.36704,0,-1,0,1047,-1,-1561
1250,14.378726,1,-1,1,1045,0,-1560
1251,14.390433,-2,1,-1,1047,0,-1559
1252,14.402088,0,1,-1,1046,2,-1559
1253,14.41376,-1,-1,1,1046,2,-1556
1254,14.425401,0,1,1,1048,0,-1555
1255,14.437054,0,0,-2,1050,3,-1563
1256,14.448723,0,1,-1,1048,0,-1557
1257,14.460395,-1,0,0,1048,-3,-1557
1258,14.472056,0,1,1,1047,0,-1561
1259,14.48362,-1,0,1,1048,-2,-1560
1260,14.495212,-1,-1,1,1047,-1,-1566
1261,14.506735,0,-1,-1,1043,0,-1560
1262,14.518258,1,-1,-1,1049,0,-1559
1263,14.529833,0,1,-2,1046,-2,-1556
1264,14.541374,0,-1,0,1045,1,-1562
1265,14.552933,1,1,0,1046,-2,-1556
1266,14.564497,0,0,-1,1046,-2,-1560
1267,14.576123,-1,-1,0,1049,2,-1563
1268,14.587783,0,2,1,1049,3,-1563
1269,14.599466,1,2,1,1047,2,-1566
1270,14.611161,1,-1,2,1043,-1,-1556
1271,14.622798,-1,0,3,1048,3,-1563
1272,14.634475,-1,0,-2,1049,2,-1564
1273,14.646152,-1,2,0,1047,0,-1558
1274,14.657806,0,0,0,1044,-3,-1560
1275,14.669495,0,0,0,1043,-2,-1565
1276,14.681129,0,1,-1,1050,0,-1559
1277,14.692699,1,-1,0,1049,0,-1560
1278,14.704252,-1,1,-1,1045,-1,-1562
1279,14.71582,-1,1,0,1050,1,-1553
1280,14.727397,-1,-2,1,1049,0,-1564
1281,14.738974,1,0,0,1048,-1,-1565
1282,14.750498,2,-1,0,1049,0,-1559
1283,14.762027,0,0,-1,1047,0,-1556
1284,14.773589,0,-2,-1,1043,0,-1559
1285,14.785229,1,2,0,1046,-4,-1564
1286,14.796883,0,-3,2,1045,-1,-1565
1287,14.808537,1,1,0,1046,0,-1556
1288,14.820208,1,2,-2,1048,0,-1556
1289,14.831868,0,2,-1,1046,-4,-1559
1290,14.84355,-1,0,0,1047,1,-1556
1291,14.855228,0,0,0,1043,-3,-1559
1292,14.866906,-1,1,-2,1044,2,-1555
1293,14.878554,-1,0,-1,1047,2,-1558
1294,14.890216,3,-1,-3,1043,-1,-1560
1295,14.901828,-1,0,-1,1044,-2,-1562
1296,14.913398,0,1,-1,1045,2,-1562
1297,14.924946,-1,1,1,1050,0,-1563
1298,14.936491,0,0,0,1048,0,-1563
1299,14.948048,0,0,-1,1047,-1,-1562
1300,14.959604,0,-1,-1,1046,1,-1562
1301,14.971159,1,0,-1,1045,0,-1564
1302,14.982749,0,1,-1,1047,-1,-1560
1303,14.994436,-2,1,0,1047,2,-1559
1304,15.006139,1,0,0,1045,-2,-1558
1305,15.017784,1,0,1,1041,-2,-1563
1306,15.029434,0,1,3,1049,2,-1555
1307,15.041102,0,2,-2,1046,1,-1562
1308,15.052758,0,0,1,1045,-3,-1560
1309,15.064414,1,1,-1,1048,-1,-1554
1310,15.076067,0,0,2,1048,-1,-1562
1311,15.087745,-1,-2,2,1045,1,-1555
1312,15.099426,-2,3,1,1045,4,-1561
1313,15.110984,0,-2,-1,1044,0,-1554
1314,15.122552,2,1,0,1044,-2,-1561
1315,15.134153,0,1,-2,1051,0,-1563
1316,15.145713,0,-3,0,1048,-3,-1562
1317,15.15729,-2,-1,-1,1042,0,-1559
1318,15.168834,-2,0,-1,1046,0,-1562
1319,15.180378,1,2,0,1046,3,-1559
1320,15.191951,2,3,-1,1045,1,-1560
1321,15.203572,-1,2,1,1048,0,-1562
1322,15.215242,0,1,-1,1048,0,-1562
1323,15.226935,2,-1,0,1045,-1,-1558
1324,15.238596,0,1,1,1044,2,-1562
1325,15.250277,1,1,-2,1049,0,-1551
1326,15.26195,0,2,0,1049,4,-1558
1327,15.273604,1,2,1,1048,0,-1560
1328,15.285258,1,1,2,1050,0,-1561
1329,15.29692,1,-1,0,1045,1,-1563
1330,15.30858,0,1,2,1052,0,-1557
1331,15.320161,3,0,1,1046,-3,-1554
1332,15.331725,1,-1,0,1047,1,-1565
1333,15.343297,1,0,-2,1047,0,-1553
1334,15.354864,2,1,1,1047,3,-1556
1335,15.366427,1,2,1,1052,0,-1556
1336,15.377969,-1,-1,0,1041,0,-1565
1337,15.389517,1,2,0,1049,0,-1559
1338,15.401083,0,1,0,1045,-2,-1551
1339,15.412723,-1,0,0,1045,2,-1562
1340,15.424381,1,2,-2,1050,1,-1564
1341,15.436077,0,2,0,1050,4,-1561
1342,15.447723,1,-1,-1,1045,0,-1557
1343,15.459381,0,0,0,1051,-6,-1558
1344,15.471102,0,-1,1,1049,-1,-1562
1345,15.482775,0,1,-1,1052,0,-1560
1346,15.494455,1,-3,-1,1047,-1,-1555
1347,15.506142,-1,0,0,1049,0,-1560
1348,15.51771,0,2,-2,1046,0,-1562
1349,15.529283,1,0,2,1046,0,-1557
1350,15.540838,-1,3,0,1051,5,-1558
1351,15.552403,0,1,1,1042,0,-1557
1352,15.563954,1,0,-1,1045,-2,-1560
1353,15.57551,-1,2,-1,1048,3,-1557
1354,15.587069,-1,-1,0,1051,-1,-1563
1355,15.598656,0,2,-1,1046,0,-1555
1356,15.610233,0,2,0,1044,0,-1560
1357,15.62179,-1,1,-1,1043,0,-1563
1358,15.633331,0,-1,0,1047,0,-1559
1359,15.644884,0,1,-1,1042,2,-1554
1360,15.65643,1,0,0,1047,1,-1567
1361,15.667974,0,0,0,1046,0,-1559
1362,15.679521,-1,-2,0,1044,5,-1561
1363,15.691104,0,3,0,1049,-2,-1560
1364,15.702661,-2,2,0,1045,1,-1566
1365,15.714249,1,0,0,1046,0,-1560
1366,15.725933,-2,-1,0,1047,0,-1558
1367,15.737586,0,0,1,1045,3,-1560
1368,15.749234,1,-1,-2,1044,2,-1558
1369,15.760897,1,0,1,1048,4,-1564
1370,15.772558,-1,2,0,1045,-1,-1553
1371,15.78421,1,0,-1,1048,0,-1557
1372,15.795855,-1,0,-1,1050,-2,-1561
1373,15.807524,0,-1,0,1044,-1,-1554
1374,15.819204,-1,1,0,1047,-2,-1559
1375,15.830861,1,0,-1,1049,-1,-1561
1376,15.842541,0,0,0,1044,0,-1560
1377,15.85421,0,2,0,1047,0,-1562
1378,15.865851,-1,0,1,1047,0,-1560
1379,15.877516,-2,1,1,1046,0,-1560
1380,15.889187,2,0,1,1047,0,-1559
1381,15.900838,-1,1,1,1046,0,-1557
1382,15.912518,-1,2,-1,1048,2,-1556
1383,15.924192,0,-1,1,1051,1,-1558
1384,15.935837,1,1,0,1048,-3,-1561
1385,15.947487,1,0,-1,1048,0,-1561
1386,15.959179,1,2,-1,1047,-1,-1559
1387,15.970832,-1,1,0,1046,0,-1557
1388,15.982507,0,-2,1,1048,-4,-1554
1389,15.994187,1,1,1,1044,-1,-1562
1390,16.005832,0,1,0,1045,1,-1556
1391,16.01748,0,2,0,1049,5,-1561
1392,16.029025,-1,2,-1,1046,2,-1558
1393,16.040565,0,1,0,1046,4,-1558
1394,16.052123,-1,0,-1,1049,-2,-1557
1395,16.063684,0,2,1,1046,2,-1556
1396,16.075245,1,1,1,1048,3,-1565
1397,16.086794,0,0,1,1045,1,-1561
1398,16.098334,0,0,-1,1044,0,-1556
1399,16.109893,0,2,-1,1044,-1,-1561
1400,16.121442,2,-2,1,1047,-5,-1561
1401,16.133092,-1,-1,0,1043,0,-1561
1402,16.144742,2,-2,-1,1047,1,-1563
1403,16.156412,0,-1,-2,1044,1,-1559
1404,16.16806,0,0,0,1046,4,-1558
1405,16.179719,3,0,-1,1045,-5,-1560
1406,16.191398,2,1,0,1043,0,-1559
1407,16.203052,2,-2,1,1044,0,-1560
1408,16.21473,3,4,-1,1047,0,-1554
1409,16.22641,0,1,0,1047,0,-1561
1410,16.238019,-1,-1,2,1047,0,-1562
1411,16.249593,0,2,-1,1047,0,-1562
1412,16.261135,0,0,-1,1050,-2,-1560
1413,16.272675,1,-1,-1,1046,2,-1560
1414,16.284224,0,1,1,1048,0,-1561
1415,16.295771,0,-1,0,1043,0,-1561
1416,16.307341,-1,0,1,1046,0,-1562
1417,16.318889,1,2,0,1046,-2,-1558
1418,16.330506,-1,2,-2,1046,3,-1560
1419,16.342195,-1,1,0,1047,3,-1565
1420,16.353847,-1,2,1,1047,1,-1555
1421,16.365501,0,0,0,1045,0,-1560
1422,16.377173,0,0,1,1047,2,-1556
1423,16.388822,0,1,2,1044,0,-1554
1424,16.40047,0,0,-1,1045,1,-1559
1425,16.412143,1,1,0,1045,-1,-1564
1426,16.423818,0,2,1,1042,-1,-1563
1427,16.435477,2,-1,2,1047,2,-1558
1428,16.447154,0,0,-1,1045,0,-1558
1429,16.458798,1,0,0,1044,2,-1559
1430,16.47046,0,0,0,1046,1,-1560
1431,16.482144,1,0,-1,1049,0,-1561
1432,16.493802,0,-3,1,1045,0,-1554
1433,16.505463,0,2,-1,1046,0,-1564
1434,16.51714,2,-2,0,1043,-3,-1561
1435,16.528815,-1,0,0,1048,-1,-1555
1436,16.540479,-1,1,-1,1048,-1,-1565
1437,16.552045,0,1,1,1048,1,-1558
1438,16.563609,-1,0,0,1047,1,-1558
1439,16.575172,1,1,0,1050,0,-1561
1440,16.586733,-1,1,1,1042,1,-1562
1441,16.598256,-2,0,0,1046,0,-1562
1442,16.609835,0,-2,1,1049,0,-1558
1443,16.621405,0,-1,0,1049,0,-1557
1444,16.63299,-1,2,-2,1044,3,-1559
1445,16.644611,1,-1,2,1045,0,-1557
1446,16.656277,1,1,1,1048,0,-1561
1447,16.66793,2,1,-1,1047,0,-1566
1448,16.679579,-1,1,0,1049,1,-1563
1449,16.691251,0,0,1,1044,-1,-1558
1450,16.702926,0,-1,0,1042,0,-1561
1451,16.714581,1,-2,-1,1045,-1,-1558
1452,16.726269,0,1,0,1049,0,-1557
1453,16.737938,2,1,0,1045,0,-1556
1454,16.749604,1,-1,0,1047,0,-1559
1455,16.761264,1,1,0,1043,3,-1555
1456,16.772919,-1,0,0,1048,1,-1555
1457,16.784564,0,0,0,1048,6,-1555
1458,16.796218,1,0,0,1051,0,-1561
1459,16.807871,1,3,1,1045,1,-1563
1460,16.819558,2,0,0,1046,0,-1557
1461,16.831218,1,0,-1,1045,0,-1558
1462,16.842935,1,0,1,1046,3,-1558
1463,16.854589,0,1,1,1045,0,-1558
1464,16.866278,0,2,1,1044,0,-1558
1465,16.877928,1,0,0,1049,3,-1560
1466,16.889572,1,0,0,1046,1,-1560
1467,16.901221,-2,-3,2,1046,0,-1555
1468,16.912895,-1,0,0,1049,2,-1562
1469,16.92458,0,-2,0,1046,0,-1564
1470,16.936261,0,-2,-2,1048,2,-1562
1471,16.947928,0,1,0,1046,0,-1557
1472,16.959538,1,1,-1,1046,0,-1557
1473,16.971103,1,1,1,1046,0,-1563
1474,16.982688,-1,1,2,1044,-1,-1558
1475,16.994256,-1,0,1,1042,-2,-1555
1476,17.00583,-1,0,1,1047,3,-1558
1477,17.01737,0,-1,0,1046,0,-1561
1478,17.028917,1,1,2,1044,-3,-1556
1479,17.040466,0,2,0,1045,0,-1558
1480,17.052081,0,0,0,1050,1,-1556
1481,17.06374,1,0,1,1048,2,-1558
1482,17.075449,0,0,-1,1045,2,-1560
1483,17.087114,1,0,0,1046,0,-1566
1484,17.098797,0,-1,0,1045,0,-1557
1485,17.110468,-1,-2,1,1049,1,-1555
1486,17.122154,1,-1,0,1046,-1,-1560
1487,17.133806,-1,-2,-1,1044,3,-1557
1488,17.145476,0,1,-1,1044,-1,-1556
1489,17.157164,-1,0,1,1048,-1,-1559
1490,17.168814,-1,-1,0,1048,2,-1559
1491,17.180485,-2,0,0,1049,1,-1561
1492,17.192141,-1,1,0,1047,0,-1557
1493,17.203794,0,1,-1,1050,1,-1563
1494,17.215474,-1,-1,-2,1048,0,-1557
1495,17.227144,1,-1,2,1051,2,-1561
1496,17.238802,0,0,-2,1043,0,-1558
1497,17.250477,-1,-3,0,1048,-2,-1558
1498,17.262184,1,0,0,1046,0,-1558
1499,17.273867,-1,0,1,1047,0,-1562
1500,17.285523,1,0,1,1047,0,-1560
1501,17.297177,0,1,0,1047,2,-1556
1502,17.308849,-1,2,1,1046,0,-1558
1503,17.320537,1,2,0,1047,2,-1563
1504,17.332187,1,-1,1,1043,0,-1559
1505,17.343848,0,0,1,1048,1,-1562
1506,17.35552,-1,2,-2,1048,0,-1563
1507,17.367256,1,0,-2,1047,0,-1557
1508,17.378935,1,0,0,1047,-1,-1554
1509,17.390505,2,1,-1,1045,-1,-1560
1510,17.402083,1,1,1,1043,3,-1557
1511,17.413641,1,-1,-1,1047,-1,-1560
1512,17.425205,-1,1,0,1043,1,-1550
1513,17.43675,1,0,0,1048,4,-1561
1514,17.448308,0,2,-2,1045,0,-1567
1515,17.459855,0,1,1,1049,0,-1561
1516,17.471416,0,2,2,1045,3,-1567
1517,17.483051,-1,0,0,1047,0,-1560
1518,17.494709,0,1,0,1045,2,-1560
1519,17.506406,0,1,-1,1050,0,-1565
1520,17.51806,1,0,2,1048,2,-1561
1521,17.529716,2,-2,2,1046,0,-1561
1522,17.541387,2,-3,1,1045,0,-1559
1523,17.553034,0,0,0,1045,0,-1556
1524,17.564682,1,-2,1,1045,-2,-1558
1525,17.576364,0,0,0,1045,-1,-1560
1526,17.588017,0,2,-2,1047,0,-1557
1527,17.599599,2,1,1,1047,1,-1562
1528,17.611201,1,-3,1,1048,0,-1562
1529,17.622743,1,0,-1,1046,5,-1560
1530,17.63433,-1,0,3,1046,4,-1560
1531,17.645875,1,1,1,1047,-1,-1561
1532,17.657422,0,1,1,1046,-1,-1560
1533,17.668976,0,-1,0,1047,-1,-1558
1534,17.680551,-2,0,1,1044,2,-1563
1535,17.692287,1,1,1,1050,-1,-1558
1536,17.703993,1,1,-2,1048,0,-1556
1537,17.715637,1,1,-1,1047,-1,-1559
1538,17.727329,-1,1,0,1051,-1,-1563
1539,17.739046,3,-1,0,1048,3,-1558
1540,17.750699,0,1,1,1043,0,-1557
1541,17.762403,1,0,0,1049,-1,-1556
1542,17.774065,0,0,-1,1046,2,-1556
1543,17.785727,1,-1,-1,1049,-1,-1558
1544,17.797413,0,0,0,1048,-1,-1561
1545,17.808979,1,1,1,1042,0,-1557
1546,17.820566,1,1,-1,1047,-1,-1561
1547,17.832106,1,1,-2,1047,0,-1554
1548,17.843649,0,-1,-1,1047,-3,-1559
1549,17.855224,-1,1,-1,1046,0,-1557
1550,17.866815,2,2,-1,1043,-2,-1560
1551,17.878383,0,0,1,1044,-1,-1556
1552,17.889953,0,1,-2,1048,-1,-1556
1553,17.901597,0,-1,1,1044,2,-1569
1554,17.913255,-1,-1,0,1050,1,-1563
1555,17.924908,0,1,0,1047,2,-1552
1556,17.936574,-1,1,1,1044,4,-1562
1557,17.948353,-2,0,0,1047,1,-1556
1558,17.960022,-2,1,1,1046,3,-1553
1559,17.971727,1,-2,0,1045,-1,-1556
1560,17.983397,1,1,0,1049,2,-1556
1561,17.995053,0,3,-1,1045,0,-1558
1562,18.006767,0,-2,2,1047,1,-1562
1563,18.018324,0,0,-1,1048,-1,-1565
1564,18.029872,1,-1,-1,1047,0,-1558
1565,18.041429,1,1,2,1047,0,-1559
1566,18.052983,1,1,0,1051,3,-1566
1567,18.064573,1,-1,1,1044,2,-1560
1568,18.076185,0,-1,-1,1045,2,-1562
1569,18.087736,1,0,0,1048,1,-1558
1570,18.099328,0,1,-1,1048,0,-1555
1571,18.110992,1,1,1,1047,0,-1556
1572,18.12268,-1,2,-1,1045,-2,-1558
1573,18.134351,0,1,0,1045,0,-1561
1574,18.146029,-1,0,0,1047,1,-1555
1575,18.157714,2,-2,0,1041,0,-1556
1576,18.169364,1,2,0,1049,1,-1555
1577,18.18321,1,1,1,1048,0,-1557
1578,18.194919,-1,-1,-1,1047,1,-1558
1579,18.206647,0,2,-1,1048,0,-1564
1580,18.218238,0,0,0,1044,-2,-1558
1581,18.229807,-1,1,-1,1046,-2,-1557
1582,18.241394,-1,0,-1,1049,3,-1560
1583,18.252951,0,-2,0,1047,0,-1560
1584,18.26454,0,-2,0,1046,2,-1560
1585,18.276084,-1,-2,-1,1044,3,-1552
1586,18.287625,0,-1,1,1043,0,-1559
1587,18.299207,1,0,0,1047,0,-1559
1588,18.31085,-1,0,-1,1047,-3,-1551
1589,18.322527,-1,1,0,1050,2,-1555
1590,18.334249,0,2,-1,1047,0,-1563
1591,18.345896,-1,1,1,1046,1,-1563
1592,18.357565,1,0,1,1046,-3,-1560
1593,18.369227,1,2,-1,1043,1,-1569
1594,18.38088,1,0,2,1048,3,-1557
1595,18.392548,1,1,2,1049,-2,-1555
1596,18.404213,1,1,1,1047,1,-1562
1597,18.415867,1,1,1,1045,-1,-1560
1598,18.42745,0,1,-1,1049,-1,-1557
1599,18.439031,2,1,0,1046,2,-1561
1600,18.450612,-1,0,1,1050,0,-1561
1601,18.462172,-1,1,2,1047,1,-1556
1602,18.473732,-1,4,0,1045,-3,-1552
1603,18.485283,0,1,-1,1047,3,-1560
1604,18.496829,0,-1,2,1046,-2,-1561
1605,18.508383,1,0,0,1049,1,-1561
1606,18.520003,-1,0,0,1047,0,-1561
1607,18.531655,1,-1,-1,1045,1,-1561
1608,18.543328,0,0,-2,1049,0,-1557
1609,18.554975,0,0,1,1047,1,-1556
1610,18.566656,-1,0,1,1046,-1,-1566
1611,18.578335,0,0,0,1045,3,-1566
1612,18.590006,-1,2,-1,1050,0,-1559
1613,18.601656,0,1,-1,1045,-2,-1559
1614,18.613327,-1,2,1,1048,0,-1556
1615,18.62491,2,0,-1,1044,2,-1567
1616,18.636455,0,-1,0,1047,2,-1561
1617,18.648005,-2,-1,0,1042,0,-1555
1618,18.659553,0,1,1,1048,-1,-1562
1619,18.671113,0,0,-1,1049,-1,-1556
1620,18.682663,1,2,-1,1045,-2,-1560
1621,18.694254,-1,-2,0,1044,0,-1551
1622,18.705805,1,-2,0,1042,-1,-1562
1623,18.717382,0,-2,1,1048,-2,-1554
1624,18.728997,1,1,0,1046,0,-1561
1625,18.740669,0,0,1,1047,4,-1557
1626,18.752339,0,1,-1,1047,0,-1555
1627,18.763989,2,0,-1,1046,2,-1558
1628,18.775655,-1,0,0,1044,0,-1561
1629,18.787311,2,0,-2,1049,-1,-1557
1630,18.798973,3,1,1,1045,1,-1557
1631,18.810675,-1,1,0,1050,0,-1553
1632,18.822354,-1,1,0,1045,0,-1564
1633,18.834041,1,1,1,1044,2,-1558
1634,18.845718,0,-1,1,1044,0,-1562
1635,18.857335,0,-1,0,1049,0,-1564
1636,18.8689,1,0,1,1050,0,-1562
1637,18.880455,1,0,-1,1045,-1,-1559
1638,18.892025,-1,2,0,1046,-2,-1564
1639,18.90357,-1,0,-1,1045,-1,-1562
1640,18.915117,0,-1,-1,1044,0,-1559
1641,18.926692,2,0,1,1047,2,-1562
1642,18.938417,-1,0,1,1046,0,-1561
1643,18.950092,0,1,0,1042,0,-1564
1644,18.961749,0,-2,-2,1047,1,-1555
1645,18.973421,1,0,-1,1048,-1,-1561
1646,18.985087,2,-1,0,1046,-3,-1559
1647,18.996742,0,-1,-1,1043,-2,-1564
1648,19.008417,1,0,2,1049,-1,-1563
1649,19.020076,0,0,-1,1047,-1,-1558
1650,19.031749,2,0,0,1051,1,-1562
1651,19.043414,0,0,2,1044,-1,-1556
1652,19.054978,1,-1,0,1047,2,-1563
1653,19.066538,0,0,1,1046,0,-1560
1654,19.078087,2,1,1,1050,2,-1566
1655,19.08964,1,1,-1,1046,0,-1556
1656,19.101205,0,2,0,1046,1,-1563
1657,19.112767,-1,1,0,1044,2,-1563
1658,19.124317,1,2,0,1047,0,-1561
1659,19.135885,0,2,1,1048,3,-1563
1660,19.147614,-1,-2,0,1043,-2,-1557
1661,19.159315,0,-2,-1,1050,2,-1560
1662,19.170975,3,0,1,1048,0,-1562
1663,19.182714,-1,1,-1,1043,0,-1566
1664,19.194407,-1,-3,0,1048,1,-1561
1665,19.20607,-1,0,-2,1048,-1,-1550
1666,19.217742,1,2,1,1045,0,-1558
1667,19.229413,1,0,1,1047,-2,-1563
1668,19.241094,1,3,2,1046,-2,-1551
1669,19.252779,-2,0,-1,1050,3,-1557
1670,19.264373,-1,-2,-1,1048,-4,-1559
1671,19.275927,-2,-1,0,1047,0,-1548
1672,19.287477,-1,-1,0,1049,3,-1563
1673,19.299038,2,-1,0,1045,0,-1557
1674,19.310617,-2,2,-1,1049,1,-1563
1675,19.322176,-1,2,1,1048,0,-1556
1676,19.333748,1,1,-1,1048,1,-1559
1677,19.345313,-2,0,0,1045,1,-1563
1678,19.356942,0,3,0,1045,2,-1565
1679,19.368601,2,2,-1,1043,0,-1553
1680,19.38025,0,2,0,1050,-3,-1561
1681,19.391923,1,0,1,1044,2,-1566
1682,19.403577,0,-1,2,1044,-2,-1560
1683,19.415252,2,0,-1,1048,1,-1560
1684,19.426935,2,-2,0,1044,3,-1557
1685,19.4386,-1,0,0,1047,-2,-1554
1686,19.450291,1,1,1,1047,-2,-1556
1687,19.461963,0,0,-1,1046,-1,-1561
1688,19.473532,1,2,1,1045,0,-1558
1689,19.485124,1,-1,1,1046,3,-1559
1690,19.496682,0,1,2,1046,0,-1558
1691,19.508252,0,-1,1,1047,-3,-1559
1692,19.519792,0,0,1,1048,0,-1560
1693,19.531349,1,0,0,1046,1,-1566
1694,19.542908,1,1,-1,1046,1,-1557
1695,19.554512,0,0,-3,1047,2,-1555
1696,19.566222,2,1,0,1047,-2,-1563
1697,19.577918,0,2,-1,1045,3,-1567
1698,19.589581,0,-2,2,1044,-2,-1562
1699,19.601231,3,2,0,1047,-1,-1559
1700,19.612907,0,0,-1,1040,-5,-1562
1701,19.624549,2,-2,2,1047,0,-1565
1702,19.636201,-1,0,1,1043,0,-1560
1703,19.647913,0,1,0,1048,0,-1564
1704,19.659567,0,1,1,1049,-1,-1564
1705,19.67128,1,2,-1,1047,3,-1559
1706,19.682867,-1,0,1,1044,3,-1558
1707,19.694555,1,1,1,1044,3,-1558
1708,19.706286,0,-1,-1,1045,3,-1565
1709,19.717888,2,0,-1,1047,0,-1559
1710,19.729486,2,-1,0,1050,-1,-1562
1711,19.741047,1,1,1,1048,0,-1561
1712,19.752615,0,-1,0,1048,3,-1568
1713,19.764162,1,2,-2,1045,1,-1554
1714,19.775731,3,1,-2,1047,-2,-1556
1715,19.787289,-1,1,0,1047,0,-1564
1716,19.798865,1,0,0,1046,1,-1546
1717,19.81045,2,1,0,1045,-1,-1564
1718,19.822015,1,1,-2,1046,1,-1554
1719,19.833584,2,1,-1,1047,3,-1558
1720,19.845131,0,2,2,1044,1,-1559
1721,19.856691,0,0,1,1049,0,-1562
1722,19.868264,2,0,-2,1046,3,-1555
1723,19.87995,1,2,1,1045,1,-1557
1724,19.891618,-1,0,0,1042,0,-1553
1725,19.903304,0,1,-2,1046,0,-1561
1726,19.91497,1,3,1,1043,1,-1555
1727,19.926697,1,3,1,1047,1,-1558
1728,19.938351,0,2,0,1044,1,-1559
1729,19.950031,1,3,1,1047,-2,-1560
1730,19.961706,1,0,-2,1045,-1,-1566
1731,19.973368,1,1,0,1050,-2,-1560
1732,19.985066,0,1,0,1043,-2,-1558
1733,19.996629,0,1,0,1047,2,-1559
1734,20.008179,0,-1,2,1045,2,-1563
1735,20.019741,2,-2,0,1047,2,-1557
1736,20.031291,0,2,-1,1044,3,-1561
1737,20.04286,1,3,-1,1045,0,-1562
1738,20.05443,-1,0,0,1048,1,-1561
1739,20.066005,3,-1,0,1048,-4,-1561
1740,20.077592,0,0,0,1048,1,-1564
1741,20.089213,0,2,-3,1050,0,-1559
1742,20.10089,1,-1,-2,1044,1,-1563
1743,20.112545,-1,1,-2,1042,1,-1564
1744,20.124193,1,1,0,1045,0,-1560
1745,20.135856,0,1,1,1047,0,-1560
1746,20.147556,-1,1,1,1044,0,-1558
1747,20.159368,0,0,1,1047,-3,-1559
1748,20.171068,2,1,-2,1045,0,-1561
1749,20.182744,2,0,1,1045,3,-1564
1750,20.194453,1,0,2,1046,0,-1559
1751,20.206016,0,1,-1,1047,-2,-1559
1752,20.217564,1,1,1,1046,-3,-1559
1753,20.229122,1,1,3,1047,0,-1567
1754,20.240688,1,-1,-1,1046,2,-1557
1755,20.252242,-1,3,1,1049,2,-1559
1756,20.263815,1,0,0,1045,1,-1559
1757,20.275365,0,0,0,1045,0,-1560
1758,20.286971,0,0,1,1044,3,-1559
1759,20.298607,0,0,0,1048,-1,-1559
1760,20.310284,0,1,0,1046,-5,-1559
1761,20.321934,0,1,-2,1051,3,-1561
1762,20.333625,0,-1,1,1047,0,-1560
1763,20.345276,1,1,0,1047,-1,-1561
1764,20.356921,0,-1,0,1050,0,-1556
1765,20.368576,2,0,1,1047,0,-1562
1766,20.380227,0,0,1,1049,2,-1562
1767,20.391926,1,1,1,1045,0,-1562
1768,20.403596,-2,1,-1,1047,-4,-1560
1769,20.41522,-1,-1,-1,1047,3,-1560
1770,20.426781,0,-1,2,1045,2,-1563
1771,20.43836,-1,1,-1,1049,0,-1560
1772,20.449901,0,-2,2,1045,0,-1550
1773,20.461447,0,-1,1,1046,0,-1556
1774,20.472993,1,0,0,1050,-1,-1564
1775,20.484541,-1,0,0,1045,0,-1558
1776,20.4961,0,-1,2,1048,0,-1567
1777,20.507793,-1,0,-2,1049,4,-1560
1778,20.519483,-1,1,1,1048,1,-1560
1779,20.531165,-1,0,-1,1045,1,-1557
1780,20.542797,0,1,-1,1049,-2,-1556
1781,20.554469,0,0,0,1048,-2,-1558
1782,20.566156,0,2,0,1049,0,-1564
1783,20.577804,1,3,0,1047,0,-1564
1784,20.589477,1,2,0,1046,1,-1562
1785,20.601143,0,0,0,1049,0,-1558
1786,20.612793,-1,-1,-3,1043,0,-1557
1787,20.624352,-1,1,1,1045,2,-1564
1788,20.635935,1,1,1,1047,-3,-1558
1789,20.647497,1,1,-1,1044,1,-1562
1790,20.659102,1,0,3,1045,0,-1556
1791,20.670707,1,0,1,1049,0,-1562
1792,20.682257,-1,0,1,1041,4,-1562
1793,20.693831,0,-3,-1,1045,2,-1554
1794,20.705407,2,-2,-2,1046,-1,-1568
1795,20.717036,0,0,1,1049,-1,-1561
1796,20.728689,1,-1,-2,1044,0,-1559
1797,20.740339,0,0,0,1045,-1,-1560
1798,20.752006,-1,1,1,1045,-1,-1564
1799,20.763648,1,2,1,1047,0,-1551
1800,20.775308,-1,0,-1,1051,-2,-1557
1801,20.786986,0,0,0,1047,0,-1563
1802,20.798661,0,-1,1,1049,-2,-1556
1803,20.810303,1,2,0,1048,-1,-1560
1804,20.82201,0,1,-1,1046,-2,-1561
1805,20.833581,0,0,-1,1049,-1,-1563
1806,20.84512,-1,0,1,1046,0,-1559
1807,20.856671,1,0,1,1047,1,-1563
1808,20.868214,-1,-1,0,1044,-3,-1566
1809,20.87976,0,0,1,1045,0,-1557
1810,20.89133,-2,0,0,1043,-1,-1565
1811,20.902916,-1,0,2,1043,-2,-1557
1812,20.914501,1,-1,0,1046,0,-1554
1813,20.926144,0,-1,-1,1043,1,-1563
1814,20.937798,1,-1,0,1045,1,-1555
1815,20.949474,-1,0,0,1048,-1,-1557
1816,20.961128,-1,-2,0,1044,-5,-1555
1817,20.972782,1,2,1,1047,0,-1556
1818,20.984443,0,0,-1,1044,-1,-1556
1819,20.996106,-1,2,-1,1047,-1,-1560
1820,21.007758,-1,-1,0,1045,3,-1555
1821,21.019457,1,0,1,1050,0,-1561
1822,21.031169,-2,-1,0,1047,2,-1564
1823,21.042737,1,2,-1,1046,0,-1552
1824,21.054298,0,0,2,1045,-3,-1558
1825,21.065856,1,1,-1,1047,3,-1558
1826,21.077453,0,-1,3,1049,-1,-1563
1827,21.089023,0,0,1,1049,-4,-1562
1828,21.100572,1,1,0,1046,-4,-1558
1829,21.112114,0,2,1,1041,0,-1557
1830,21.123667,1,0,0,1050,0,-1558
1831,21.13529,-1,0,0,1044,3,-1555
1832,21.146964,0,0,0,1046,1,-1555
1833,21.158655,0,3,-2,1046,1,-1561
1834,21.170326,-1,1,0,1045,0,-1559
1835,21.182011,1,2,1,1045,-1,-1561
1836,21.193656,0,0,-1,1048,0,-1554
1837,21.205305,1,-1,1,1045,-1,-1561
1838,21.217021,1,-2,0,1045,0,-1554
1839,21.228831,1,0,0,1049,0,-1559
1840,21.240433,0,1,0,1048,3,-1564
1841,21.251995,1,0,2,1044,-1,-1561
1842,21.263585,1,1,0,1048,-4,-1556
1843,21.275177,0,0,3,1044,0,-1560
1844,21.286738,0,-1,1,1046,1,-1559
1845,21.298255,1,0,1,1048,0,-1561
1846,21.309808,0,-1,1,1053,1,-1566
1847,21.321363,2,-2,0,1045,-2,-1559
1848,21.332922,1,1,2,1049,1,-1560
1849,21.34459,-1,0,0,1045,0,-1558
1850,21.356243,2,1,1,1046,0,-1560
1851,21.367934,1,1,-1,1048,-3,-1559
1852,21.379585,0,3,3,1049,0,-1561
1853,21.391239,1,1,-1,1047,0,-1564
1854,21.402988,0,1,0,1045,-2,-1559
1855,21.414664,-1,-1,-2,1047,3,-1566
1856,21.426403,0,0,-1,1049,2,-1563
1857,21.438125,-1,-1,1,1050,-2,-1563
1858,21.449776,-1,-1,0,1049,1,-1559
1859,21.461442,-1,-1,-1,1045,0,-1557
1860,21.473115,-1,1,0,1042,1,-1559
1861,21.484761,0,0,1,1043,1,-1565
1862,21.496413,0,0,1,1044,0,-1559
1863,21.508102,1,-1,-1,1050,-1,-1553
1864,21.519746,0,1,1,1046,1,-1554
1865,21.531523,1,0,0,1046,2,-1565
1866,21.543223,1,-3,1,1050,0,-1556
1867,21.554797,-1,0,1,1047,1,-1556
1868,21.56638,0,1,1,1047,-2,-1563
1869,21.577936,0,0,2,1051,-2,-1558
1870,21.589495,-1,-2,0,1043,3,-1563
1871,21.601049,0,0,1,1044,-1,-1556
1872,21.612595,0,0,0,1049,0,-1562
1873,21.624161,0,0,2,1046,-2,-1561
1874,21.635724,0,2,1,1045,2,-1559
1875,21.647355,-1,3,0,1050,0,-1558
1876,21.659047,2,-1,-1,1047,3,-1560
1877,21.670731,-2,0,0,1052,-3,-1556
1878,21.682418,-1,1,0,1047,-1,-1552
1879,21.694154,-1,2,-1,1052,0,-1565
1880,21.705836,-1,0,0,1047,-2,-1558
1881,21.717492,-1,-1,-1,1046,4,-1558
1882,21.729146,1,-1,0,1047,0,-1561
1883,21.740835,0,0,0,1043,0,-1557
1884,21.752514,1,1,0,1045,2,-1559
1885,21.764085,1,-1,-1,1046,0,-1556
1886,21.775684,-1,0,-2,1048,1,-1553
1887,21.787217,0,-1,1,1047,0,-1555
1888,21.798776,-1,0,1,1045,-1,-1561
1889,21.81035,0,0,0,1047,0,-1560
1890,21.82192,1,0,0,1046,1,-1553
1891,21.833495,-1,1,2,1049,-2,-1563
1892,21.845064,-1,-1,-1,1049,-1,-1559
1893,21.856716,0,1,1,1045,2,-1563
1894,21.868373,-1,-2,-1,1050,-2,-1557
1895,21.880015,0,1,2,1046,-1,-1557
1896,21.891679,0,2,-1,1045,-2,-1559
1897,21.903326,2,-1,-1,1041,2,-1560
1898,21.91499,0,2,0,1044,0,-1560
1899,21.926668,-1,0,1,1050,-2,-1561
1900,21.938356,2,0,-2,1043,-1,-1554
1901,21.950028,0,2,0,1046,0,-1565
1902,21.961576,0,1,1,1042,0,-1564
1903,21.97312,0,-1,1,1050,0,-1560
1904,21.984666,0,0,0,1046,2,-1565
1905,21.996237,0,1,-2,1050,0,-1561
1906,22.007798,0,2,-2,1049,0,-1561
1907,22.019365,2,0,-2,1047,3,-1554
1908,22.030911,-2,1,1,1044,-3,-1561
1909,22.04248,1,-1,-1,1048,5,-1559
1910,22.054025,-2,-1,1,1047,0,-1559
1911,22.065685,2,0,-2,1042,2,-1557
1912,22.077352,0,1,0,1046,-1,-1569
1913,22.089009,-1,0,0,1047,3,-1560
1914,22.100682,1,0,1,1047,-1,-1558
1915,22.112341,1,0,0,1047,0,-1558
1916,22.123999,-1,2,0,1048,3,-1569
1917,22.135677,-2,-1,-1,1044,0,-1558
1918,22.147351,0,0,0,1047,2,-1559
1919,22.159067,1,1,-1,1049,4,-1560
1920,22.170735,2,-1,2,1047,3,-1559
1921,22.182337,1,0,0,1047,-2,-1562
1922,22.193904,1,1,0,1049,0,-1557
1923,22.205449,0,3,0,1044,0,-1562
1924,22.216998,1,0,-1,1044,1,-1562
1925,22.228542,-1,3,0,1049,-1,-1554
1926,22.240119,1,-1,-3,1043,3,-1560
1927,22.25167,-1,0,1,1047,-4,-1559
1928,22.263246,0,-1,2,1048,0,-1553
1929,22.274935,1,0,-1,1047,4,-1560
1930,22.286603,-1,1,1,1047,3,-1557
1931,22.298285,0,0,-2,1044,0,-1567
1932,22.309945,0,-1,0,1045,0,-1559
1933,22.321595,1,-1,0,1046,1,-1565
1934,22.333247,-1,2,-1,1046,0,-1561
1935,22.344887,2,-1,1,1043,1,-1560
1936,22.356537,0,2,0,1048,1,-1555
1937,22.368216,0,1,-1,1049,1,-1560
1938,22.379865,1,-2,2,1046,0,-1559
1939,22.391555,0,0,0,1049,-1,-1564
1940,22.403214,0,1,1,1046,0,-1566
1941,22.414862,2,-1,0,1047,0,-1561
1942,22.426531,-1,2,0,1045,-1,-1562
1943,22.438203,2,1,-3,1045,0,-1558
1944,22.449848,-1,2,1,1045,-3,-1559
1945,22.461517,0,0,1,1044,0,-1566
1946,22.47319,-2,-2,1,1049,2,-1560
1947,22.484842,-1,0,0,1046,1,-1559
1948,22.496494,0,-2,0,1048,-3,-1562
1949,22.508137,1,0,-1,1046,0,-1563
1950,22.519812,1,0,0,1047,1,-1562
1951,22.531468,0,-1,2,1046,-1,-1557
1952,22.543118,0,-1,1,1048,4,-1563
1953,22.554812,0,0,0,1044,3,-1557
1954,22.566472,-1,2,0,1045,-1,-1552
1955,22.578175,-1,1,-2,1047,1,-1557
1956,22.589825,0,0,-1,1047,1,-1556
1957,22.601477,2,-1,0,1047,0,-1563
1958,22.613117,0,-1,0,1048,-1,-1556
1959,22.624765,1,1,-1,1052,5,-1550
1960,22.636438,1,-1,-1,1044,2,-1560
1961,22.648083,1,0,-2,1044,1,-1558
1962,22.659731,0,-1,-1,1046,1,-1560
1963,22.671404,1,0,-2,1046,1,-1555
1964,22.683061,0,1,0,1046,1,-1557
1965,22.694722,2,-2,0,1046,1,-1556
1966,22.706403,0,-1,2,1044,1,-1557
1967,22.718076,1,-1,-2,1047,0,-1557
1968,22.729746,0,0,0,1050,-1,-1554
1969,22.741419,-1,2,0,1046,-2,-1564
1970,22.753074,0,2,1,1048,0,-1559
1971,22.764729,0,3,-2,1045,0,-1561
1972,22.776397,1,0,0,1048,0,-1558
1973,22.788123,1,0,-1,1044,-1,-1562
1974,22.799809,1,2,1,1045,0,-1562
1975,22.81138,1,0,0,1047,0,-1555
1976,22.82296,0,-1,1,1043,2,-1558
1977,22.834499,-2,0,0,1046,-2,-1560
1978,22.846012,1,-1,-2,1049,2,-1559
1979,22.857579,-1,-1,-3,1049,0,-1563
1980,22.869133,0,-1,0,1050,-2,-1554
1981,22.880681,-2,1,-2,1049,3,-1561
1982,22.892268,0,2,-2,1045,0,-1561
1983,22.903922,-1,1,0,1046,0,-1565
1984,22.915571,-2,0,0,1046,0,-1560
1985,22.927251,0,-2,-1,1045,1,-1561
1986,22.938928,-1,1,1,1043,0,-1554
1987,22.950585,-1,-2,-2,1046,-1,-1560
1988,22.962269,-1,0,-2,1051,0,-1555
1989,22.973925,1,-1,0,1044,0,-1560
1990,22.985571,-1,0,-1,1051,2,-1561
1991,22.997238,0,1,3,1049,-1,-1563
1992,23.008891,1,1,1,1050,0,-1558
1993,23.020453,1,1,0,1049,0,-1555
1994,23.03201,1,1,-1,1049,-2,-1559
1995,23.043557,1,3,0,1044,2,-1560
1996,23.055115,0,2,0,1048,-5,-1557
1997,23.066676,-1,1,-1,1046,-2,-1559
1998,23.07826,1,0,-1,1047,0,-1554
1999,23.089816,0,0,-1,1044,-6,-1560
