sample,t_s,gyro_x,gyro_y,gyro_z,accel_x,accel_y,accel_z
0,1.2e-05,6,11,7,13,27,-1040
1,0.011341,4,7,9,16,25,-1034
2,0.022548,1,8,9,12,23,-1034
3,0.033747,2,7,8,12,28,-1043
4,0.044939,2,7,9,9,29,-1037
5,0.056129,2,7,10,13,28,-1029
6,0.067316,2,5,10,14,24,-1037
7,0.078502,2,7,7,16,27,-1037
8,0.089693,3,5,9,10,25,-1031
9,0.100868,3,8,7,13,25,-1039
10,0.112052,2,8,8,12,25,-1035
11,0.123237,2,8,10,13,25,-1036
12,0.134423,3,9,9,12,28,-1039
13,0.145604,2,7,9,13,26,-1033
14,0.156799,2,6,7,11,28,-1035
15,0.167985,4,6,10,12,23,-1036
16,0.179171,2,5,9,13,25,-1037
17,0.190358,1,6,10,12,27,-1045
18,0.201548,1,6,8,17,27,-1031
19,0.212741,3,8,9,11,25,-1032
20,0.223926,2,6,7,18,23,-1026
21,0.23511,2,5,10,13,24,-1036
22,0.246295,4,3,10,13,25,-1040
23,0.257504,3,6,7,13,28,-1037
24,0.26868,1,9,11,14,27,-1035
25,0.279867,0,7,10,15,25,-1037
26,0.291053,4,6,7,12,29,-1040
27,0.302242,1,7,9,13,27,-1043
28,0.31342,1,5,8,14,28,-1033
29,0.324611,1,5,9,12,29,-1032
30,0.335806,2,7,9,16,27,-1033
31,0.346992,3,8,9,13,32,-1039
32,0.358191,0,8,8,14,26,-1030
33,0.369383,0,7,8,17,22,-1028
34,0.380565,3,6,10,15,27,-1033
35,0.39175,3,7,11,13,27,-1033
36,0.402949,2,4,8,14,26,-1028
37,0.414134,2,8,9,16,28,-1031
38,0.425317,0,7,9,15,25,-1039
39,0.436503,1,7,10,14,26,-1030
40,0.447687,2,7,11,13,28,-1032
41,0.458878,1,7,7,12,27,-1040
42,0.470062,2,6,11,15,26,-1033
43,0.481236,2,5,10,15,24,-1034
44,0.492422,1,7,11,17,25,-1044
45,0.503607,3,8,10,15,26,-1033
46,0.514803,1,5,9,13,25,-1039
47,0.525993,2,7,9,11,25,-1032
48,0.537185,3,8,8,10,24,-1037
49,0.548373,3,7,11,18,23,-1036
50,0.55956,3,4,9,14,25,-1032
51,0.570753,2,4,9,12,24,-1036
52,0.581943,2,4,10,12,28,-1038
53,0.593133,2,7,9,12,24,-1035
54,0.604321,2,4,10,12,27,-1042
55,0.615507,3,7,7,11,24,-1035
56,0.626694,1,6,8,11,25,-1034
57,0.637881,1,5,10,18,23,-1038
58,0.649053,3,2,8,12,28,-1041
59,0.66024,2,6,9,15,27,-1036
60,0.671427,3,7,7,15,25,-1031
61,0.682612,5,6,9,14,26,-1040
62,0.693798,3,9,9,11,28,-1043
63,0.704987,2,5,10,16,25,-1038
64,0.716175,2,5,8,14,26,-1037
65,0.727362,1,7,10,12,25,-1034
66,0.738552,3,6,8,11,27,-1037
67,0.749775,1,3,10,12,28,-1030
68,0.760992,3,9,8,10,19,-1034
69,0.772183,3,4,11,15,25,-1043
70,0.783369,3,5,9,16,26,-1039
71,0.794556,2,6,11,14,29,-1033
72,0.805741,1,7,10,13,24,-1038
73,0.816933,2,5,10,11,23,-1038
74,0.828121,2,5,8,17,27,-1038
75,0.839305,3,6,8,15,29,-1037
76,0.8505,1,5,7,15,25,-1033
77,0.861694,3,6,9,14,26,-1034
78,0.872867,1,5,9,15,25,-1029
79,0.884058,2,8,8,15,30,-1037
80,0.895244,1,8,10,12,26,-1033
81,0.906428,3,5,8,17,24,-1039
82,0.917605,2,5,10,12,24,-1032
83,0.928792,2,7,11,13,28,-1033
84,0.939975,3,6,7,14,23,-1040
85,0.95116,3,5,12,13,28,-1033
86,0.962341,3,6,9,12,26,-1033
87,0.973545,3,6,7,13,25,-1037
88,0.984732,2,3,10,14,28,-1036
89,0.995922,2,5,9,16,26,-1035
90,1.007122,3,8,9,15,25,-1035
91,1.018311,3,3,8,13,27,-1038
92,1.029503,2,9,7,11,26,-1033
93,1.040685,3,6,11,15,28,-1031
94,1.05188,1,7,11,16,21,-1033
95,1.063065,2,4,10,12,26,-1037
96,1.074256,2,6,10,18,25,-1035
97,1.085418,1,7,7,12,27,-1041
98,1.0966,4,6,10,13,27,-1034
99,1.107782,2,4,10,14,25,-1031
100,1.118977,2,5,9,18,29,-1033
101,1.130158,1,5,9,10,25,-1038
102,1.141344,2,5,9,15,26,-1040
103,1.152525,2,4,8,15,29,-1036
104,1.163707,1,6,8,9,27,-1033
105,1.174887,3,5,8,11,23,-1032
106,1.186068,3,6,8,8,26,-1036
107,1.197235,3,6,9,14,24,-1033
108,1.208416,2,6,9,15,25,-1033
109,1.219603,2,6,9,14,28,-1035
110,1.230782,0,7,7,17,24,-1031
111,1.241964,3,5,10,12,27,-1033
112,1.253158,3,7,8,16,27,-1034
113,1.264337,1,6,9,12,26,-1039
114,1.275519,2,7,10,11,28,-1033
115,1.286701,3,7,9,11,26,-1036
116,1.29789,3,5,8,15,25,-1029
117,1.309049,4,6,8,14,28,-1035
118,1.320233,3,5,9,12,27,-1034
119,1.331416,2,7,9,9,27,-1035
120,1.342614,2,7,10,14,27,-1038
121,1.3538,0,7,10,13,24,-1032
122,1.364991,2,6,8,14,24,-1035
123,1.376177,4,5,12,13,25,-1036
124,1.387364,2,8,9,16,26,-1038
125,1.398555,4,8,8,16,24,-1036
126,1.409742,2,7,8,17,26,-1031
127,1.420934,1,7,9,14,26,-1035
128,1.432114,3,6,9,14,24,-1033
129,1.443302,2,6,8,13,25,-1040
130,1.454489,2,6,10,13,24,-1034
131,1.465674,3,6,10,11,28,-1033
132,1.476877,3,9,9,17,25,-1034
133,1.488061,2,7,7,16,24,-1037
134,1.499245,3,8,9,12,32,-1039
135,1.510428,2,5,10,15,23,-1033
136,1.521605,1,5,8,15,28,-1027
137,1.53279,2,6,9,16,28,-1037
138,1.543972,2,7,7,16,26,-1039
139,1.555152,2,6,7,12,27,-1033
140,1.566334,3,9,8,12,25,-1032
141,1.577525,3,6,9,16,23,-1041
142,1.58868,3,7,9,13,30,-1037
143,1.599865,2,8,7,18,25,-1033
144,1.611047,2,6,9,13,28,-1030
145,1.622232,2,7,10,13,26,-1031
146,1.633417,2,8,10,14,24,-1036
147,1.644598,2,8,9,11,27,-1034
148,1.655778,2,7,8,13,25,-1034
149,1.666961,3,7,8,13,28,-1036
150,1.678151,3,5,9,16,21,-1034
151,1.689343,1,8,11,15,22,-1034
152,1.700523,2,6,8,15,27,-1036
153,1.711704,4,7,9,14,27,-1035
154,1.722886,3,7,9,19,26,-1042
155,1.734068,4,5,10,15,28,-1035
156,1.745238,2,6,10,10,30,-1036
157,1.756419,1,6,8,16,25,-1034
158,1.7676,3,4,11,13,25,-1031
159,1.778779,2,7,7,15,25,-1035
160,1.789961,1,6,8,13,25,-1032
161,1.801155,4,5,7,13,27,-1031
162,1.812337,2,7,9,18,25,-1033
163,1.823517,2,5,10,17,24,-1036
164,1.834708,3,4,10,16,26,-1037
165,1.845892,4,4,11,14,26,-1031
166,1.857049,2,7,8,13,29,-1030
167,1.868233,1,6,9,13,25,-1035
168,1.879415,2,8,8,12,26,-1034
169,1.890609,1,7,9,11,28,-1033
170,1.901831,2,6,7,13,27,-1037
171,1.91302,3,3,8,18,26,-1035
172,1.924205,3,8,9,9,27,-1036
173,1.935447,0,9,6,12,27,-1031
174,1.946739,2,6,9,12,28,-1034
175,1.957932,3,9,10,12,29,-1035
176,1.969124,3,8,8,15,27,-1035
177,1.980318,2,6,8,12,24,-1039
178,1.991505,2,6,11,15,28,-1032
179,2.002692,1,5,9,13,26,-1037
180,2.013887,2,7,9,13,28,-1033
181,2.02505,3,7,10,15,25,-1032
182,2.036235,2,7,8,13,23,-1031
183,2.047417,2,6,11,16,32,-1038
184,2.058617,3,6,7,12,27,-1034
185,2.0698,3,7,11,13,25,-1034
186,2.080984,2,7,10,14,28,-1030
187,2.092166,4,5,9,13,24,-1040
188,2.103348,1,6,9,16,27,-1038
189,2.114528,2,4,7,13,24,-1033
190,2.12575,2,6,7,12,27,-1043
191,2.137012,2,7,8,14,28,-1041
192,2.1482,1,5,9,11,30,-1034
193,2.159386,2,5,8,16,26,-1031
194,2.170571,3,8,11,11,24,-1043
195,2.181757,2,5,6,10,25,-1035
196,2.192969,3,4,10,15,27,-1039
197,2.204152,4,4,9,17,28,-1033
198,2.215333,3,6,9,14,28,-1033
199,2.226514,1,4,8,14,27,-1038
200,2.237717,2,5,8,14,31,-1039
201,2.24887,2,5,7,15,26,-1038
202,2.260052,3,7,9,14,30,-1036
203,2.271237,2,7,10,14,28,-1028
204,2.282418,3,7,9,14,30,-1032
205,2.293602,1,7,9,15,26,-1037
206,2.304797,3,6,11,13,21,-1037
207,2.315982,2,6,10,13,26,-1044
208,2.327162,2,9,9,16,26,-1042
209,2.338345,3,7,10,17,28,-1032
210,2.349536,2,8,8,16,23,-1035
211,2.36068,2,4,8,15,26,-1035
212,2.371867,1,8,9,15,26,-1037
213,2.383053,4,6,8,16,26,-1035
214,2.394257,2,6,9,13,23,-1033
215,2.405417,2,6,11,13,25,-1034
216,2.416603,3,5,11,10,29,-1027
217,2.427784,2,5,11,14,26,-1035
218,2.438967,1,7,10,17,27,-1036
219,2.450148,2,7,9,16,24,-1039
220,2.46134,3,5,10,13,29,-1029
221,2.47252,3,7,11,15,29,-1029
222,2.483703,1,6,6,13,28,-1030
223,2.494884,2,6,9,11,29,-1034
224,2.506066,2,8,8,15,23,-1033
225,2.517233,3,6,9,12,27,-1034
226,2.528413,3,5,7,15,24,-1038
227,2.539593,2,5,9,14,27,-1033
228,2.550787,3,6,9,16,27,-1035
229,2.561968,1,7,8,10,27,-1028
230,2.573161,3,8,10,12,28,-1031
231,2.584348,2,6,7,15,23,-1029
232,2.595529,2,6,8,15,25,-1042
233,2.606714,1,7,10,11,28,-1030
234,2.617896,1,4,7,16,27,-1033
235,2.62905,2,7,9,15,25,-1034
236,2.640231,2,4,12,11,26,-1034
237,2.651412,3,7,8,12,29,-1034
238,2.662591,1,8,7,14,31,-1036
239,2.673793,1,7,8,15,28,-1035
240,2.684982,2,6,8,15,26,-1033
241,2.696163,3,5,7,15,24,-1041
242,2.707342,3,6,11,16,28,-1029
243,2.718522,1,7,10,11,27,-1033
244,2.729712,2,7,10,18,29,-1037
245,2.740863,0,7,9,15,27,-1029
246,2.752046,3,8,9,11,31,-1031
247,2.763226,2,8,10,14,26,-1035
248,2.774404,3,6,8,11,19,-1034
249,2.785598,4,7,9,15,22,-1035
250,2.796787,3,6,9,13,22,-1035
251,2.807967,3,6,8,19,27,-1035
252,2.819148,2,5,7,16,25,-1033
253,2.830329,0,7,9,15,25,-1037
254,2.841522,2,5,9,11,27,-1032
255,2.852678,2,6,8,14,24,-1030
256,2.86386,4,7,8,17,25,-1037
257,2.875041,3,6,8,13,25,-1039
258,2.886221,3,6,8,11,27,-1036
259,2.897415,1,6,11,11,25,-1038
260,2.90861,3,6,10,12,26,-1034
261,2.919795,3,10,9,13,22,-1040
262,2.930987,2,6,11,18,26,-1037
263,2.94217,3,8,8,15,26,-1033
264,2.953356,3,7,9,14,30,-1036
265,2.964536,1,6,7,15,24,-1033
266,2.975716,1,8,9,13,25,-1037
267,2.986896,2,8,7,13,25,-1043
268,2.998078,4,5,8,14,30,-1036
269,3.009234,2,7,9,14,24,-1039
270,3.020418,0,5,9,15,28,-1032
271,3.031609,3,5,7,17,30,-1036
272,3.04279,3,7,7,14,27,-1028
273,3.053972,2,6,10,11,23,-1036
274,3.065161,3,6,9,15,24,-1035
275,3.076342,1,6,10,12,25,-1030
276,3.087522,3,7,10,14,27,-1041
277,3.098702,3,5,8,15,25,-1040
278,3.109886,3,7,9,19,26,-1038
279,3.121048,3,6,8,15,23,-1039
280,3.13223,3,4,9,9,25,-1036
281,3.14341,2,6,10,15,22,-1030
282,3.154589,2,6,10,11,23,-1033
283,3.165784,3,7,10,13,25,-1038
284,3.176975,2,4,8,17,26,-1031
285,3.188154,2,6,8,15,28,-1040
286,3.199336,3,6,10,13,24,-1039
287,3.210515,3,7,7,15,24,-1034
288,3.221709,2,5,7,17,25,-1030
289,3.232865,3,6,8,15,24,-1032
290,3.244045,2,5,11,11,24,-1037
291,3.255236,2,4,9,16,29,-1036
292,3.26642,2,4,11,16,24,-1039
293,3.2776,2,5,10,14,23,-1042
294,3.288788,3,9,9,14,30,-1033
295,3.299971,3,6,9,15,28,-1029
296,3.311151,2,8,9,14,29,-1033
297,3.322332,3,5,9,12,27,-1029
298,3.333524,2,5,10,12,28,-1033
299,3.344678,3,6,8,17,26,-1035
300,3.355861,0,6,10,15,23,-1036
301,3.36704,3,6,9,16,26,-1038
302,3.37822,0,4,11,15,26,-1033
303,3.389414,2,4,9,11,29,-1034
304,3.400593,1,6,8,17,25,-1038
305,3.411776,1,6,9,13,27,-1042
306,3.422956,3,3,10,10,21,-1029
307,3.434138,2,6,8,13,25,-1034
308,3.445334,3,6,8,12,25,-1039
309,3.456517,1,5,9,15,26,-1037
310,3.467696,2,6,8,10,27,-1037
311,3.478878,3,8,9,18,26,-1037
312,3.490072,2,5,9,14,27,-1029
313,3.501233,1,8,9,12,24,-1033
314,3.512429,4,5,9,11,27,-1035
315,3.523609,2,6,9,14,27,-1034
316,3.534789,1,5,9,10,26,-1037
317,3.545972,3,7,10,12,25,-1042
318,3.557162,4,5,10,13,28,-1034
319,3.568345,3,8,10,12,27,-1036
320,3.579525,3,7,9,10,26,-1034
321,3.590707,3,5,9,13,30,-1035
322,3.601891,2,5,8,16,25,-1036
323,3.613058,2,7,11,12,26,-1034
324,3.624242,4,3,10,11,27,-1033
325,3.635424,1,7,10,13,25,-1036
326,3.646603,4,6,9,14,27,-1030
327,3.657785,2,5,12,14,28,-1034
328,3.668976,2,6,10,11,26,-1038
329,3.680157,1,6,10,12,22,-1030
330,3.691336,1,7,11,9,27,-1041
331,3.702516,2,8,8,14,31,-1032
332,3.71371,1,5,11,15,26,-1033
333,3.724864,0,7,11,14,23,-1035
334,3.736044,0,7,9,12,27,-1032
335,3.747223,1,7,10,12,28,-1036
336,3.758405,3,6,8,12,27,-1033
337,3.769596,2,7,8,15,26,-1040
338,3.780786,2,7,10,15,27,-1039
339,3.791968,1,4,9,13,26,-1033
340,3.803149,1,8,8,13,26,-1038
341,3.814332,1,7,9,17,28,-1034
342,3.825526,3,6,8,15,26,-1034
343,3.836679,4,6,9,13,24,-1033
344,3.847859,1,7,10,14,27,-1041
345,3.859042,3,6,9,16,27,-1035
346,3.870224,3,8,9,16,25,-1037
347,3.881414,1,5,12,16,21,-1034
348,3.892599,0,7,10,15,28,-1032
349,3.903782,2,7,7,11,25,-1035
350,3.914962,3,8,9,13,25,-1039
351,3.926144,4,8,9,18,26,-1042
352,3.937341,3,7,10,18,24,-1026
353,3.948528,1,7,9,14,24,-1034
354,3.959722,1,5,9,15,28,-1035
355,3.970915,0,5,8,15,26,-1039
356,3.982105,2,8,8,12,22,-1031
357,3.993292,1,7,11,10,29,-1038
358,4.004472,2,6,7,12,29,-1041
359,4.015654,2,8,8,16,26,-1035
360,4.026836,2,4,11,12,26,-1039
361,4.038019,2,8,10,15,24,-1035
362,4.049203,3,6,10,16,30,-1037
363,4.060393,5,5,10,16,27,-1037
364,4.071572,2,7,10,11,24,-1035
365,4.082761,2,8,9,14,26,-1041
366,4.093949,2,7,9,14,27,-1038
367,4.105136,4,4,12,12,27,-1031
368,4.116324,5,4,9,13,30,-1035
369,4.127506,0,8,9,16,29,-1029
370,4.138692,0,6,8,12,27,-1034
371,4.149878,2,5,8,18,26,-1037
372,4.161051,2,9,10,12,29,-1035
373,4.172233,3,6,7,13,26,-1031
374,4.183418,3,6,11,12,21,-1040
375,4.19461,3,8,10,14,28,-1034
376,4.206145,1,5,8,14,23,-1029
377,4.217825,0,7,7,14,28,-1036
378,4.229501,3,6,11,18,26,-1033
379,4.241191,1,7,10,16,26,-1035
380,4.252858,3,5,10,14,26,-1031
381,4.264531,1,6,9,11,24,-1036
382,4.276181,3,6,7,12,29,-1031
383,4.287821,1,6,7,16,29,-1034
384,4.299484,4,7,8,11,24,-1029
385,4.31118,2,5,11,13,25,-1036
386,4.32282,1,6,7,14,24,-1032
387,4.334497,3,7,10,13,25,-1030
388,4.346162,3,6,8,13,25,-1034
389,4.357809,3,6,9,14,26,-1035
390,4.369486,0,6,7,14,25,-1036
391,4.381176,2,7,9,14,24,-1029
392,4.392842,2,5,8,13,24,-1033
393,4.404549,1,6,8,14,24,-1040
394,4.416202,3,9,9,15,28,-1037
395,4.42785,1,6,9,11,28,-1028
396,4.43951,2,6,9,13,28,-1035
397,4.451181,2,6,8,13,20,-1033
398,4.46285,1,6,11,15,25,-1037
399,4.474526,3,4,9,11,28,-1031
400,4.486183,4,7,9,16,26,-1032
401,4.497886,1,6,8,16,27,-1042
402,4.509555,1,6,8,14,27,-1037
403,4.521225,2,6,12,12,25,-1033
404,4.532783,4,7,8,12,26,-1035
405,4.544356,0,8,7,13,25,-1033
406,4.5559,2,6,9,12,25,-1038
407,4.567444,-1,6,6,13,22,-1034
408,4.578992,2,7,9,13,27,-1037
409,4.590535,2,5,8,16,26,-1037
410,4.602086,1,6,8,16,28,-1035
411,4.613672,3,6,10,15,29,-1034
412,4.625306,2,5,9,12,27,-1034
413,4.636994,1,6,9,13,27,-1033
414,4.648655,5,4,9,16,23,-1036
415,4.660308,3,9,11,15,24,-1038
416,4.671957,3,8,10,16,26,-1034
417,4.68362,1,8,9,13,23,-1030
418,4.695285,3,6,9,11,26,-1036
419,4.706957,3,5,8,11,26,-1033
420,4.718662,1,5,9,17,28,-1032
421,4.730322,2,6,7,13,28,-1034
422,4.742009,2,6,10,15,28,-1039
423,4.753699,2,6,9,12,26,-1034
424,4.765377,3,5,10,15,23,-1044
425,4.777059,4,5,8,14,27,-1034
426,4.788714,1,6,9,14,27,-1036
427,4.800365,2,8,9,11,28,-1036
428,4.812026,2,6,8,14,29,-1037
429,4.823688,1,7,9,13,26,-1038
430,4.83533,1,6,10,16,25,-1033
431,4.846983,1,6,8,16,28,-1036
432,4.858664,3,5,8,15,27,-1033
433,4.870305,2,7,10,15,23,-1036
434,4.882011,4,6,7,14,24,-1029
435,4.89367,2,6,7,16,29,-1032
436,4.905311,2,6,10,10,26,-1028
437,4.91698,2,7,10,14,27,-1033
438,4.928691,1,7,9,14,28,-1031
439,4.94034,2,7,9,11,27,-1039
440,4.95202,3,7,12,16,26,-1035
441,4.963717,1,8,8,15,27,-1033
442,4.975441,1,9,11,15,24,-1036
443,4.9871,4,7,9,14,30,-1034
444,4.998764,0,5,6,12,25,-1035
445,5.010413,3,6,11,13,25,-1033
446,5.022074,3,6,8,14,24,-1035
447,5.033828,2,6,9,16,24,-1037
448,5.04552,4,6,9,17,27,-1037
449,5.057093,2,8,8,12,25,-1026
450,5.068645,2,6,8,16,28,-1038
451,5.080232,2,6,8,14,29,-1039
452,5.091805,3,5,7,19,29,-1034
453,5.10336,3,5,7,15,26,-1036
454,5.114915,2,7,10,11,28,-1039
455,5.126486,3,7,9,11,27,-1031
456,5.13806,1,7,9,18,29,-1033
457,5.149811,4,7,10,14,25,-1032
458,5.16152,3,5,9,16,26,-1041
459,5.173165,3,6,8,12,24,-1037
460,5.184842,2,7,9,13,26,-1036
461,5.196515,2,9,9,16,26,-1032
462,5.208157,2,8,9,13,26,-1036
463,5.219802,2,7,9,16,27,-1032
464,5.231445,1,8,10,14,26,-1034
465,5.243104,1,5,10,15,27,-1038
466,5.254771,1,5,7,14,24,-1037
467,5.266338,2,9,11,13,27,-1033
468,5.277913,3,5,7,15,26,-1039
469,5.289439,2,5,10,13,24,-1037
470,5.300959,3,6,9,17,23,-1033
471,5.312512,4,7,11,14,26,-1039
472,5.324097,2,7,10,14,24,-1034
473,5.335645,2,4,8,15,27,-1036
474,5.347234,3,7,9,13,26,-1038
475,5.358845,2,5,9,11,19,-1033
476,5.370523,2,6,9,12,28,-1035
477,5.382183,1,6,9,12,23,-1038
478,5.393836,3,6,8,14,28,-1043
479,5.405506,2,6,8,13,26,-1035
480,5.417173,3,7,10,11,23,-1034
481,5.428851,2,6,9,10,26,-1033
482,5.440529,2,7,7,17,27,-1040
483,5.452217,3,7,10,10,27,-1031
484,5.463949,0,6,7,11,28,-1029
485,5.475506,2,5,11,11,27,-1033
486,5.48709,3,6,9,16,24,-1035
487,5.49864,1,6,9,16,29,-1032
488,5.510217,3,6,9,12,23,-1037
489,5.521792,4,7,7,14,26,-1040
490,5.533355,2,6,9,9,24,-1042
491,5.544899,3,7,8,13,26,-1036
492,5.556462,2,7,10,16,29,-1034
493,5.568072,2,9,9,13,27,-1029
494,5.579714,1,8,9,12,27,-1028
495,5.591358,1,6,8,15,26,-1032
496,5.60303,3,8,12,13,21,-1030
497,5.614677,3,7,10,12,23,-1037
498,5.626326,2,6,9,15,28,-1030
499,5.638022,3,7,8,15,24,-1026
500,5.649675,2,5,8,13,29,-1031
501,5.661358,2,6,12,17,26,-1032
502,5.673011,3,7,9,13,25,-1035
503,5.684571,3,7,10,14,29,-1035
504,5.696123,1,6,11,14,27,-1033
505,5.707672,2,5,9,17,27,-1037
506,5.719221,3,7,8,13,28,-1032
507,5.730777,3,7,9,15,26,-1034
508,5.742365,2,5,11,10,27,-1034
509,5.753921,1,6,9,13,27,-1030
510,5.765448,2,4,12,16,27,-1039
511,5.777066,2,8,9,16,24,-1035
512,5.788728,2,6,11,11,27,-1034
513,5.800411,1,6,8,13,23,-1032
514,5.812051,1,8,10,15,28,-1036
515,5.823736,2,7,10,13,24,-1030
516,5.835411,1,6,10,14,24,-1033
517,5.847052,2,5,7,13,26,-1040
518,5.858703,3,5,8,14,26,-1039
519,5.870397,0,6,8,15,21,-1035
520,5.882053,2,8,9,13,25,-1034
521,5.893618,2,8,8,17,27,-1030
522,5.905188,3,4,8,12,24,-1041
523,5.916715,3,5,10,17,24,-1035
524,5.928264,2,7,9,16,28,-1031
525,5.939836,4,5,12,14,28,-1034
526,5.951433,1,6,9,11,21,-1035
527,5.962989,4,6,9,11,28,-1040
528,5.974551,2,8,10,12,28,-1033
529,5.986207,2,5,7,14,26,-1036
530,5.998003,2,7,8,12,24,-1034
531,6.009678,3,5,9,13,29,-1027
532,6.021385,1,5,11,13,25,-1029
533,6.033055,2,5,9,18,27,-1032
534,6.04473,2,5,8,12,27,-1032
535,6.056411,2,5,9,11,29,-1036
536,6.068054,2,8,8,14,25,-1038
537,6.07972,0,6,10,15,26,-1028
538,6.091393,2,6,8,17,23,-1040
539,6.102975,3,7,8,11,24,-1040
540,6.114526,4,6,9,14,25,-1032
541,6.126105,2,7,7,16,20,-1028
542,6.13767,3,4,11,14,22,-1038
543,6.149196,2,6,9,11,26,-1034
544,6.160716,2,3,8,14,24,-1042
545,6.172258,2,8,10,13,26,-1034
546,6.183825,2,6,10,16,26,-1031
547,6.195491,1,5,7,15,27,-1032
548,6.207181,3,7,9,12,28,-1035
549,6.218823,1,8,9,13,23,-1030
550,6.230471,2,5,11,15,22,-1029
551,6.242158,2,7,10,13,24,-1029
552,6.253809,2,7,10,17,23,-1039
553,6.265509,2,6,9,13,27,-1034
554,6.277173,0,7,9,16,27,-1041
555,6.288851,3,7,10,16,30,-1031
556,6.300404,2,7,9,15,26,-1036
557,6.311976,3,4,8,13,25,-1034
558,6.323528,0,7,12,14,27,-1040
559,6.335105,2,5,8,16,27,-1038
560,6.346657,2,5,10,15,26,-1031
561,6.358219,5,8,7,12,28,-1036
562,6.369789,4,4,10,13,29,-1035
563,6.381345,3,7,11,12,29,-1038
564,6.392908,2,7,10,13,26,-1037
565,6.404555,3,6,8,16,28,-1034
566,6.416212,3,6,10,12,23,-1036
567,6.427894,3,5,10,12,26,-1035
568,6.439562,2,7,9,17,27,-1033
569,6.451217,4,7,9,13,25,-1028
570,6.462893,3,5,8,10,27,-1032
571,6.47454,3,8,8,13,25,-1033
572,6.486199,2,7,8,15,25,-1036
573,6.497912,3,7,9,15,28,-1031
574,6.509558,1,6,9,13,27,-1035
575,6.521122,2,5,10,13,26,-1028
576,6.53267,3,7,9,15,25,-1029
577,6.544231,1,6,9,12,27,-1036
578,6.555799,3,5,10,16,25,-1029
579,6.567344,4,5,9,13,26,-1030
580,6.578896,2,9,10,13,26,-1031
581,6.590474,3,5,10,16,22,-1035
582,6.602061,3,8,11,14,23,-1041
583,6.61368,3,7,9,10,27,-1040
584,6.625375,2,6,10,10,28,-1027
585,6.637043,1,6,9,16,25,-1036
586,6.648723,1,7,9,15,26,-1036
587,6.660393,1,7,7,15,26,-1038
588,6.672041,3,7,7,16,26,-1030
589,6.683687,4,4,9,14,21,-1034
590,6.69534,2,4,9,14,23,-1032
591,6.706998,1,6,9,13,25,-1036
592,6.718664,3,6,11,15,25,-1038
593,6.730325,2,6,10,15,24,-1035
594,6.742008,4,7,11,16,27,-1034
595,6.753666,3,6,9,11,26,-1033
596,6.765317,2,8,9,13,21,-1031
597,6.776995,3,7,8,16,26,-1033
598,6.788651,1,8,9,14,24,-1026
599,6.800303,2,6,10,15,24,-1038
600,6.811963,2,5,10,14,25,-1034
601,6.823637,3,6,10,15,25,-1031
602,6.835299,3,7,11,12,27,-1034
603,6.846944,3,5,10,15,26,-1036
604,6.858627,2,5,9,14,31,-1036
605,6.87028,3,7,10,14,25,-1040
606,6.881941,3,7,9,11,27,-1033
607,6.893635,2,5,9,11,23,-1039
608,6.905306,3,6,8,16,30,-1032
609,6.917014,3,8,11,11,26,-1031
610,6.92872,2,6,9,14,28,-1039
611,6.940395,3,6,10,16,24,-1037
612,6.952046,1,7,10,15,26,-1036
613,6.963685,4,8,9,12,24,-1029
614,6.975332,2,5,10,13,27,-1034
615,6.987002,3,7,8,15,27,-1038
616,6.998665,1,6,8,17,25,-1037
617,7.010307,3,5,7,17,23,-1034
618,7.022156,2,7,8,17,27,-1039
619,7.033826,1,8,9,15,23,-1031
620,7.045393,3,8,9,15,29,-1040
621,7.05697,1,6,8,14,23,-1032
622,7.068517,4,6,10,17,29,-1035
623,7.080101,3,6,7,12,26,-1035
624,7.091642,2,6,9,14,24,-1035
625,7.103193,2,6,10,10,26,-1032
626,7.114745,2,6,10,13,28,-1032
627,7.1263,2,6,11,13,28,-1037
628,7.137917,2,6,9,15,25,-1027
629,7.149571,3,5,10,14,25,-1041
630,7.161258,2,9,11,14,24,-1034
631,7.172913,1,4,9,16,28,-1032
632,7.184566,2,6,10,13,24,-1031
633,7.196231,2,4,9,11,26,-1036
634,7.207898,3,6,8,15,26,-1029
635,7.219551,2,5,10,11,26,-1040
636,7.231211,2,8,9,17,21,-1037
637,7.242873,3,5,8,13,25,-1036
638,7.254434,1,5,8,13,24,-1031
639,7.266003,4,7,8,15,26,-1030
640,7.277602,2,8,11,14,27,-1037
641,7.289179,2,8,10,15,26,-1032
642,7.300741,2,7,9,13,25,-1040
643,7.312307,1,6,10,14,19,-1032
644,7.323885,4,8,10,13,24,-1033
645,7.335474,2,6,9,13,27,-1036
646,7.347085,4,5,10,15,24,-1043
647,7.358754,2,6,8,13,27,-1033
648,7.370402,3,6,8,13,23,-1034
649,7.382054,2,6,10,14,25,-1042
650,7.393752,2,5,9,13,27,-1034
651,7.405414,1,6,9,14,25,-1040
652,7.417062,3,6,8,16,26,-1040
653,7.428726,2,3,11,16,26,-1032
654,7.44041,3,6,10,15,24,-1036
655,7.45206,3,6,9,12,30,-1036
656,7.463615,2,7,9,13,22,-1040
657,7.475179,1,5,9,15,23,-1035
658,7.48674,4,8,7,13,23,-1038
659,7.498288,2,8,7,14,27,-1036
660,7.50986,2,5,9,10,27,-1036
661,7.521427,3,7,9,15,25,-1036
662,7.53296,4,4,10,16,25,-1032
663,7.54452,1,5,11,12,27,-1038
664,7.556161,3,5,9,10,22,-1034
665,7.567817,0,7,9,16,28,-1032
666,7.57946,3,6,10,15,26,-1034
667,7.591113,4,4,11,14,25,-1037
668,7.602788,3,6,8,14,24,-1037
669,7.614439,2,7,8,11,25,-1031
670,7.626088,3,9,10,12,23,-1036
671,7.637777,2,5,9,15,26,-1036
672,7.649438,3,5,10,12,26,-1030
673,7.661115,2,9,9,15,30,-1037
674,7.672733,3,7,8,11,26,-1034
675,7.68428,1,5,11,10,26,-1037
676,7.695825,2,4,8,15,24,-1039
677,7.707374,3,7,9,16,27,-1034
678,7.71894,2,7,8,12,28,-1037
679,7.730488,3,6,8,14,27,-1035
680,7.742066,1,5,9,11,26,-1036
681,7.753624,3,4,10,11,27,-1032
682,7.765307,3,8,8,15,23,-1039
683,7.776993,2,6,9,14,26,-1032
684,7.788647,2,6,11,11,26,-1028
685,7.800291,2,7,9,16,25,-1037
686,7.81194,2,7,8,15,28,-1031
687,7.823598,3,7,8,15,22,-1041
688,7.835262,2,8,8,15,29,-1036
689,7.846916,3,7,8,11,27,-1034
690,7.858577,3,7,9,14,23,-1032
691,7.870275,1,7,10,10,25,-1038
692,7.881935,2,6,8,15,24,-1037
693,7.893628,4,5,10,14,27,-1031
694,7.905291,2,3,11,17,24,-1035
695,7.916965,1,7,9,13,28,-1036
696,7.928675,2,8,9,11,26,-1035
697,7.940505,2,6,7,13,24,-1035
698,7.95231,2,8,7,14,28,-1034
699,7.964006,3,6,10,14,27,-1032
700,7.975677,2,8,9,17,28,-1036
701,7.987329,0,8,9,15,27,-1031
702,7.999008,3,5,10,15,27,-1030
703,8.010671,2,7,8,15,26,-1031
704,8.022319,3,6,9,17,29,-1035
705,8.034029,2,6,6,16,25,-1031
706,8.045824,2,6,11,11,27,-1036
707,8.057505,1,7,9,12,24,-1038
708,8.069322,2,8,8,11,27,-1029
709,8.081008,3,4,8,14,26,-1030
710,8.092611,1,7,8,18,27,-1033
711,8.104157,3,6,10,14,25,-1039
712,8.11571,2,8,9,13,24,-1040
713,8.127257,1,6,8,16,27,-1038
714,8.138801,3,7,9,12,28,-1039
715,8.150351,1,6,9,14,22,-1030
716,8.161919,1,5,8,13,26,-1036
717,8.173465,1,6,8,13,26,-1032
718,8.185127,2,6,8,13,31,-1038
719,8.196796,3,6,10,12,26,-1033
720,8.208454,1,6,9,14,22,-1043
721,8.220155,2,6,11,13,31,-1033
722,8.231801,3,7,9,12,24,-1037
723,8.243443,4,7,9,12,28,-1033
724,8.255109,2,6,7,12,26,-1031
725,8.266772,1,6,9,15,31,-1035
726,8.278434,0,6,9,13,27,-1034
727,8.290099,2,7,10,14,24,-1032
728,8.30168,3,6,9,13,26,-1038
729,8.313199,1,6,9,11,25,-1032
730,8.324757,3,6,12,9,27,-1032
731,8.336299,3,7,10,11,20,-1029
732,8.347845,2,8,10,15,24,-1040
733,8.359398,2,7,7,12,25,-1039
734,8.370975,3,4,10,16,26,-1034
735,8.382533,3,8,9,16,28,-1034
736,8.394184,2,6,9,11,24,-1031
737,8.405901,1,6,8,15,23,-1033
738,8.417599,2,5,10,16,22,-1037
739,8.429243,3,6,10,12,26,-1036
740,8.440957,2,3,9,13,26,-1032
741,8.452599,3,5,9,10,23,-1031
742,8.464272,3,4,8,14,30,-1039
743,8.475926,2,10,10,13,28,-1037
744,8.487584,2,8,10,16,28,-1033
745,8.49926,2,8,7,14,24,-1038
746,8.51081,2,7,9,13,27,-1032
747,8.522364,1,7,8,13,25,-1033
748,8.533941,2,8,11,13,28,-1037
749,8.545496,3,8,7,18,25,-1033
750,8.557082,2,8,9,15,24,-1039
751,8.568628,3,6,9,14,24,-1033
752,8.580205,2,7,9,15,26,-1032
753,8.591764,2,4,9,17,30,-1035
754,8.603407,2,4,10,15,25,-1034
755,8.615061,4,6,10,11,26,-1029
756,8.626702,0,7,9,15,23,-1031
757,8.638347,1,5,8,11,24,-1036
758,8.650026,1,6,10,11,24,-1041
759,8.66168,0,8,9,14,24,-1030
760,8.673361,1,7,10,14,25,-1037
761,8.685196,3,6,7,16,28,-1033
762,8.696854,1,6,6,14,29,-1040
763,8.708396,3,8,9,14,25,-1040
764,8.719937,3,6,9,15,25,-1031
765,8.731481,1,7,10,15,29,-1029
766,8.743022,2,6,10,12,25,-1036
767,8.754572,2,5,12,11,22,-1033
768,8.766142,2,6,8,14,22,-1037
769,8.777696,1,6,9,14,25,-1028
770,8.789299,3,7,9,9,28,-1036
771,8.800878,2,5,9,12,25,-1040
772,8.812503,4,5,11,12,24,-1033
773,8.824161,4,7,10,12,26,-1036
774,8.835816,1,7,10,14,26,-1040
775,8.84746,0,8,10,13,27,-1030
776,8.859111,4,6,9,13,25,-1037
777,8.870787,3,7,9,11,27,-1032
778,8.882432,1,8,8,11,24,-1038
779,8.894086,1,7,10,9,28,-1036
780,8.905791,3,8,9,16,29,-1035
781,8.917445,2,5,9,12,27,-1037
782,8.929012,2,6,11,20,28,-1032
783,8.940615,4,5,9,11,25,-1034
784,8.952171,1,5,9,13,24,-1036
785,8.963735,3,7,10,14,24,-1033
786,8.975273,3,5,8,14,24,-1037
787,8.986815,1,6,9,14,27,-1032
788,8.998356,1,6,10,14,26,-1035
789,9.009929,3,6,8,11,25,-1032
790,9.021552,1,6,12,13,27,-1040
791,9.033234,1,8,9,16,24,-1032
792,9.044956,1,4,6,11,26,-1031
793,9.056598,4,5,8,19,24,-1035
794,9.068274,2,5,8,15,26,-1037
795,9.079943,3,5,11,13,26,-1040
796,9.091592,1,6,9,16,28,-1034
797,9.103246,1,5,10,10,26,-1032
798,9.114926,2,6,9,13,28,-1034
799,9.126517,3,7,9,12,23,-1043
800,9.138116,1,7,11,17,27,-1034
801,9.149705,4,6,9,14,22,-1034
802,9.16126,1,6,10,14,22,-1033
803,9.172828,4,6,8,16,25,-1031
804,9.184374,3,7,9,13,26,-1037
805,9.195948,1,6,9,14,23,-1039
806,9.207496,1,5,9,14,26,-1031
807,9.219057,2,7,10,15,29,-1035
808,9.230678,1,6,10,13,26,-1031
809,9.242336,0,4,10,16,25,-1030
810,9.254014,1,6,10,14,27,-1035
811,9.265675,3,8,10,17,27,-1036
812,9.277372,3,8,7,13,25,-1035
813,9.289043,1,7,9,14,24,-1037
814,9.300715,3,5,8,14,26,-1038
815,9.312381,3,5,9,13,26,-1036
816,9.324045,4,6,9,14,24,-1037
817,9.335693,3,5,8,15,27,-1040
818,9.347251,0,8,7,11,23,-1031
819,9.358858,3,6,9,15,26,-1033
820,9.370417,2,7,8,13,24,-1037
821,9.381996,3,5,8,12,25,-1030
822,9.393561,1,7,10,22,25,-1034
823,9.40512,2,6,10,14,27,-1036
824,9.416717,3,5,8,13,22,-1034
825,9.428286,2,6,10,13,24,-1037
826,9.439911,2,7,12,14,26,-1035
827,9.451562,4,6,10,16,26,-1029
828,9.463216,3,7,9,12,25,-1029
829,9.474858,2,7,10,11,26,-1035
830,9.486529,3,8,10,14,28,-1034
831,9.498191,2,7,8,15,26,-1035
832,9.509871,3,7,9,13,27,-1034
833,9.521524,2,7,8,11,28,-1037
834,9.533231,2,7,11,10,26,-1035
835,9.544884,2,9,10,14,27,-1033
836,9.556443,2,5,10,16,27,-1029
837,9.568004,3,7,9,15,27,-1035
838,9.579552,2,7,12,15,27,-1032
839,9.591114,2,4,9,13,28,-1032
840,9.602658,2,5,11,11,28,-1031
841,9.6142,1,7,8,11,26,-1033
842,9.625759,2,6,8,14,23,-1034
843,9.637328,2,9,9,15,27,-1036
844,9.648981,0,7,10,16,28,-1026
845,9.660632,3,6,9,11,28,-1035
846,9.672296,1,9,8,15,27,-1036
847,9.683941,3,7,6,8,27,-1036
848,9.69559,1,7,10,14,24,-1035
849,9.707258,1,6,10,14,25,-1033
850,9.718912,2,6,10,16,25,-1038
851,9.730567,3,6,11,12,25,-1030
852,9.742271,0,6,8,12,26,-1032
853,9.753825,2,7,9,13,24,-1033
854,9.765376,0,8,9,16,27,-1037
855,9.776984,3,5,11,11,25,-1039
856,9.788532,2,7,10,10,23,-1038
857,9.800105,2,5,11,13,24,-1037
858,9.811644,0,4,10,17,24,-1037
859,9.823196,2,6,9,15,27,-1035
860,9.834796,1,7,10,15,25,-1031
861,9.846446,1,6,9,16,29,-1034
862,9.858164,3,6,10,15,25,-1035
863,9.86982,1,5,10,12,24,-1028
864,9.881492,4,8,9,15,29,-1031
865,9.89324,2,7,9,16,28,-1033
866,9.904917,4,6,10,16,27,-1038
867,9.916572,2,5,9,13,21,-1038
868,9.928243,0,6,8,13,29,-1031
869,9.939948,3,6,10,9,24,-1044
870,9.951634,2,7,10,13,25,-1034
871,9.963297,3,8,7,16,29,-1030
872,9.974941,2,5,9,13,25,-1035
873,9.986624,4,5,8,13,25,-1031
874,9.998282,2,7,11,12,28,-1032
875,10.00994,2,6,8,16,24,-1032
876,10.021632,3,8,10,9,24,-1039
877,10.033297,2,9,9,14,28,-1039
878,10.045001,2,5,10,18,25,-1037
879,10.056706,6,5,9,12,31,-1033
880,10.068347,2,7,10,18,26,-1034
881,10.080009,4,5,8,15,27,-1032
882,10.091684,2,6,10,14,27,-1039
883,10.103347,2,5,9,16,21,-1037
884,10.115026,0,6,10,11,23,-1037
885,10.126673,3,8,10,15,29,-1038
886,10.138318,0,7,10,15,25,-1034
887,10.150012,2,7,10,10,28,-1037
888,10.161565,3,5,10,15,28,-1036
889,10.173116,2,5,10,13,26,-1038
890,10.184694,2,6,6,14,25,-1035
891,10.196249,1,6,9,14,25,-1035
892,10.2078,2,9,8,16,24,-1033
893,10.21936,2,6,11,18,24,-1035
894,10.230909,4,8,8,14,23,-1032
895,10.242474,3,7,9,12,26,-1030
896,10.254062,1,6,11,8,26,-1027
897,10.265791,1,8,9,11,29,-1032
898,10.277504,0,7,8,12,25,-1034
899,10.289174,4,7,9,16,23,-1028
900,10.300859,0,7,7,18,27,-1032
901,10.31254,4,5,8,11,22,-1038
902,10.324194,2,7,9,11,25,-1036
903,10.335847,3,6,8,10,22,-1033
904,10.347524,4,5,9,11,22,-1037
905,10.359206,2,6,8,17,24,-1034
906,10.370874,2,8,9,12,22,-1036
907,10.382439,2,7,11,11,27,-1034
908,10.394027,2,7,8,12,25,-1032
909,10.405586,1,8,8,15,22,-1031
910,10.417137,3,6,11,18,27,-1033
911,10.428716,3,7,9,10,19,-1041
912,10.440265,3,6,8,16,29,-1037
913,10.451835,3,6,11,15,27,-1040
914,10.463389,2,8,12,15,28,-1036
915,10.475026,3,7,10,16,27,-1034
916,10.486681,3,6,11,13,28,-1033
917,10.498329,3,5,10,11,25,-1037
918,10.510025,3,8,9,12,22,-1039
919,10.521684,1,7,9,17,23,-1041
920,10.533357,0,5,9,11,24,-1036
921,10.545031,1,6,5,12,23,-1030
922,10.556705,1,7,8,13,25,-1030
923,10.568344,3,6,8,15,24,-1033
924,10.579895,2,6,8,13,28,-1036
925,10.591435,3,6,11,14,24,-1040
926,10.602985,2,6,9,17,23,-1038
927,10.614538,1,6,9,14,26,-1037
928,10.626116,1,7,7,14,25,-1041
929,10.637698,3,7,8,12,29,-1037
930,10.649254,4,6,8,12,29,-1033
931,10.660797,2,5,9,15,24,-1040
932,10.672362,3,8,8,9,22,-1045
933,10.684,2,6,8,14,24,-1030
934,10.695656,3,6,9,16,24,-1034
935,10.707309,2,4,10,16,28,-1033
936,10.718954,3,7,9,13,26,-1045
937,10.730628,2,9,9,14,24,-1032
938,10.742294,2,6,9,12,28,-1029
939,10.753944,2,9,10,12,23,-1032
940,10.765634,3,5,8,10,27,-1036
941,10.77732,0,6,8,12,25,-1034
942,10.788973,2,6,13,14,23,-1037
943,10.800545,3,8,9,15,24,-1038
944,10.812132,2,7,10,12,25,-1032
945,10.823695,4,6,8,12,25,-1031
946,10.835248,2,5,9,14,22,-1031
947,10.846792,3,8,8,13,23,-1033
948,10.858348,1,9,9,13,25,-1038
949,10.869922,2,5,8,13,24,-1039
950,10.881457,2,5,9,14,25,-1030
951,10.893142,4,7,9,14,25,-1039
952,10.904836,3,6,9,13,27,-1035
953,10.916511,2,6,7,13,29,-1030
954,10.928171,4,7,9,13,26,-1028
955,10.939822,2,6,9,14,25,-1032
956,10.951479,3,8,8,15,24,-1033
957,10.963145,2,6,8,15,25,-1039
958,10.974799,2,6,9,17,25,-1035
959,10.986461,1,7,9,12,26,-1038
960,10.998148,2,5,7,11,33,-1033
961,11.00983,3,7,9,17,22,-1031
962,11.021518,1,6,9,17,25,-1037
963,11.033173,2,8,10,14,20,-1033
964,11.044845,2,8,8,15,23,-1030
965,11.056518,4,8,11,15,29,-1035
966,11.068172,3,3,9,17,28,-1034
967,11.079825,1,4,10,13,26,-1038
968,11.091518,2,5,10,11,26,-1032
969,11.103173,3,6,6,18,25,-1030
970,11.114828,1,8,9,13,28,-1033
971,11.12651,1,6,10,14,26,-1033
972,11.138174,2,6,9,17,23,-1034
973,11.149832,2,4,10,17,26,-1030
974,11.161519,4,6,10,12,25,-1037
975,11.173177,1,5,9,13,22,-1038
976,11.184856,3,6,10,16,26,-1037
977,11.196613,2,5,10,13,23,-1038
978,11.208278,2,4,9,16,24,-1033
979,11.219887,2,7,10,15,31,-1036
980,11.231474,2,5,10,14,27,-1037
981,11.24302,1,8,8,12,23,-1033
982,11.254571,1,7,9,15,23,-1035
983,11.266156,2,8,11,16,27,-1032
984,11.277681,3,4,8,15,24,-1039
985,11.289201,3,4,9,17,25,-1034
986,11.300773,2,6,9,11,27,-1036
987,11.312466,2,7,9,13,31,-1027
988,11.324161,3,4,7,13,25,-1029
989,11.335805,3,6,9,16,26,-1034
990,11.347452,1,5,7,12,23,-1035
991,11.359124,2,4,9,16,28,-1037
992,11.370799,2,6,9,17,20,-1036
993,11.382489,3,6,12,13,22,-1036
994,11.394178,3,6,9,14,25,-1038
995,11.405848,1,7,9,17,22,-1034
996,11.417522,3,8,10,15,24,-1036
997,11.429107,1,6,9,8,26,-1031
998,11.440663,1,5,9,13,24,-1035
999,11.452239,1,5,10,12,28,-1034
1000,11.463795,1,5,10,10,24,-1038
1001,11.475363,3,5,9,15,24,-1030
1002,11.486908,1,8,10,17,21,-1034
1003,11.498467,2,6,9,10,27,-1034
1004,11.510059,1,7,9,18,26,-1034
1005,11.521694,4,5,8,19,26,-1041
1006,11.533373,2,7,9,9,27,-1040
1007,11.545052,2,9,9,15,27,-1034
1008,11.55672,2,8,9,15,28,-1026
1009,11.568367,1,7,8,16,30,-1033
1010,11.580041,1,3,10,12,27,-1039
1011,11.59169,3,9,8,11,20,-1037
1012,11.603347,3,5,7,14,26,-1034
1013,11.615036,2,6,11,18,26,-1035
1014,11.626696,2,6,8,15,27,-1035
1015,11.638259,1,9,8,13,23,-1037
1016,11.649851,3,6,8,13,25,-1044
1017,11.661438,3,6,9,11,23,-1028
1018,11.672961,2,9,7,15,25,-1035
1019,11.684505,4,5,10,15,26,-1035
1020,11.696052,4,6,10,12,21,-1035
1021,11.707603,4,5,10,12,25,-1033
1022,11.719155,1,5,9,13,22,-1035
1023,11.730806,0,4,9,15,27,-1038
1024,11.742456,2,7,10,13,27,-1037
1025,11.75419,3,8,6,15,22,-1031
1026,11.765868,1,4,9,11,26,-1032
1027,11.777495,2,7,10,9,27,-1034
1028,11.78921,3,7,10,17,28,-1037
1029,11.800868,2,7,7,15,23,-1040
1030,11.812543,4,7,10,11,26,-1039
1031,11.824213,0,6,9,16,25,-1030
1032,11.835864,2,6,10,13,31,-1039
1033,11.847447,3,8,9,16,27,-1035
1034,11.859005,3,6,9,15,23,-1032
1035,11.870561,4,5,9,12,21,-1033
1036,11.882161,2,6,10,13,27,-1024
1037,11.893695,1,6,6,14,25,-1037
1038,11.905254,1,9,11,12,25,-1032
1039,11.916831,2,6,9,15,24,-1038
1040,11.928392,4,5,10,17,24,-1039
1041,11.940024,3,5,7,14,26,-1035
1042,11.951682,2,8,9,14,25,-1039
1043,11.963335,2,5,10,15,28,-1042
1044,11.975003,3,5,10,11,27,-1046
1045,11.986665,2,5,10,12,30,-1034
1046,11.998315,2,6,11,14,26,-1036
1047,12.01002,3,5,11,16,26,-1042
1048,12.021681,3,7,11,9,28,-1028
1049,12.033373,1,4,12,15,26,-1031
1050,12.045049,2,8,8,12,29,-1035
1051,12.056626,3,6,9,11,27,-1037
1052,12.068179,3,5,10,14,29,-1032
1053,12.079745,0,5,9,12,25,-1034
1054,12.091321,1,6,8,14,27,-1029
1055,12.102875,0,6,7,15,29,-1035
1056,12.114451,3,5,10,12,27,-1024
1057,12.126009,2,7,7,14,24,-1040
1058,12.137567,2,5,10,17,27,-1039
1059,12.14924,3,6,9,19,26,-1033
1060,12.16097,2,5,9,10,25,-1028
1061,12.172623,4,6,8,14,28,-1032
1062,12.184294,3,6,10,15,26,-1033
1063,12.19595,1,8,11,14,28,-1037
1064,12.207595,1,4,10,13,23,-1035
1065,12.219248,3,9,9,14,25,-1033
1066,12.230932,3,7,10,15,23,-1035
1067,12.242626,3,7,10,12,25,-1038
1068,12.254296,1,7,9,17,26,-1036
1069,12.26587,2,7,10,12,29,-1038
1070,12.277437,1,8,9,13,25,-1033
1071,12.288964,1,5,10,13,24,-1037
1072,12.300509,2,5,11,15,26,-1031
1073,12.312056,3,6,7,17,23,-1035
1074,12.323618,0,6,7,13,23,-1039
1075,12.335162,2,8,8,15,25,-1036
1076,12.346735,3,6,11,15,25,-1031
1077,12.358414,3,6,9,15,21,-1036
1078,12.370199,1,7,9,15,23,-1041
1079,12.381921,3,8,8,13,27,-1036
1080,12.393588,2,5,8,16,24,-1034
1081,12.405246,1,6,8,15,24,-1035
1082,12.416963,2,6,8,13,25,-1030
1083,12.428614,2,5,10,11,26,-1034
1084,12.440293,4,5,8,13,25,-1036
1085,12.451973,4,6,9,15,26,-1036
1086,12.463682,4,5,10,15,27,-1031
1087,12.475239,3,6,11,14,28,-1035
1088,12.486822,4,5,10,11,30,-1039
1089,12.498382,3,7,10,13,25,-1038
1090,12.509926,1,8,9,11,26,-1038
1091,12.521442,3,5,7,9,22,-1041
1092,12.532961,2,6,7,12,24,-1045
1093,12.544504,1,7,9,12,25,-1037
1094,12.556058,2,6,9,9,21,-1031
1095,12.567683,2,7,9,13,22,-1031
1096,12.579329,1,5,8,17,28,-1033
1097,12.590979,0,6,12,12,27,-1032
1098,12.602676,2,5,9,16,28,-1037
1099,12.614316,1,9,11,16,24,-1040
1100,12.626012,1,6,10,11,23,-1036
1101,12.637685,2,5,8,12,28,-1038
1102,12.649358,3,7,11,15,28,-1037
1103,12.661049,3,7,11,13,25,-1030
1104,12.672722,2,6,9,11,23,-1030
1105,12.68429,3,5,10,14,24,-1036
1106,12.695886,3,7,10,17,26,-1030
1107,12.70744,2,8,10,14,27,-1033
1108,12.718995,1,7,10,15,25,-1034
1109,12.730535,2,5,9,16,26,-1030
1110,12.742086,2,5,9,14,25,-1036
1111,12.753671,2,6,8,14,24,-1035
1112,12.765209,3,7,8,13,28,-1035
1113,12.776846,3,9,7,11,25,-1032
1114,12.788526,3,5,8,13,27,-1035
1115,12.800179,3,7,10,15,27,-1039
1116,12.811818,2,5,8,10,27,-1038
1117,12.823462,2,6,10,14,31,-1033
1118,12.835129,4,5,10,9,26,-1031
1119,12.846795,1,6,10,14,26,-1035
1120,12.85847,4,6,9,14,26,-1037
1121,12.870181,4,4,9,13,22,-1036
1122,12.881855,1,5,7,16,29,-1035
1123,12.893431,1,7,10,9,26,-1030
1124,12.90496,0,5,11,11,30,-1036
1125,12.916506,0,6,9,16,25,-1029
1126,12.928047,3,6,7,16,25,-1036
1127,12.939595,2,7,9,12,23,-1032
1128,12.951146,1,6,9,16,31,-1030
1129,12.962714,1,6,7,11,28,-1031
1130,12.974283,4,6,8,13,24,-1036
1131,12.98592,2,7,11,10,27,-1037
1132,12.997575,2,6,9,14,26,-1033
1133,13.009256,1,5,9,15,23,-1027
1134,13.020913,2,5,7,11,26,-1036
1135,13.03256,2,7,9,14,24,-1035
1136,13.04421,3,7,11,8,26,-1029
1137,13.055849,1,5,9,12,27,-1032
1138,13.067494,1,6,9,13,27,-1033
1139,13.079194,1,9,9,14,24,-1035
1140,13.090838,2,7,10,11,25,-1033
1141,13.102488,2,6,7,12,26,-1040
1142,13.114162,2,7,10,13,26,-1036
1143,13.125808,3,6,9,16,25,-1041
1144,13.137481,0,8,9,13,26,-1034
1145,13.149159,4,6,8,16,27,-1036
1146,13.160801,2,6,10,16,27,-1041
1147,13.172461,4,6,10,14,23,-1038
1148,13.18414,1,5,10,17,29,-1033
1149,13.195807,1,5,10,14,26,-1033
1150,13.207375,2,5,10,16,26,-1038
1151,13.218936,4,4,9,13,23,-1033
1152,13.230527,3,6,10,9,26,-1032
1153,13.242112,1,6,6,11,27,-1039
1154,13.253677,2,4,9,15,24,-1037
1155,13.265236,1,7,9,18,25,-1033
1156,13.276783,2,6,11,13,23,-1024
1157,13.288327,2,5,9,14,26,-1032
1158,13.299999,3,7,10,16,24,-1033
1159,13.311658,2,6,10,15,28,-1037
1160,13.323314,1,6,8,12,25,-1037
1161,13.334962,3,7,7,9,26,-1032
1162,13.346613,2,7,9,12,27,-1038
1163,13.358285,3,6,8,14,21,-1034
1164,13.369986,2,5,8,14,24,-1029
1165,13.381649,2,5,11,14,30,-1035
1166,13.393325,4,5,9,12,26,-1038
1167,13.404982,1,6,11,13,28,-1035
1168,13.416536,4,6,8,14,26,-1027
1169,13.428116,3,7,10,13,21,-1037
1170,13.439664,1,6,8,15,28,-1036
1171,13.451212,0,5,9,15,25,-1042
1172,13.462759,1,6,7,9,24,-1034
1173,13.474302,2,5,8,16,25,-1034
1174,13.485852,2,7,10,12,23,-1036
1175,13.49744,0,6,8,12,25,-1034
1176,13.509152,2,6,10,17,26,-1039
1177,13.520843,2,5,9,16,25,-1026
1178,13.532493,3,6,12,11,22,-1032
1179,13.544153,2,5,11,15,25,-1032
1180,13.55581,2,6,9,13,25,-1041
1181,13.567449,2,7,8,14,22,-1033
1182,13.579094,2,6,8,18,24,-1037
1183,13.590764,3,7,8,13,28,-1043
1184,13.602465,3,6,8,16,25,-1036
1185,13.614141,2,4,10,10,24,-1036
1186,13.625691,2,6,10,10,28,-1039
1187,13.637249,3,7,8,16,24,-1038
1188,13.648823,2,6,10,10,25,-1035
1189,13.660371,3,7,8,18,32,-1032
1190,13.671918,3,5,8,8,26,-1038
1191,13.683495,2,5,10,14,28,-1029
1192,13.695042,2,4,10,15,24,-1036
1193,13.70662,2,5,11,15,26,-1042
1194,13.718293,2,4,10,16,24,-1037
1195,13.729938,5,5,8,13,20,-1040
1196,13.741632,2,6,8,11,25,-1037
1197,13.753307,3,6,8,13,28,-1037
1198,13.764974,2,8,7,14,27,-1036
1199,13.776621,3,6,8,10,26,-1034
1200,13.788293,1,6,10,15,24,-1033
1201,13.799936,2,6,7,16,25,-1040
1202,13.811578,4,3,8,9,26,-1027
1203,13.823126,2,7,7,13,26,-1040
1204,13.83467,3,5,7,11,27,-1043
1205,13.846217,3,5,10,17,25,-1030
1206,13.857803,2,6,9,13,26,-1033
1207,13.869359,1,6,10,15,30,-1035
1208,13.88091,4,8,8,12,28,-1034
1209,13.892486,2,6,10,13,25,-1028
1210,13.904046,3,5,7,13,28,-1033
1211,13.915671,2,6,11,16,27,-1034
1212,13.92736,3,6,8,12,25,-1030
1213,13.939301,4,5,8,10,26,-1035
1214,13.951114,3,5,9,15,25,-1034
1215,13.962805,3,7,10,12,29,-1032
1216,13.974505,1,6,10,13,25,-1027
1217,13.986193,1,8,9,12,27,-1042
1218,13.997894,3,7,11,14,29,-1035
1219,14.009676,3,4,8,10,27,-1036
1220,14.021374,2,6,7,15,27,-1039
1221,14.032972,2,8,9,11,27,-1032
1222,14.044535,2,5,9,17,27,-1035
1223,14.056119,2,7,11,13,27,-1037
1224,14.067668,2,8,11,11,28,-1035
1225,14.079221,1,8,8,15,27,-1037
1226,14.090774,2,7,7,15,23,-1036
1227,14.102322,5,6,11,18,27,-1037
1228,14.113924,4,5,11,16,27,-1033
1229,14.125559,0,6,10,15,28,-1029
1230,14.137263,3,6,12,13,28,-1033
1231,14.148926,4,6,10,15,29,-1036
1232,14.16058,3,7,10,14,24,-1034
1233,14.172243,4,8,8,13,31,-1033
1234,14.183917,0,10,9,11,26,-1041
1235,14.195585,2,7,10,15,23,-1037
1236,14.207258,2,6,9,17,29,-1037
1237,14.218935,3,6,10,13,22,-1034
1238,14.230616,1,6,11,6,26,-1034
1239,14.242188,2,7,9,13,25,-1037
1240,14.253753,0,6,11,9,25,-1036
1241,14.26532,3,8,8,13,25,-1030
1242,14.276875,3,6,9,15,31,-1030
1243,14.288441,2,5,10,12,28,-1035
1244,14.299998,1,4,7,18,25,-1032
1245,14.311553,4,6,9,15,25,-1031
1246,14.323133,3,7,7,15,26,-1028
1247,14.334749,0,7,11,11,23,-1030
1248,14.34647,1,9,10,13,25,-1034
1249,14.35816,2,5,10,12,27,-1038
1250,14.369827,2,7,10,12,23,-1035
1251,14.381494,2,6,9,12,25,-1028
1252,14.393157,2,7,10,10,27,-1036
1253,14.404843,3,8,12,15,27,-1034
1254,14.416489,4,8,8,16,24,-1038
1255,14.428163,1,6,10,16,24,-1026
1256,14.439822,1,6,8,15,24,-1032
1257,14.451375,2,6,11,18,26,-1039
1258,14.462918,3,5,10,10,26,-1034
1259,14.474475,3,7,7,13,24,-1030
1260,14.486043,2,7,9,18,27,-1037
1261,14.497596,3,8,8,14,29,-1031
1262,14.509141,2,5,9,18,24,-1032
1263,14.520717,1,5,12,15,24,-1035
1264,14.532278,2,6,9,14,24,-1041
1265,14.543921,1,6,10,11,26,-1027
1266,14.555579,4,7,8,14,26,-1037
1267,14.567221,0,7,10,13,23,-1040
1268,14.578866,2,8,8,15,29,-1036
1269,14.590539,3,7,9,10,25,-1036
1270,14.602188,2,6,10,13,26,-1036
1271,14.613867,2,6,10,11,25,-1032
1272,14.625548,2,5,9,12,24,-1031
1273,14.637231,2,4,9,14,30,-1033
1274,14.648893,2,6,6,13,20,-1030
1275,14.660476,3,8,8,17,26,-1032
1276,14.672036,1,6,9,12,24,-1035
1277,14.683612,1,5,9,17,26,-1033
1278,14.695163,2,4,8,16,27,-1035
1279,14.706731,2,6,9,16,22,-1042
1280,14.718308,2,6,9,16,24,-1029
1281,14.729893,2,6,11,14,22,-1033
1282,14.741455,3,6,9,12,27,-1030
1283,14.753099,1,6,8,11,26,-1038
1284,14.764775,2,6,7,14,26,-1031
1285,14.776433,1,4,9,13,24,-1040
1286,14.788089,2,6,7,11,24,-1032
1287,14.799756,2,10,8,16,25,-1032
1288,14.811406,1,8,8,10,29,-1034
1289,14.823065,2,8,10,11,29,-1034
1290,14.834716,1,6,8,10,26,-1035
1291,14.846418,2,6,9,13,24,-1040
1292,14.858093,3,7,9,12,27,-1040
1293,14.869678,1,6,11,13,23,-1037
1294,14.88124,3,5,9,9,26,-1036
1295,14.892788,3,4,10,11,23,-1032
1296,14.904332,1,6,8,19,26,-1034
1297,14.91588,2,8,9,12,27,-1035
1298,14.927447,0,6,12,15,25,-1032
1299,14.939,4,7,10,11,22,-1036
1300,14.950553,2,8,8,10,26,-1034
1301,14.962209,4,6,11,14,29,-1033
1302,14.973885,3,7,7,12,28,-1035
1303,14.985564,3,6,10,15,26,-1035
1304,14.99723,2,7,9,16,25,-1033
1305,15.008883,4,9,9,9,20,-1028
1306,15.020549,3,6,9,12,22,-1029
1307,15.032189,3,7,10,9,26,-1033
1308,15.043836,1,5,10,16,24,-1036
1309,15.055518,2,4,10,15,22,-1032
1310,15.067175,1,7,8,13,28,-1032
1311,15.078852,2,9,8,13,23,-1035
1312,15.090523,4,7,11,12,25,-1033
1313,15.102182,2,6,9,14,27,-1036
1314,15.113828,3,7,9,13,28,-1035
1315,15.125514,1,6,8,14,26,-1030
1316,15.137167,2,7,10,14,22,-1030
1317,15.148848,3,6,9,14,27,-1036
1318,15.160545,2,5,7,9,26,-1037
1319,15.172194,2,5,10,11,25,-1034
1320,15.18384,1,7,11,12,25,-1028
1321,15.195518,4,9,8,13,24,-1034
1322,15.207178,2,4,10,17,27,-1030
1323,15.218831,2,8,8,13,25,-1038
1324,15.230482,1,6,7,12,24,-1034
1325,15.242168,3,5,9,13,25,-1038
1326,15.253818,2,7,8,12,26,-1031
1327,15.265503,2,8,9,13,26,-1041
1328,15.27722,3,6,9,15,24,-1035
1329,15.288781,3,8,9,8,27,-1030
1330,15.300369,2,6,9,12,26,-1033
1331,15.311915,2,6,11,12,27,-1037
1332,15.323457,4,6,10,16,24,-1031
1333,15.335012,3,7,9,16,25,-1028
1334,15.346591,2,5,9,15,27,-1033
1335,15.358168,2,8,9,12,25,-1032
1336,15.369759,0,7,9,18,27,-1029
1337,15.381461,3,5,11,13,21,-1032
1338,15.393166,3,5,8,17,31,-1038
1339,15.404931,3,6,7,16,21,-1036
1340,15.416592,3,6,9,12,24,-1033
1341,15.428239,4,6,8,11,22,-1037
1342,15.439892,3,7,9,14,25,-1037
1343,15.451609,3,7,9,13,29,-1034
1344,15.4634,4,6,9,13,25,-1032
1345,15.475072,0,6,7,15,28,-1033
1346,15.486704,2,7,9,17,26,-1033
1347,15.498262,1,7,9,16,25,-1033
1348,15.50982,2,7,8,14,26,-1041
1349,15.521375,2,6,9,13,29,-1034
1350,15.532954,2,6,8,15,24,-1032
1351,15.544509,0,9,7,12,28,-1033
1352,15.556061,2,6,10,13,28,-1036
1353,15.56762,2,4,6,17,28,-1029
1354,15.579181,3,7,10,14,24,-1045
1355,15.590815,1,6,9,11,25,-1032
1356,15.602466,0,7,7,12,24,-1030
1357,15.614155,3,6,9,17,26,-1036
1358,15.625825,1,5,9,15,23,-1037
1359,15.637494,1,5,11,14,24,-1038
1360,15.649158,2,6,10,13,23,-1031
1361,15.660849,2,6,7,15,24,-1037
1362,15.672497,2,6,11,14,24,-1036
1363,15.684184,1,3,9,10,25,-1040
1364,15.695758,0,6,9,9,23,-1032
1365,15.707311,3,5,8,13,26,-1039
1366,15.718864,4,6,8,13,22,-1037
1367,15.730421,3,5,10,13,22,-1039
1368,15.742,4,6,9,11,27,-1033
1369,15.753566,3,6,9,14,25,-1032
1370,15.765121,2,7,8,13,31,-1036
1371,15.776674,2,8,9,10,26,-1036
1372,15.788257,3,6,10,16,21,-1031
1373,15.799971,1,7,7,17,24,-1042
1374,15.811654,2,7,9,10,22,-1038
1375,15.823355,2,4,8,10,25,-1036
1376,15.835046,2,6,7,14,26,-1037
1377,15.846701,3,6,10,15,23,-1029
1378,15.858345,1,5,10,12,23,-1041
1379,15.870039,3,7,9,17,22,-1037
1380,15.881692,2,7,9,13,26,-1036
1381,15.893371,1,8,9,16,28,-1027
1382,15.905112,3,4,9,12,30,-1033
1383,15.91667,2,7,10,12,25,-1038
1384,15.928236,3,6,7,12,26,-1036
1385,15.939781,2,7,9,13,27,-1029
1386,15.951327,3,5,9,13,25,-1029
1387,15.96287,1,4,9,14,24,-1037
1388,15.974435,2,5,9,13,25,-1031
1389,15.986002,2,8,8,14,25,-1036
1390,15.997574,2,5,8,17,28,-1039
1391,16.009236,3,7,10,16,25,-1034
1392,16.020903,1,7,9,15,28,-1035
1393,16.03256,2,5,9,11,24,-1034
1394,16.044202,2,6,9,16,28,-1034
1395,16.055848,1,9,12,13,25,-1033
1396,16.067518,1,7,8,17,26,-1040
1397,16.079171,2,8,11,15,24,-1041
1398,16.090819,3,5,9,14,27,-1034
1399,16.102484,4,5,11,15,28,-1032
1400,16.114153,3,6,10,11,27,-1035
1401,16.125685,2,7,8,15,23,-1035
1402,16.137246,3,6,9,14,23,-1040
1403,16.148793,3,7,9,12,28,-1030
1404,16.160346,2,6,12,10,26,-1037
1405,16.1719,2,5,10,8,22,-1036
1406,16.183484,2,10,8,16,27,-1028
1407,16.195064,3,6,8,11,23,-1038
1408,16.206633,3,8,11,11,23,-1039
1409,16.21827,2,8,8,11,27,-1036
1410,16.22993,2,7,9,17,26,-1033
1411,16.241637,3,5,9,13,25,-1034
1412,16.253303,4,6,11,12,26,-1036
1413,16.264976,3,4,9,16,25,-1040
1414,16.276649,3,7,9,13,27,-1034
1415,16.288304,1,7,9,11,29,-1028
1416,16.299955,3,6,8,13,25,-1037
1417,16.311636,2,7,10,17,26,-1034
1418,16.323318,2,8,10,16,29,-1035
1419,16.334873,3,7,10,14,27,-1033
1420,16.346449,2,5,12,10,27,-1035
1421,16.357999,1,5,9,15,23,-1037
1422,16.369581,5,6,9,13,25,-1037
1423,16.381124,1,8,8,12,27,-1038
1424,16.392661,2,8,8,12,28,-1041
1425,16.404215,0,7,10,17,22,-1034
1426,16.415764,2,6,9,18,23,-1035
1427,16.427377,3,7,9,12,29,-1040
1428,16.439041,2,6,11,12,25,-1038
1429,16.450688,2,4,10,13,25,-1029
1430,16.462357,3,7,7,12,24,-1036
1431,16.474014,4,7,10,16,27,-1031
1432,16.485663,3,6,11,16,22,-1035
1433,16.497311,1,7,9,15,26,-1038
1434,16.50899,3,5,9,13,24,-1034
1435,16.520649,4,6,9,14,26,-1038
1436,16.5323,3,6,9,12,25,-1026
1437,16.543856,1,9,6,10,28,-1033
1438,16.555443,2,5,10,14,25,-1032
1439,16.567012,3,6,9,11,24,-1033
1440,16.578581,3,7,8,16,22,-1037
1441,16.590167,3,7,10,12,25,-1038
1442,16.601742,3,6,9,14,27,-1038
1443,16.613333,1,7,9,15,25,-1040
1444,16.62488,3,6,11,17,24,-1033
1445,16.636522,2,6,11,9,24,-1030
1446,16.648165,3,6,8,13,25,-1036
1447,16.65981,3,4,10,11,28,-1034
1448,16.671481,3,6,10,19,27,-1037
1449,16.683127,1,6,9,12,26,-1034
1450,16.694778,2,7,11,14,23,-1035
1451,16.706426,3,5,10,16,26,-1028
1452,16.718105,3,8,9,16,27,-1036
1453,16.729768,1,4,6,13,27,-1039
1454,16.741439,4,6,10,14,22,-1036
1455,16.753115,1,7,9,17,29,-1034
1456,16.764773,2,7,10,10,27,-1036
1457,16.776415,3,6,8,16,23,-1039
1458,16.788065,3,8,8,16,25,-1037
1459,16.79974,5,8,9,19,25,-1038
1460,16.811378,2,8,9,14,23,-1041
1461,16.823054,3,8,8,14,29,-1033
1462,16.834736,2,5,9,11,27,-1034
1463,16.846392,3,7,12,18,28,-1033
1464,16.857946,1,7,9,16,27,-1027
1465,16.869503,2,5,10,20,28,-1033
1466,16.881081,2,8,10,14,27,-1039
1467,16.892669,3,5,8,13,23,-1034
1468,16.90422,0,6,11,15,26,-1041
1469,16.915803,1,7,10,16,25,-1037
1470,16.927345,0,5,11,15,28,-1036
1471,16.938937,2,4,10,12,25,-1036
1472,16.950561,2,6,9,15,25,-1033
1473,16.962228,0,6,9,12,26,-1032
1474,16.973887,1,6,9,9,27,-1031
1475,16.985564,1,6,11,16,22,-1032
1476,16.997245,1,3,9,12,23,-1031
1477,17.0089,3,6,9,13,26,-1042
1478,17.020553,3,6,7,12,29,-1035
1479,17.032222,2,6,10,14,28,-1033
1480,17.043879,4,4,10,15,23,-1032
1481,17.055539,2,6,8,15,23,-1036
1482,17.0671,3,7,10,13,24,-1033
1483,17.078668,4,6,10,12,28,-1035
1484,17.09022,3,6,10,13,28,-1035
1485,17.101802,1,6,8,17,27,-1030
1486,17.113349,3,6,9,15,25,-1035
1487,17.124897,2,8,8,15,25,-1036
1488,17.136442,2,6,10,13,25,-1037
1489,17.147998,3,6,9,16,28,-1032
1490,17.159621,5,5,7,11,25,-1032
1491,17.171272,4,8,10,13,26,-1033
1492,17.182945,2,6,8,13,27,-1038
1493,17.194593,2,4,8,10,25,-1036
1494,17.206268,4,5,9,15,27,-1029
1495,17.217945,4,8,8,10,25,-1033
1496,17.229609,3,6,9,14,23,-1031
1497,17.241243,4,5,7,15,27,-1033
1498,17.252906,3,4,10,15,28,-1041
1499,17.264471,2,5,8,13,25,-1026
1500,17.276023,1,7,7,13,24,-1034
1501,17.287598,2,6,7,13,26,-1035
1502,17.299155,2,6,9,12,28,-1031
1503,17.310725,2,6,10,14,25,-1040
1504,17.322287,2,6,10,14,29,-1031
1505,17.333836,5,5,9,10,26,-1033
1506,17.345381,3,6,9,14,26,-1035
1507,17.356952,0,7,10,17,25,-1034
1508,17.3685,2,10,10,17,27,-1033
1509,17.380041,1,9,9,15,23,-1034
1510,17.391618,1,5,10,13,22,-1033
1511,17.403166,0,6,12,18,24,-1037
1512,17.414735,3,7,10,14,26,-1036
1513,17.426277,1,7,10,14,29,-1030
1514,17.437826,2,7,9,13,23,-1041
1515,17.449374,2,7,10,15,24,-1036
1516,17.460965,2,8,11,17,27,-1041
1517,17.472613,3,7,8,15,23,-1037
1518,17.484261,4,6,9,16,24,-1035
1519,17.495932,1,6,9,11,29,-1034
1520,17.50758,1,4,9,15,23,-1038
1521,17.519236,3,7,10,15,28,-1037
1522,17.530884,2,8,8,11,22,-1036
1523,17.542543,3,6,7,16,23,-1034
1524,17.554211,2,3,8,9,23,-1036
1525,17.565893,3,5,10,15,28,-1034
1526,17.577551,1,5,8,13,26,-1036
1527,17.589237,3,7,8,15,23,-1036
1528,17.600885,3,6,8,14,28,-1034
1529,17.612546,1,6,9,16,28,-1037
1530,17.624197,3,5,8,13,31,-1034
1531,17.635838,4,5,8,15,27,-1038
1532,17.647484,1,6,9,12,28,-1030
1533,17.659178,1,5,8,13,26,-1034
1534,17.670823,3,6,10,17,25,-1030
1535,17.682498,3,6,9,11,29,-1031
1536,17.694175,2,8,8,13,23,-1039
1537,17.705826,1,7,10,15,26,-1029
1538,17.717494,2,7,8,11,24,-1036
1539,17.729169,2,6,10,16,24,-1038
1540,17.740843,2,7,7,14,24,-1031
1541,17.752494,1,5,8,8,24,-1035
1542,17.764185,2,6,9,17,29,-1035
1543,17.775769,1,7,9,13,24,-1037
1544,17.787355,2,8,10,15,30,-1032
1545,17.79891,2,6,9,14,25,-1037
1546,17.810489,1,7,10,12,26,-1039
1547,17.822049,2,5,11,11,24,-1029
1548,17.833597,1,8,8,10,27,-1034
1549,17.845148,0,7,9,12,25,-1035
1550,17.856714,2,6,9,12,24,-1032
1551,17.868275,2,5,10,11,24,-1038
1552,17.879903,1,6,9,17,23,-1034
1553,17.891559,2,6,10,16,26,-1031
1554,17.903213,5,5,9,12,24,-1040
1555,17.914862,1,7,10,11,24,-1030
1556,17.926528,2,8,8,11,25,-1034
1557,17.938204,3,7,10,13,27,-1037
1558,17.949881,2,6,10,13,23,-1030
1559,17.961537,3,7,9,14,25,-1037
1560,17.973252,2,8,8,16,24,-1037
1561,17.98495,1,6,8,14,25,-1035
1562,17.996505,1,8,8,15,26,-1032
1563,18.008082,2,7,10,15,25,-1034
1564,18.019636,2,7,9,14,27,-1036
1565,18.031198,3,6,8,16,26,-1037
1566,18.042771,1,7,10,13,27,-1032
1567,18.054335,1,7,11,18,24,-1028
1568,18.065906,4,8,7,13,25,-1038
1569,18.077469,3,5,9,15,28,-1035
1570,18.089103,2,4,8,18,27,-1034
1571,18.100764,2,5,8,15,25,-1036
1572,18.112418,3,8,7,15,22,-1035
1573,18.124064,1,6,10,13,26,-1029
1574,18.135735,3,6,11,16,27,-1035
1575,18.147382,2,7,10,16,23,-1030
1576,18.159026,2,6,8,13,24,-1028
1577,18.170675,1,5,11,11,27,-1037
1578,18.182327,3,6,8,15,30,-1029
1579,18.194009,2,7,8,12,27,-1029
1580,18.205672,3,7,7,17,28,-1038
1581,18.217316,0,6,11,13,21,-1041
1582,18.22899,4,6,10,12,28,-1031
1583,18.240642,0,4,6,13,23,-1032
1584,18.25228,3,7,8,14,25,-1034
1585,18.263929,0,5,9,14,24,-1036
1586,18.275617,2,6,7,19,29,-1037
1587,18.287437,2,8,10,12,26,-1030
1588,18.299123,3,5,9,13,26,-1029
1589,18.310707,1,5,9,11,25,-1037
1590,18.322268,1,5,11,8,24,-1034
1591,18.333837,2,6,8,12,25,-1036
1592,18.345385,3,7,9,14,23,-1033
1593,18.356961,2,7,9,11,23,-1033
1594,18.368532,3,5,7,13,26,-1034
1595,18.380087,2,5,8,13,25,-1038
1596,18.391686,0,8,9,13,24,-1032
1597,18.403321,3,4,9,13,22,-1036
1598,18.41504,5,5,11,13,24,-1038
1599,18.42669,1,5,9,13,28,-1039
1600,18.438361,2,7,10,12,28,-1033
1601,18.450021,3,7,9,9,23,-1033
1602,18.461681,3,8,9,14,27,-1039
1603,18.473366,1,8,10,13,24,-1036
1604,18.485029,1,5,10,13,29,-1034
1605,18.496683,4,7,7,16,25,-1029
1606,18.50836,3,7,8,15,25,-1033
1607,18.51995,1,6,8,15,24,-1040
1608,18.531508,2,6,9,13,27,-1031
1609,18.543049,3,7,8,11,25,-1036
1610,18.55463,2,8,7,10,22,-1038
1611,18.56619,1,7,8,15,26,-1031
1612,18.577745,2,6,10,13,28,-1034
1613,18.591744,3,4,9,16,25,-1037
1614,18.603349,2,5,6,9,26,-1034
1615,18.614904,4,6,9,12,24,-1035
1616,18.626455,3,6,11,13,22,-1035
1617,18.638009,2,6,9,9,24,-1032
1618,18.64957,0,9,10,16,27,-1037
1619,18.661183,2,5,9,16,23,-1028
1620,18.672719,3,7,9,9,27,-1038
1621,18.684298,2,9,10,14,28,-1033
1622,18.695837,1,7,10,7,23,-1034
1623,18.707471,1,6,10,16,28,-1042
1624,18.719107,2,5,10,10,24,-1033
1625,18.730779,3,7,9,12,25,-1032
1626,18.742444,2,5,9,16,25,-1030
1627,18.754143,2,7,10,14,28,-1035
1628,18.76583,4,7,9,10,24,-1033
1629,18.777505,4,4,9,13,26,-1029
1630,18.789191,3,7,10,14,25,-1031
1631,18.800928,1,6,7,12,22,-1031
1632,18.812681,2,4,10,14,24,-1031
1633,18.824359,2,5,7,16,27,-1036
1634,18.835923,2,6,10,13,27,-1032
1635,18.847504,2,5,9,11,29,-1033
1636,18.859053,2,7,8,14,25,-1036
1637,18.870634,0,7,10,11,28,-1029
1638,18.882179,2,7,11,11,30,-1034
1639,18.893725,1,7,9,11,23,-1035
1640,18.905274,1,5,10,15,24,-1036
1641,18.91685,3,7,9,14,27,-1034
1642,18.928465,3,7,10,13,26,-1028
1643,18.940116,2,8,7,17,27,-1033
1644,18.951781,2,4,8,12,25,-1035
1645,18.963447,2,5,9,14,27,-1041
1646,18.975099,2,6,10,16,26,-1032
1647,18.986749,3,4,10,15,24,-1033
1648,18.998418,2,6,9,16,27,-1035
1649,19.010075,1,6,9,9,25,-1031
1650,19.021755,2,9,7,15,27,-1037
1651,19.033403,3,6,10,13,26,-1040
1652,19.044962,2,8,8,14,27,-1034
1653,19.056525,2,5,11,12,27,-1040
1654,19.06807,3,6,9,11,21,-1035
1655,19.079626,1,8,9,15,26,-1037
1656,19.091176,2,7,10,11,28,-1027
1657,19.102742,2,6,10,16,26,-1034
1658,19.114299,4,6,10,11,23,-1036
1659,19.125919,2,6,11,13,27,-1035
1660,19.137589,2,7,9,11,24,-1031
1661,19.149246,2,5,10,14,26,-1030
1662,19.160908,3,5,9,15,27,-1030
1663,19.172577,2,5,9,16,27,-1037
1664,19.184261,2,5,10,14,25,-1034
1665,19.195915,5,6,10,15,26,-1036
1666,19.207581,1,6,8,17,25,-1032
1667,19.219239,2,6,9,17,22,-1039
1668,19.230898,2,8,8,12,28,-1034
1669,19.242563,3,6,6,15,22,-1031
1670,19.254141,3,5,6,16,27,-1040
1671,19.265684,2,6,9,14,23,-1028
1672,19.277259,2,5,9,17,25,-1038
1673,19.288828,2,4,8,10,28,-1036
1674,19.300398,2,7,9,15,22,-1039
1675,19.311986,4,5,10,11,28,-1037
1676,19.323538,2,5,7,11,29,-1037
1677,19.335127,1,5,6,8,25,-1038
1678,19.346743,2,6,9,13,24,-1037
1679,19.358407,3,8,9,8,28,-1036
1680,19.370063,3,3,9,15,25,-1042
1681,19.381777,2,5,8,14,24,-1034
1682,19.393429,2,5,9,15,27,-1033
1683,19.405104,3,6,9,12,27,-1037
1684,19.416786,3,7,10,15,28,-1033
1685,19.428431,3,6,9,15,26,-1037
1686,19.44009,0,6,11,14,27,-1033
1687,19.451756,1,7,10,10,25,-1036
1688,19.463313,2,5,9,15,24,-1032
1689,19.474876,2,5,11,14,25,-1030
1690,19.48643,4,7,8,18,27,-1033
1691,19.497997,3,8,10,12,25,-1030
1692,19.509622,2,6,10,6,25,-1035
1693,19.521195,3,5,8,12,27,-1035
1694,19.532718,2,7,8,11,30,-1039
1695,19.544275,1,6,12,14,27,-1030
1696,19.555916,1,8,9,14,23,-1036
1697,19.567574,2,6,9,15,27,-1032
1698,19.579244,1,7,9,15,28,-1035
1699,19.590908,2,6,8,11,23,-1034
1700,19.602565,2,4,9,12,27,-1036
1701,19.61428,4,6,10,12,26,-1027
1702,19.625947,2,7,8,12,25,-1034
1703,19.637641,5,5,9,11,25,-1034
1704,19.649311,2,6,10,18,27,-1036
1705,19.660972,0,5,10,16,29,-1033
1706,19.672526,1,8,7,17,24,-1031
1707,19.68408,3,8,8,15,26,-1028
1708,19.69563,3,8,9,15,29,-1039
1709,19.707209,2,9,11,14,25,-1035
1710,19.718758,1,8,11,11,28,-1032
1711,19.730334,2,7,8,15,24,-1042
1712,19.741897,2,5,9,15,26,-1033
1713,19.753447,0,7,11,16,28,-1032
1714,19.765063,4,5,10,14,27,-1034
1715,19.776726,2,7,10,14,26,-1035
1716,19.788403,2,5,10,10,28,-1037
1717,19.800056,2,6,8,9,25,-1039
1718,19.811698,3,7,9,11,23,-1042
1719,19.823367,2,7,8,17,25,-1027
1720,19.835028,2,5,8,14,27,-1037
1721,19.846675,2,6,7,16,25,-1038
1722,19.858346,2,6,11,10,29,-1039
1723,19.870003,3,8,8,15,23,-1032
1724,19.881612,1,8,9,10,26,-1033
1725,19.893215,2,6,9,15,28,-1028
1726,19.904777,2,7,9,17,25,-1036
1727,19.916337,2,8,8,17,25,-1031
1728,19.92792,3,8,12,13,31,-1039
1729,19.939661,1,5,9,13,27,-1036
1730,19.951367,3,6,9,20,26,-1030
1731,19.962958,2,6,11,15,26,-1040
1732,19.974633,2,5,8,15,24,-1035
1733,19.98629,2,8,9,10,29,-1035
1734,19.997947,2,7,10,15,27,-1033
1735,20.009629,1,7,9,16,26,-1034
1736,20.021293,2,7,10,15,29,-1034
1737,20.032988,1,7,10,13,26,-1033
1738,20.044644,2,6,9,14,25,-1034
1739,20.056299,1,7,8,13,26,-1040
1740,20.067969,3,5,10,15,27,-1031
1741,20.079662,1,4,7,13,24,-1037
1742,20.091226,2,4,8,16,29,-1038
1743,20.102823,1,4,9,11,26,-1038
1744,20.114381,3,7,8,14,28,-1037
1745,20.125949,3,6,10,15,25,-1032
1746,20.137506,2,7,11,13,23,-1032
1747,20.149081,4,6,8,14,24,-1035
1748,20.160651,4,6,9,13,23,-1033
1749,20.172222,4,7,10,8,26,-1037
1750,20.183877,2,8,8,17,22,-1040
1751,20.19554,3,8,9,18,24,-1033
1752,20.207214,4,6,10,14,23,-1035
1753,20.218873,3,7,7,17,25,-1030
1754,20.230528,2,6,9,20,32,-1032
1755,20.242207,2,7,7,12,19,-1037
1756,20.253892,0,5,9,10,29,-1041
1757,20.265594,3,7,9,10,23,-1030
1758,20.277299,4,9,10,11,23,-1031
1759,20.288968,4,7,9,14,27,-1029
1760,20.300546,3,7,9,9,22,-1033
1761,20.31211,3,7,11,13,26,-1034
1762,20.323687,2,6,9,15,22,-1037
1763,20.335292,2,4,8,14,31,-1032
1764,20.346836,2,5,9,12,27,-1035
1765,20.35839,3,6,9,15,24,-1030
1766,20.369931,1,6,8,14,25,-1039
1767,20.381494,1,6,9,14,28,-1042
1768,20.393162,2,6,9,14,23,-1032
1769,20.404858,0,7,10,15,25,-1030
1770,20.416518,1,7,8,12,24,-1033
1771,20.428193,2,5,9,14,24,-1037
1772,20.439849,3,6,8,14,28,-1032
1773,20.451499,1,5,9,11,28,-1035
1774,20.463165,2,4,9,14,26,-1030
1775,20.474828,1,7,9,12,23,-1037
1776,20.486498,1,7,8,13,26,-1033
1777,20.498167,2,7,9,17,27,-1026
1778,20.509729,2,7,11,13,24,-1035
1779,20.521291,2,4,9,14,28,-1037
1780,20.532847,1,7,9,17,23,-1038
1781,20.544396,2,6,7,12,22,-1034
1782,20.555953,0,4,5,16,25,-1036
1783,20.567568,2,6,10,11,28,-1035
1784,20.579165,1,5,9,14,26,-1036
1785,20.590734,3,7,8,17,25,-1039
1786,20.60239,1,6,8,13,25,-1028
1787,20.61409,4,8,8,12,24,-1039
1788,20.625752,1,8,8,13,23,-1035
1789,20.637478,3,5,9,12,27,-1045
1790,20.649152,3,5,9,13,22,-1035
1791,20.660842,0,8,10,16,20,-1038
1792,20.672529,2,5,9,13,24,-1031
1793,20.684205,3,6,10,18,29,-1033
1794,20.695876,4,7,11,16,24,-1037
1795,20.70755,1,8,9,11,28,-1036
1796,20.719136,3,8,9,13,25,-1037
1797,20.730687,3,7,10,12,27,-1040
1798,20.742237,4,9,9,15,24,-1032
1799,20.753822,2,6,10,10,27,-1037
1800,20.765394,2,7,10,15,28,-1034
1801,20.776961,0,6,9,14,26,-1031
1802,20.788521,1,6,10,11,25,-1038
1803,20.800084,2,6,9,11,25,-1033
1804,20.811714,1,8,11,11,28,-1041
1805,20.823438,2,8,8,15,26,-1030
1806,20.83509,1,6,11,15,27,-1039
1807,20.846751,0,8,10,14,24,-1036
1808,20.858435,2,7,10,12,29,-1036
1809,20.870092,4,7,9,14,27,-1026
1810,20.881759,4,6,9,14,30,-1035
1811,20.893435,0,5,10,15,25,-1032
1812,20.905139,6,7,8,13,23,-1033
1813,20.916845,3,6,7,16,25,-1036
1814,20.928409,3,6,6,16,24,-1031
1815,20.940021,1,4,8,13,29,-1028
1816,20.951577,1,8,10,13,29,-1034
1817,20.963137,1,6,10,17,27,-1036
1818,20.974687,2,7,8,14,26,-1038
1819,20.986238,4,7,9,14,23,-1035
1820,20.997805,2,6,10,14,25,-1034
1821,21.009374,1,6,10,16,27,-1036
1822,21.020992,1,8,8,12,25,-1034
1823,21.032733,3,7,10,14,28,-1036
1824,21.044419,1,7,8,17,24,-1030
1825,21.056073,2,5,9,16,29,-1030
1826,21.067714,1,5,9,11,24,-1033
1827,21.079387,2,5,8,15,24,-1036
1828,21.09106,1,7,10,16,23,-1030
1829,21.102709,1,6,9,13,27,-1031
1830,21.114382,2,7,7,18,26,-1035
1831,21.126043,2,8,8,15,29,-1032
1832,21.137632,2,7,9,13,28,-1028
1833,21.149203,3,7,12,13,24,-1038
1834,21.160757,4,7,10,10,22,-1033
1835,21.172306,4,7,10,11,31,-1031
1836,21.183868,2,6,8,15,27,-1040
1837,21.195414,4,7,9,12,29,-1034
1838,21.206963,2,7,9,12,24,-1038
1839,21.218529,3,7,10,10,23,-1039
1840,21.230206,2,7,9,14,24,-1036
1841,21.241899,1,6,8,13,27,-1031
1842,21.253554,3,4,12,15,30,-1034
1843,21.265237,3,5,9,16,29,-1035
1844,21.276963,1,6,7,12,25,-1035
1845,21.288638,3,7,10,13,26,-1032
1846,21.300291,3,6,10,12,23,-1032
1847,21.311939,0,6,7,12,26,-1036
1848,21.323598,1,8,10,15,28,-1027
1849,21.33515,3,7,9,9,26,-1038
1850,21.346702,2,6,8,13,28,-1033
1851,21.358384,3,6,9,10,25,-1034
1852,21.369923,3,8,9,10,28,-1040
1853,21.381437,4,5,8,16,27,-1037
1854,21.392958,2,6,10,17,30,-1038
1855,21.404533,2,6,9,15,23,-1033
1856,21.416096,2,7,7,12,27,-1034
1857,21.427652,3,7,10,13,25,-1027
1858,21.439307,3,6,11,14,26,-1032
1859,21.450961,3,6,10,14,25,-1035
1860,21.462637,1,8,10,14,23,-1033
1861,21.474284,2,6,8,10,25,-1036
1862,21.485944,3,7,9,12,23,-1037
1863,21.497619,2,6,10,14,25,-1029
1864,21.50924,2,6,10,16,24,-1033
1865,21.520918,3,5,11,14,25,-1036
1866,21.532563,3,7,6,10,23,-1033
1867,21.544212,2,6,9,15,25,-1032
1868,21.555885,3,6,9,12,22,-1039
1869,21.567532,2,4,9,15,21,-1038
1870,21.579176,3,6,8,17,26,-1031
1871,21.590834,1,8,9,10,25,-1037
1872,21.602498,2,7,10,12,26,-1030
1873,21.614155,2,6,8,12,29,-1032
1874,21.625836,3,5,8,14,24,-1038
1875,21.637505,3,6,10,13,25,-1033
1876,21.649166,3,7,8,11,25,-1036
1877,21.660839,3,7,11,15,28,-1038
1878,21.67249,2,6,9,14,25,-1034
1879,21.684139,2,9,11,13,27,-1035
1880,21.695778,2,6,10,15,29,-1032
1881,21.707422,2,3,11,14,23,-1033
1882,21.719079,3,8,9,14,25,-1038
1883,21.73077,4,6,11,13,24,-1029
1884,21.742423,2,6,7,12,21,-1030
1885,21.754098,2,7,9,14,26,-1035
1886,21.765755,2,7,6,17,31,-1038
1887,21.777467,3,5,9,11,22,-1033
1888,21.78914,2,6,9,12,21,-1034
1889,21.800802,4,6,10,15,24,-1031
1890,21.812464,0,7,11,17,21,-1033
1891,21.824135,1,8,8,16,26,-1033
1892,21.835805,3,6,10,14,24,-1036
1893,21.847458,2,7,8,10,27,-1039
1894,21.859116,4,6,9,21,24,-1029
1895,21.87077,2,7,8,13,25,-1037
1896,21.882425,2,6,9,16,24,-1036
1897,21.8941,2,6,9,13,24,-1037
1898,21.905754,2,8,12,13,22,-1032
1899,21.917413,4,6,9,17,26,-1032
1900,21.929112,2,6,8,12,24,-1035
1901,21.940797,2,7,8,15,22,-1033
1902,21.952344,3,7,9,12,21,-1033
1903,21.963879,1,4,9,19,25,-1033
1904,21.975428,2,4,8,9,26,-1034
1905,21.986971,3,3,7,10,29,-1033
1906,21.998531,2,6,9,12,27,-1032
1907,22.010092,3,5,9,15,23,-1029
1908,22.021703,3,6,11,14,28,-1031
1909,22.033267,3,5,11,13,22,-1033
1910,22.044844,3,7,9,15,26,-1036
1911,22.056515,3,5,9,13,27,-1035
1912,22.068163,1,5,8,11,24,-1035
1913,22.079843,4,6,9,12,26,-1032
1914,22.091502,3,5,12,11,26,-1031
1915,22.103146,3,6,10,14,26,-1033
1916,22.114794,0,7,7,15,24,-1037
1917,22.12648,2,5,9,12,27,-1039
1918,22.138147,0,7,10,14,29,-1032
1919,22.149877,3,9,9,15,27,-1030
1920,22.161454,2,6,8,15,27,-1039
1921,22.17303,3,6,9,12,23,-1038
1922,22.184574,0,6,9,11,27,-1031
1923,22.196125,5,5,10,11,22,-1036
1924,22.207678,3,7,10,11,28,-1041
1925,22.219237,0,6,10,13,27,-1035
1926,22.230784,2,7,8,9,26,-1033
1927,22.242352,2,6,9,12,24,-1034
1928,22.25409,1,5,9,11,27,-1035
1929,22.265761,1,7,10,15,26,-1039
1930,22.277415,1,6,10,14,27,-1034
1931,22.289103,1,7,10,15,23,-1040
1932,22.300733,2,6,10,13,26,-1031
1933,22.312374,0,4,8,15,24,-1042
1934,22.324041,3,7,9,15,26,-1034
1935,22.335707,0,5,10,16,24,-1036
1936,22.347372,3,6,6,12,25,-1032
1937,22.359064,2,7,9,12,25,-1036
1938,22.370639,3,6,10,11,27,-1036
1939,22.382312,2,7,7,13,23,-1032
1940,22.39387,0,7,8,10,27,-1032
1941,22.405446,2,5,11,11,25,-1034
1942,22.417031,3,7,10,14,23,-1027
1943,22.428582,1,4,8,14,29,-1037
1944,22.440155,3,6,10,16,27,-1033
1945,22.451717,4,5,10,18,26,-1031
1946,22.46335,1,6,8,14,30,-1037
1947,22.475003,1,5,9,17,24,-1037
1948,22.486655,0,9,8,13,27,-1035
1949,22.498332,2,6,10,14,21,-1039
1950,22.510002,2,6,8,14,24,-1040
1951,22.521697,2,6,6,14,29,-1035
1952,22.533375,2,7,8,11,26,-1040
1953,22.545022,2,6,10,14,23,-1031
1954,22.556693,3,8,9,17,26,-1035
1955,22.568349,2,9,8,12,29,-1032
1956,22.579916,3,6,9,13,29,-1028
1957,22.591485,2,9,7,14,28,-1042
1958,22.603064,1,6,8,17,23,-1034
1959,22.614711,1,6,9,12,26,-1036
1960,22.626277,2,5,10,13,24,-1034
1961,22.637828,0,6,10,16,27,-1032
1962,22.649418,4,4,8,11,29,-1034
1963,22.660964,4,7,9,14,24,-1027
1964,22.672623,3,8,8,13,26,-1033
1965,22.684291,1,8,9,13,30,-1039
1966,22.695941,2,7,9,14,26,-1034
1967,22.707589,4,7,8,16,27,-1035
1968,22.719241,2,7,8,11,25,-1031
1969,22.730884,2,5,9,13,26,-1033
1970,22.742564,2,7,11,12,27,-1037
1971,22.7543,3,7,9,8,25,-1037
1972,22.765952,3,4,8,12,22,-1036
1973,22.777523,2,8,10,15,24,-1028
1974,22.789085,2,5,9,13,27,-1029
1975,22.800631,1,5,9,15,23,-1038
1976,22.812178,2,6,8,13,28,-1036
1977,22.823742,2,7,9,13,23,-1032
1978,22.8353,2,5,8,14,24,-1031
1979,22.846873,2,6,8,12,21,-1038
1980,22.858425,3,5,10,14,22,-1026
1981,22.870094,2,7,9,11,25,-1042
1982,22.881779,1,6,12,11,28,-1032
1983,22.893478,2,4,9,12,29,-1032
1984,22.90518,3,6,10,11,23,-1029
1985,22.916855,3,6,7,14,25,-1037
1986,22.928533,1,4,9,13,24,-1030
1987,22.940187,2,4,9,14,25,-1031
1988,22.951841,0,6,10,10,25,-1038
1989,22.963533,3,6,8,13,26,-1033
1990,22.975208,2,7,9,16,26,-1039
1991,22.986759,4,5,9,15,24,-1035
1992,22.998303,2,5,9,10,26,-1038
1993,23.009866,2,6,8,13,24,-1042
1994,23.021432,2,7,12,13,27,-1035
1995,23.032961,4,5,8,14,29,-1041
1996,23.044508,2,6,11,13,25,-1032
1997,23.056116,2,6,9,12,22,-1036
1998,23.067677,1,7,9,16,27,-1035
1999,23.079302,3,7,9,15,23,-1033
