sample,t_s,gyro_x,gyro_y,gyro_z,accel_x,accel_y,accel_z
0,1.3e-05,-1,-1,1,1031,-1,-1544
1,0.011242,1,0,1,1034,4,-1545
2,0.022435,0,1,1,1034,-3,-1547
3,0.033626,0,1,1,1032,-2,-1541
4,0.044814,0,1,0,1032,-2,-1545
5,0.056002,0,1,1,1028,4,-1542
6,0.067191,0,0,1,1034,1,-1539
7,0.078389,0,-1,1,1032,0,-1545
8,0.08954,0,-1,1,1033,0,-1547
9,0.100723,0,-1,0,1034,3,-1545
10,0.111906,0,0,1,1029,0,-1547
11,0.123088,1,-1,0,1031,2,-1549
12,0.134279,0,-1,1,1033,-1,-1538
13,0.145472,0,-1,1,1033,1,-1546
14,0.156656,0,0,1,1037,0,-1547
15,0.167837,0,-1,1,1033,-1,-1544
16,0.179021,0,-1,0,1033,0,-1543
17,0.190214,1,0,0,1031,1,-1547
18,0.2014,0,0,0,1030,2,-1546
19,0.212582,0,0,0,1035,2,-1545
20,0.223764,0,0,1,1030,-1,-1550
21,0.234945,0,-1,0,1033,2,-1545
22,0.246095,-1,-1,1,1032,0,-1550
23,0.257276,0,-1,2,1035,0,-1547
24,0.268459,0,0,1,1038,-1,-1545
25,0.279643,0,0,1,1030,1,-1546
26,0.290828,0,0,2,1030,0,-1544
27,0.302021,0,-1,1,1034,0,-1538
28,0.313204,0,-1,1,1034,3,-1549
29,0.324386,-1,0,2,1031,0,-1541
30,0.335574,-1,0,2,1034,3,-1547
31,0.346756,1,0,2,1030,1,-1550
32,0.357909,0,-1,2,1035,0,-1547
33,0.369092,0,-1,2,1033,0,-1544
34,0.380276,0,0,1,1031,-3,-1548
35,0.391459,0,1,1,1033,-1,-1543
36,0.402644,0,1,1,1029,0,-1545
37,0.413847,0,-1,1,1031,0,-1549
38,0.425032,0,-1,1,1032,0,-1543
39,0.436214,0,0,1,1030,1,-1550
40,0.447399,0,0,1,1032,-1,-1545
41,0.458585,0,-1,1,1034,-1,-1543
42,0.469726,0,-1,1,1032,1,-1545
43,0.480917,0,-1,1,1032,1,-1536
44,0.492104,0,0,1,1036,-1,-1549
45,0.503287,0,-1,1,1029,-2,-1546
46,0.514471,0,-1,1,1033,3,-1541
47,0.525658,0,-1,1,1032,1,-1550
48,0.53684,0,0,1,1032,2,-1550
49,0.54803,0,0,1,1036,-1,-1539
50,0.559219,0,-1,0,1035,0,-1537
51,0.570419,1,1,1,1034,-1,-1544
52,0.581611,1,-1,1,1034,2,-1545
53,0.592798,0,0,1,1032,3,-1550
54,0.603986,0,0,1,1034,0,-1543
55,0.615172,1,1,1,1029,4,-1539
56,0.626362,-1,-1,1,1034,0,-1548
57,0.63754,0,-1,1,1032,0,-1540
58,0.648723,0,-1,1,1027,0,-1545
59,0.659909,1,2,2,1032,0,-1544
60,0.671095,0,1,1,1033,3,-1544
61,0.682283,0,1,1,1037,0,-1543
62,0.693502,0,1,1,1036,0,-1548
63,0.704698,0,0,2,1033,0,-1540
64,0.715883,0,-1,1,1035,2,-1542
65,0.72707,0,-1,2,1035,4,-1540
66,0.738262,0,-2,1,1036,2,-1546
67,0.749445,0,-1,1,1032,-1,-1547
68,0.760628,0,0,1,1029,0,-1550
69,0.771816,0,-1,1,1026,3,-1541
70,0.782997,0,-1,2,1032,0,-1546
71,0.794183,0,-1,1,1029,2,-1544
72,0.805355,0,0,1,1029,-1,-1542
73,0.816543,1,1,0,1032,1,-1541
74,0.82773,1,2,1,1030,1,-1541
75,0.838929,0,-1,1,1037,-2,-1543
76,0.850096,-1,0,1,1031,0,-1546
77,0.861285,0,0,1,1030,0,-1544
78,0.872469,1,0,1,1036,1,-1552
79,0.883649,0,1,0,1027,4,-1549
80,0.894831,0,1,0,1036,2,-1542
81,0.906022,0,0,1,1035,2,-1550
82,0.917204,0,0,1,1029,0,-1544
83,0.928388,0,1,1,1032,2,-1550
84,0.939569,0,0,0,1031,1,-1543
85,0.950751,0,0,0,1032,1,-1547
86,0.961913,0,0,1,1029,3,-1541
87,0.973095,1,0,1,1031,0,-1540
88,0.984276,0,-1,0,1032,1,-1542
89,0.995457,0,-1,0,1030,0,-1544
90,1.00664,-1,0,0,1034,0,-1546
91,1.017833,0,0,0,1036,2,-1546
92,1.029013,0,-1,1,1033,0,-1550
93,1.040198,0,-1,1,1032,4,-1540
94,1.051381,-1,-2,1,1033,-1,-1545
95,1.062563,-1,-1,2,1033,-3,-1540
96,1.073725,0,0,1,1030,0,-1545
97,1.084923,0,1,1,1035,2,-1544
98,1.096111,0,1,1,1029,4,-1541
99,1.107296,0,2,1,1032,0,-1547
100,1.118484,1,1,1,1034,1,-1548
101,1.129675,0,0,1,1028,0,-1547
102,1.14086,0,-1,2,1028,0,-1543
103,1.152051,-1,0,2,1030,-1,-1543
104,1.163235,0,-1,1,1032,-1,-1545
105,1.174429,0,-1,1,1033,0,-1545
106,1.185618,0,0,1,1033,0,-1540
107,1.196803,1,0,0,1034,1,-1545
108,1.207988,0,0,0,1031,-2,-1548
109,1.219174,0,0,1,1033,0,-1541
110,1.230367,0,0,1,1030,0,-1541
111,1.24154,0,0,1,1036,2,-1544
112,1.252728,0,-1,1,1031,0,-1547
113,1.263912,0,0,1,1028,3,-1546
114,1.2751,0,-1,0,1030,-4,-1544
115,1.286281,0,1,1,1031,0,-1544
116,1.297466,-1,-1,1,1035,1,-1542
117,1.308652,0,-1,1,1033,-1,-1541
118,1.319834,-1,-2,1,1031,-4,-1549
119,1.331016,0,-1,1,1033,1,-1543
120,1.342205,0,0,1,1033,4,-1546
121,1.353355,0,-1,1,1031,-1,-1535
122,1.364544,-1,-1,2,1033,0,-1545
123,1.37573,0,-1,0,1029,0,-1549
124,1.386918,0,-2,0,1031,2,-1545
125,1.398097,1,0,1,1032,1,-1547
126,1.409281,0,-1,1,1033,-1,-1548
127,1.420467,0,-2,1,1034,-1,-1541
128,1.431664,0,-1,1,1034,-2,-1550
129,1.442858,0,-1,1,1031,0,-1544
130,1.454049,1,0,1,1032,3,-1541
131,1.465234,1,2,1,1033,1,-1543
132,1.476419,0,1,1,1035,0,-1548
133,1.487601,1,1,2,1029,-2,-1545
134,1.498784,0,0,1,1032,0,-1545
135,1.509976,0,0,1,1037,1,-1539
136,1.521162,0,1,1,1029,2,-1544
137,1.532349,0,2,1,1035,0,-1545
138,1.543531,0,1,1,1031,0,-1542
139,1.55472,0,1,1,1028,2,-1546
140,1.565912,0,0,1,1029,0,-1552
141,1.577096,0,0,1,1030,2,-1549
142,1.588284,0,0,2,1033,0,-1541
143,1.599472,0,0,1,1029,4,-1545
144,1.610659,0,0,2,1031,0,-1545
145,1.62185,0,-1,1,1033,0,-1538
146,1.633036,0,-1,0,1030,0,-1547
147,1.644232,1,0,1,1033,1,-1545
148,1.655421,0,0,1,1031,-1,-1551
149,1.66661,1,0,1,1033,3,-1552
150,1.677803,1,1,2,1031,1,-1545
151,1.688989,0,1,2,1033,-2,-1536
152,1.700173,0,1,1,1033,0,-1546
153,1.711359,1,0,1,1028,0,-1536
154,1.722547,1,0,2,1029,1,-1546
155,1.733725,0,-1,2,1033,4,-1546
156,1.744915,0,1,1,1033,4,-1546
157,1.756101,1,0,2,1029,2,-1538
158,1.767292,1,1,2,1031,2,-1541
159,1.778478,0,0,3,1034,-4,-1546
160,1.789664,0,0,2,1035,3,-1549
161,1.800848,0,-1,2,1034,4,-1544
162,1.812031,0,0,1,1033,3,-1546
163,1.823218,1,0,1,1032,3,-1540
164,1.834406,0,-1,1,1035,0,-1542
165,1.845594,0,-1,2,1035,-1,-1541
166,1.856783,0,-1,2,1032,0,-1544
167,1.867981,0,-1,2,1034,-1,-1544
168,1.879192,1,0,0,1029,0,-1542
169,1.890394,0,1,0,1031,3,-1540
170,1.901541,0,2,0,1031,2,-1543
171,1.912732,0,1,1,1030,0,-1539
172,1.923923,1,0,1,1029,0,-1543
173,1.935106,0,1,1,1026,-3,-1548
174,1.946286,0,1,0,1030,0,-1544
175,1.957476,1,2,1,1034,-1,-1545
176,1.968663,0,1,1,1034,0,-1544
177,1.979865,0,2,1,1033,0,-1551
178,1.991048,0,-1,1,1027,0,-1547
179,2.002235,0,-1,1,1030,-1,-1547
180,2.013419,0,-1,1,1034,1,-1545
181,2.024604,0,0,1,1029,-1,-1544
182,2.035789,0,0,1,1031,1,-1543
183,2.046973,0,-1,1,1034,4,-1544
184,2.058161,0,-1,1,1034,1,-1542
185,2.069356,-1,0,1,1032,0,-1547
186,2.080545,0,0,1,1029,-2,-1547
187,2.091731,0,0,1,1038,5,-1543
188,2.102918,0,1,1,1034,4,-1540
189,2.1141,1,0,0,1032,0,-1542
190,2.125282,0,0,1,1029,0,-1550
191,2.13647,0,0,0,1032,1,-1540
192,2.147658,1,0,1,1033,1,-1544
193,2.158841,1,2,0,1032,4,-1544
194,2.17004,0,2,1,1031,-1,-1541
195,2.181225,0,1,1,1032,3,-1545
196,2.192414,1,1,1,1033,-2,-1545
197,2.203598,0,1,2,1032,-2,-1549
198,2.214784,0,1,1,1030,2,-1540
199,2.225987,0,1,1,1029,0,-1539
200,2.237169,-1,-1,1,1033,1,-1548
201,2.248356,0,0,0,1032,0,-1542
202,2.259539,0,-1,1,1032,1,-1539
203,2.270723,0,-1,1,1031,0,-1544
204,2.28191,0,-1,1,1037,1,-1542
205,2.293092,0,-1,1,1034,1,-1546
206,2.304278,0,-1,1,1034,0,-1545
207,2.315462,1,-1,2,1029,1,-1551
208,2.326648,0,-1,1,1028,-1,-1542
209,2.337841,0,-1,2,1031,-1,-1544
210,2.349029,0,0,1,1031,-1,-1538
211,2.360215,0,0,1,1033,3,-1543
212,2.371399,0,0,1,1033,1,-1546
213,2.382589,0,-1,0,1034,2,-1545
214,2.393777,1,-1,0,1029,0,-1539
215,2.404964,0,0,1,1032,3,-1544
216,2.416147,1,1,0,1031,-1,-1542
217,2.427335,0,1,1,1037,-2,-1540
218,2.438526,0,0,0,1035,1,-1545
219,2.449738,0,0,1,1033,3,-1550
220,2.460936,1,0,1,1033,3,-1545
221,2.472121,0,2,1,1032,0,-1547
222,2.483305,0,2,0,1031,3,-1546
223,2.49449,1,1,1,1034,-1,-1541
224,2.505676,1,2,1,1034,1,-1552
225,2.516859,1,1,1,1033,0,-1544
226,2.528041,1,0,0,1033,0,-1543
227,2.539222,1,-1,0,1031,4,-1543
228,2.550406,0,0,0,1031,3,-1551
229,2.561596,0,-1,0,1031,1,-1540
230,2.572777,0,0,1,1027,2,-1544
231,2.583976,-1,-1,1,1031,-2,-1543
232,2.595159,1,2,1,1036,0,-1545
233,2.606346,1,1,1,1031,1,-1541
234,2.617543,1,0,0,1036,3,-1550
235,2.628731,0,1,2,1034,2,-1538
236,2.639915,0,0,2,1034,0,-1544
237,2.6511,0,1,1,1037,0,-1539
238,2.662282,1,1,1,1033,0,-1543
239,2.673472,0,0,1,1031,0,-1547
240,2.684659,-1,1,1,1028,-2,-1542
241,2.695844,0,0,1,1033,3,-1543
242,2.707027,0,0,2,1029,1,-1543
243,2.718214,0,0,1,1030,1,-1548
244,2.729356,0,-1,1,1029,-2,-1544
245,2.740538,1,1,1,1033,0,-1546
246,2.751721,1,1,1,1030,0,-1541
247,2.762907,0,0,1,1030,2,-1539
248,2.774094,0,0,1,1029,-2,-1544
249,2.785277,0,0,1,1031,0,-1545
250,2.796464,1,0,1,1032,0,-1542
251,2.807648,1,2,0,1031,0,-1545
252,2.818833,1,2,1,1032,0,-1538
253,2.830022,0,1,1,1033,1,-1546
254,2.841208,0,0,2,1035,0,-1546
255,2.852399,1,1,2,1035,0,-1548
256,2.863584,1,1,1,1037,-1,-1544
257,2.874778,0,0,1,1032,2,-1550
258,2.885969,-1,0,1,1033,0,-1543
259,2.897152,1,-1,1,1034,3,-1541
260,2.90834,0,-1,2,1033,0,-1546
261,2.919537,1,1,0,1032,0,-1552
262,2.930721,0,0,1,1031,0,-1546
263,2.941917,0,0,1,1034,0,-1549
264,2.953101,1,1,1,1032,1,-1543
265,2.964282,0,1,1,1032,-2,-1547
266,2.975466,0,0,1,1032,3,-1543
267,2.986648,0,0,1,1029,-1,-1542
268,2.997841,1,0,1,1034,4,-1545
269,3.009029,0,2,0,1030,1,-1547
270,3.020217,1,2,1,1034,-1,-1550
271,3.031402,0,1,1,1029,0,-1544
272,3.042587,0,1,1,1031,0,-1546
273,3.053779,1,1,1,1027,2,-1546
274,3.064982,0,-1,1,1031,1,-1543
275,3.076168,0,-1,1,1031,0,-1545
276,3.087354,0,-1,0,1034,4,-1548
277,3.09854,-1,0,1,1030,1,-1548
278,3.109725,-1,0,0,1032,0,-1549
279,3.120912,0,0,0,1036,-2,-1547
280,3.132095,0,0,1,1033,3,-1549
281,3.143279,1,0,1,1034,0,-1550
282,3.154461,0,0,1,1033,0,-1541
283,3.165652,0,-1,1,1035,2,-1551
284,3.176836,0,0,1,1032,0,-1545
285,3.188022,0,-2,2,1032,-1,-1543
286,3.199204,0,0,1,1034,4,-1542
287,3.210395,0,-1,1,1032,3,-1544
288,3.221539,0,0,2,1029,0,-1543
289,3.232721,1,-2,1,1032,3,-1538
290,3.243902,-1,-1,1,1036,1,-1544
291,3.255086,0,-1,2,1035,0,-1542
292,3.26628,1,0,1,1031,4,-1546
293,3.277484,1,1,0,1030,0,-1545
294,3.28867,1,2,1,1031,-4,-1541
295,3.299864,0,1,1,1031,2,-1544
296,3.311049,0,1,2,1033,1,-1538
297,3.322245,0,0,1,1037,2,-1543
298,3.333434,0,-1,2,1032,-1,-1544
299,3.344623,0,-1,1,1035,0,-1544
300,3.355809,0,-1,1,1033,1,-1546
301,3.366997,0,-1,1,1033,-1,-1547
302,3.378186,0,1,1,1031,-2,-1548
303,3.389355,1,1,1,1035,0,-1543
304,3.400536,0,-1,2,1033,1,-1549
305,3.411719,0,1,1,1030,-2,-1543
306,3.422903,0,0,1,1034,4,-1544
307,3.434095,0,0,1,1031,-1,-1555
308,3.445276,0,1,1,1032,0,-1544
309,3.456464,1,0,1,1036,4,-1539
310,3.467654,0,1,1,1032,1,-1542
311,3.478872,0,0,2,1030,-1,-1548
312,3.490061,0,1,1,1033,0,-1542
313,3.501248,-1,0,1,1034,-1,-1540
314,3.512429,0,0,0,1034,0,-1551
315,3.523615,1,-1,1,1035,0,-1543
316,3.534806,1,0,1,1034,-2,-1549
317,3.546003,0,-1,1,1036,1,-1546
318,3.557186,0,0,0,1035,-1,-1542
319,3.568379,1,0,0,1036,1,-1545
320,3.579565,1,-1,1,1030,0,-1546
321,3.590754,1,0,1,1033,1,-1542
322,3.601909,1,1,1,1030,1,-1545
323,3.61309,0,1,1,1033,1,-1548
324,3.62427,0,1,0,1032,-1,-1542
325,3.635467,0,0,0,1031,0,-1545
326,3.646649,1,1,2,1032,-2,-1544
327,3.657845,1,2,2,1029,0,-1544
328,3.669028,1,0,1,1031,0,-1544
329,3.680209,-1,0,1,1031,-1,-1544
330,3.691391,0,1,1,1035,1,-1543
331,3.702576,0,1,1,1030,0,-1536
332,3.713723,0,2,1,1035,0,-1546
333,3.724904,0,2,1,1031,2,-1547
334,3.736084,0,1,1,1033,5,-1546
335,3.747268,1,0,0,1042,2,-1549
336,3.758469,1,1,0,1037,1,-1548
337,3.769658,0,0,1,1033,0,-1551
338,3.78084,0,1,2,1034,0,-1542
339,3.792024,0,1,1,1030,1,-1546
340,3.803207,0,0,1,1030,-2,-1539
341,3.814394,0,1,1,1032,1,-1544
342,3.82554,1,1,1,1034,-4,-1548
343,3.836721,1,1,1,1032,2,-1547
344,3.847902,0,0,1,1031,-1,-1547
345,3.859083,0,-1,1,1034,0,-1546
346,3.870273,0,0,1,1033,0,-1546
347,3.881466,0,0,1,1032,-1,-1545
348,3.892648,0,-1,1,1029,0,-1546
349,3.903832,1,0,1,1034,2,-1552
350,3.915015,1,0,0,1035,-2,-1541
351,3.926204,1,0,0,1036,0,-1550
352,3.937356,0,0,0,1033,0,-1544
353,3.948539,1,1,1,1037,1,-1547
354,3.959721,0,1,0,1030,2,-1541
355,3.970932,0,0,0,1031,1,-1544
356,3.98261,1,-1,1,1031,0,-1550
357,3.994294,0,0,0,1033,0,-1538
358,4.005971,0,1,0,1031,-1,-1543
359,4.01766,0,0,1,1032,0,-1548
360,4.029306,1,0,1,1027,1,-1542
361,4.040954,1,1,1,1032,2,-1541
362,4.052626,0,0,2,1033,0,-1545
363,4.06429,0,0,1,1031,1,-1545
364,4.075943,0,0,1,1031,0,-1540
365,4.08762,0,0,1,1032,3,-1554
366,4.099297,0,0,1,1028,0,-1543
367,4.110946,0,0,1,1030,0,-1542
368,4.122623,1,0,0,1032,-1,-1545
369,4.134288,1,0,0,1032,2,-1544
370,4.145915,0,0,1,1031,0,-1553
371,4.157567,0,0,1,1030,3,-1553
372,4.169263,0,0,1,1032,2,-1549
373,4.18092,1,-1,1,1034,1,-1547
374,4.192583,0,0,1,1030,4,-1550
375,4.204244,-1,1,1,1034,3,-1542
376,4.215894,0,1,1,1031,-1,-1541
377,4.227541,0,1,2,1030,0,-1541
378,4.239191,0,0,0,1030,0,-1546
379,4.250842,1,0,1,1035,3,-1543
380,4.262513,0,0,2,1030,0,-1541
381,4.274207,1,0,1,1030,-3,-1544
382,4.285875,1,1,1,1033,1,-1544
383,4.297542,0,1,1,1036,2,-1549
384,4.309188,0,-1,1,1033,0,-1547
385,4.320856,0,0,1,1035,2,-1547
386,4.332515,0,0,0,1033,0,-1539
387,4.344167,0,0,1,1035,2,-1544
388,4.355857,0,0,1,1031,0,-1549
389,4.367512,0,0,1,1034,0,-1539
390,4.37918,0,0,1,1030,0,-1544
391,4.390895,0,0,0,1029,1,-1544
392,4.402478,0,0,0,1035,1,-1543
393,4.414033,1,0,1,1031,1,-1539
394,4.425609,0,0,1,1033,-1,-1552
395,4.437156,0,0,1,1029,-2,-1545
396,4.448708,0,0,1,1031,3,-1541
397,4.460264,0,0,0,1031,0,-1549
398,4.471833,1,0,1,1033,0,-1552
399,4.483399,0,0,2,1033,0,-1545
400,4.49502,0,0,2,1033,1,-1547
401,4.506735,0,0,1,1032,1,-1545
402,4.51842,0,0,1,1029,0,-1538
403,4.530102,0,0,1,1035,-1,-1543
404,4.541792,0,1,1,1033,2,-1548
405,4.553489,1,1,1,1031,-1,-1547
406,4.56528,0,0,2,1030,-1,-1547
407,4.57702,0,0,1,1034,-1,-1543
408,4.588682,-1,0,1,1030,0,-1549
409,4.600274,0,1,0,1032,-1,-1544
410,4.611837,0,0,2,1033,-2,-1546
411,4.623389,0,0,1,1027,2,-1544
412,4.634939,0,1,1,1030,0,-1546
413,4.646498,0,0,0,1033,3,-1549
414,4.658076,0,0,1,1030,1,-1543
415,4.669637,0,1,1,1033,1,-1547
416,4.681206,0,0,1,1034,-3,-1547
417,4.692773,1,0,1,1032,0,-1543
418,4.704407,0,1,2,1032,1,-1545
419,4.716056,0,0,1,1031,0,-1543
420,4.727751,0,0,1,1031,0,-1541
421,4.739408,1,0,1,1033,2,-1543
422,4.751054,1,1,1,1034,4,-1543
423,4.76271,0,1,1,1034,-2,-1548
424,4.774422,-1,0,1,1037,3,-1543
425,4.78608,0,1,0,1034,0,-1543
426,4.797754,0,0,1,1033,-2,-1547
427,4.80941,-1,1,1,1030,4,-1549
428,4.820971,0,0,0,1032,1,-1546
429,4.832562,0,1,1,1032,-5,-1545
430,4.844116,0,1,1,1030,0,-1548
431,4.855693,0,0,1,1034,1,-1540
432,4.867242,0,-1,2,1029,2,-1547
433,4.878803,0,0,1,1032,-2,-1546
434,4.890361,-1,0,1,1032,3,-1547
435,4.901888,0,0,1,1033,1,-1543
436,4.913534,1,-1,1,1032,0,-1543
437,4.925194,-1,0,1,1031,1,-1552
438,4.93687,0,0,1,1031,-4,-1545
439,4.948517,1,0,1,1030,0,-1541
440,4.960168,0,0,1,1035,0,-1544
441,4.971837,0,0,1,1032,2,-1547
442,4.9835,1,-1,1,1034,-1,-1545
443,4.995154,0,0,1,1033,-6,-1542
444,5.006838,0,0,1,1035,0,-1544
445,5.018357,0,0,1,1029,0,-1548
446,5.029877,0,0,1,1031,2,-1545
447,5.041431,0,0,1,1033,0,-1546
448,5.052979,0,0,1,1029,0,-1536
449,5.064528,0,1,1,1034,1,-1546
450,5.076085,0,0,1,1031,-3,-1548
451,5.087632,0,0,1,1033,2,-1554
452,5.099205,1,0,1,1033,0,-1547
453,5.110802,1,0,1,1033,-2,-1542
454,5.122448,0,0,1,1026,2,-1542
455,5.134158,0,0,1,1033,0,-1547
456,5.145823,0,0,1,1030,0,-1541
457,5.157489,0,0,1,1033,0,-1546
458,5.169146,1,1,1,1032,3,-1537
459,5.180794,0,0,1,1034,0,-1538
460,5.192445,0,0,1,1029,0,-1548
461,5.204121,1,0,2,1029,0,-1546
462,5.215782,0,0,1,1030,0,-1544
463,5.227471,0,1,1,1030,2,-1546
464,5.239068,0,0,2,1035,0,-1545
465,5.250598,1,0,1,1033,-2,-1546
466,5.262112,0,0,1,1033,0,-1539
467,5.273635,1,0,1,1032,1,-1544
468,5.285183,0,0,1,1029,0,-1541
469,5.296734,0,-1,1,1033,2,-1541
470,5.308302,0,0,2,1031,2,-1545
471,5.319864,1,0,1,1032,-1,-1544
472,5.331497,0,0,1,1032,3,-1551
473,5.343143,0,-1,1,1034,0,-1542
474,5.354821,0,-1,0,1032,0,-1541
475,5.366504,1,0,1,1030,0,-1546
476,5.378169,0,-1,2,1029,2,-1545
477,5.389842,0,-1,1,1032,-2,-1549
478,5.40154,0,0,1,1033,0,-1547
479,5.413186,0,1,1,1031,-1,-1546
480,5.424879,0,0,0,1027,0,-1542
481,5.43654,0,0,1,1033,-1,-1545
482,5.448103,0,0,1,1032,-1,-1541
483,5.459677,0,0,1,1034,0,-1548
484,5.471232,0,0,1,1033,-1,-1541
485,5.482806,0,0,1,1033,3,-1546
486,5.494374,0,1,1,1033,0,-1545
487,5.505947,0,1,1,1033,-2,-1543
488,5.517507,1,0,2,1033,-2,-1547
489,5.529083,0,1,1,1028,2,-1542
490,5.540797,0,0,1,1031,1,-1555
491,5.552495,0,0,1,1033,-1,-1548
492,5.564139,0,0,1,1031,0,-1546
493,5.575791,0,1,1,1032,1,-1550
494,5.587431,0,0,0,1030,0,-1544
495,5.599105,0,0,1,1033,5,-1540
496,5.610766,1,0,0,1035,-2,-1552
497,5.622437,0,0,1,1033,2,-1544
498,5.634123,0,-1,0,1034,2,-1542
499,5.645777,0,0,1,1032,0,-1545
500,5.657336,0,0,1,1029,-5,-1544
501,5.668922,0,1,1,1029,2,-1543
502,5.680468,0,1,1,1032,1,-1544
503,5.692007,0,0,1,1033,0,-1544
504,5.703558,0,0,1,1032,2,-1547
505,5.715129,0,0,0,1032,4,-1545
506,5.72669,0,0,1,1031,-2,-1545
507,5.738251,1,1,1,1032,-2,-1546
508,5.749916,0,-1,1,1033,-2,-1543
509,5.761589,0,0,1,1035,2,-1541
510,5.773245,0,0,2,1032,3,-1545
511,5.784899,0,0,1,1032,0,-1540
512,5.796568,0,0,1,1035,-1,-1538
513,5.80822,0,0,2,1035,-1,-1547
514,5.819877,0,1,1,1035,-1,-1549
515,5.831557,0,0,1,1031,1,-1542
516,5.843246,0,1,1,1032,1,-1545
517,5.854837,-1,0,0,1029,1,-1547
518,5.866459,0,1,1,1032,-1,-1539
519,5.878043,0,0,1,1028,0,-1546
520,5.88961,0,0,1,1033,-1,-1545
521,5.901163,0,0,1,1034,0,-1538
522,5.912714,1,0,1,1035,1,-1539
523,5.924263,0,-1,2,1032,6,-1544
524,5.935835,1,1,1,1031,1,-1545
525,5.947483,1,0,2,1030,1,-1546
526,5.959137,-1,-1,1,1029,-2,-1541
527,5.970826,0,0,0,1034,0,-1551
528,5.982484,0,0,1,1035,0,-1546
529,5.994174,0,-1,0,1029,4,-1545
530,6.005851,0,1,1,1029,2,-1551
531,6.017524,0,0,2,1032,-2,-1545
532,6.029199,0,0,1,1029,0,-1544
533,6.040875,0,0,1,1031,3,-1545
534,6.05254,0,-1,1,1034,1,-1539
535,6.064104,1,0,1,1034,1,-1543
536,6.075676,0,0,1,1034,2,-1543
537,6.087232,0,0,1,1033,2,-1543
538,6.098802,0,0,1,1033,1,-1543
539,6.110361,1,0,1,1036,-1,-1550
540,6.121934,0,0,1,1031,4,-1544
541,6.133471,0,0,0,1032,0,-1543
542,6.145027,0,0,1,1029,2,-1546
543,6.156701,1,0,1,1032,1,-1545
544,6.168354,0,1,0,1030,2,-1550
545,6.179999,-1,0,1,1031,1,-1545
546,6.191653,1,0,2,1034,2,-1546
547,6.203326,0,0,1,1031,1,-1539
548,6.214985,0,1,0,1030,3,-1540
549,6.226685,0,0,1,1029,0,-1546
550,6.238369,0,0,1,1036,1,-1543
551,6.250081,0,1,1,1029,4,-1542
552,6.261736,0,0,1,1033,0,-1543
553,6.273405,0,0,0,1030,0,-1545
554,6.285078,0,0,0,1035,1,-1550
555,6.296733,1,0,1,1029,2,-1538
556,6.30838,1,0,1,1032,-1,-1549
557,6.320028,0,0,1,1030,0,-1541
558,6.331691,0,0,1,1031,3,-1538
559,6.343356,0,0,1,1032,2,-1547
560,6.355027,1,0,1,1034,0,-1543
561,6.366689,0,1,1,1036,0,-1546
562,6.378354,0,0,1,1036,-2,-1550
563,6.390032,0,0,1,1033,-1,-1545
564,6.401664,0,0,2,1033,-1,-1542
565,6.413336,1,0,0,1032,-4,-1542
566,6.424987,-1,0,1,1030,-2,-1547
567,6.436633,0,0,1,1033,0,-1546
568,6.448295,0,1,2,1033,0,-1547
569,6.459989,0,0,1,1031,0,-1544
570,6.471642,1,1,1,1027,1,-1543
571,6.483321,0,0,1,1031,0,-1538
572,6.494971,0,0,1,1032,0,-1540
573,6.506626,0,0,1,1033,-2,-1542
574,6.518323,1,0,0,1032,0,-1541
575,6.530018,0,0,1,1031,3,-1546
576,6.54171,1,-1,1,1033,-1,-1548
577,6.553388,1,0,2,1037,0,-1546
578,6.565068,1,0,1,1035,0,-1547
579,6.576756,0,0,0,1035,0,-1538
580,6.588407,0,0,1,1030,-1,-1550
581,6.600067,1,0,1,1035,-1,-1547
582,6.611735,0,0,1,1031,0,-1547
583,6.62339,0,0,0,1035,2,-1549
584,6.635029,0,0,1,1033,-2,-1550
585,6.646692,1,0,1,1030,3,-1537
586,6.658356,1,0,1,1034,1,-1546
587,6.67006,0,0,1,1033,0,-1545
588,6.681726,1,1,1,1031,0,-1541
589,6.693397,0,0,1,1033,0,-1547
590,6.705043,0,0,0,1032,0,-1543
591,6.716729,1,0,1,1032,0,-1541
592,6.728369,0,0,2,1033,2,-1541
593,6.740031,0,1,1,1035,2,-1538
594,6.751703,1,1,1,1034,-1,-1548
595,6.763355,0,-1,1,1035,-1,-1546
596,6.775012,0,0,1,1033,-1,-1546
597,6.786688,0,0,1,1032,1,-1552
598,6.798249,0,0,0,1030,6,-1543
599,6.809809,0,1,1,1034,3,-1550
600,6.821384,0,0,2,1033,0,-1541
601,6.832929,0,0,1,1033,0,-1546
602,6.844514,0,0,1,1028,2,-1540
603,6.856064,0,1,1,1034,0,-1543
604,6.867611,0,0,0,1029,2,-1538
605,6.879159,0,0,1,1033,3,-1543
606,6.89084,0,0,1,1031,2,-1544
607,6.902499,1,0,1,1034,0,-1547
608,6.914194,0,-1,1,1034,0,-1542
609,6.92585,0,0,1,1034,0,-1543
610,6.937533,1,0,1,1029,2,-1539
611,6.949215,1,0,1,1032,-1,-1550
612,6.960871,1,1,1,1033,4,-1542
613,6.972538,0,-1,0,1033,-1,-1547
614,6.984236,-1,0,1,1034,1,-1549
615,6.995888,0,0,1,1033,0,-1544
616,7.007566,0,0,1,1036,1,-1550
617,7.019221,0,0,1,1030,4,-1544
618,7.030876,0,0,1,1032,3,-1549
619,7.042574,1,0,0,1034,1,-1533
620,7.054225,0,0,1,1031,0,-1537
621,7.0659,1,0,1,1034,-2,-1549
622,7.077581,1,1,1,1034,-1,-1542
623,7.089257,0,0,0,1033,0,-1543
624,7.10091,0,0,1,1032,-1,-1547
625,7.112576,1,0,1,1033,0,-1548
626,7.124224,0,0,1,1032,0,-1538
627,7.13588,0,0,1,1030,4,-1540
628,7.147521,-1,0,1,1029,0,-1545
629,7.159166,0,0,1,1033,3,-1543
630,7.170841,-1,0,1,1034,3,-1545
631,7.182492,0,0,1,1032,2,-1545
632,7.194197,0,0,1,1033,3,-1545
633,7.205864,0,0,2,1033,1,-1549
634,7.217532,1,1,0,1033,-1,-1541
635,7.229188,0,1,1,1033,2,-1548
636,7.240841,0,0,0,1034,-2,-1542
637,7.252487,0,-1,2,1028,2,-1547
638,7.264133,0,0,2,1033,2,-1546
639,7.275809,0,0,1,1040,-3,-1543
640,7.28746,1,0,1,1035,0,-1545
641,7.299126,0,0,0,1034,0,-1540
642,7.310835,0,0,1,1035,-1,-1545
643,7.322504,0,0,1,1037,-3,-1540
644,7.334177,0,0,1,1032,0,-1544
645,7.345849,0,0,1,1033,-2,-1545
646,7.357531,0,1,-1,1037,0,-1542
647,7.369196,0,-1,1,1031,0,-1537
648,7.380852,1,0,1,1032,0,-1545
649,7.39251,0,0,0,1030,2,-1548
650,7.404197,0,1,1,1033,0,-1549
651,7.415889,0,0,1,1032,-2,-1546
652,7.427454,0,0,2,1033,4,-1538
653,7.439028,0,0,0,1030,1,-1547
654,7.450588,1,0,1,1035,2,-1541
655,7.462115,1,0,1,1035,0,-1545
656,7.473635,0,0,2,1030,1,-1539
657,7.48519,0,0,1,1033,3,-1547
658,7.496759,0,1,0,1036,2,-1547
659,7.508327,0,-1,1,1029,1,-1548
660,7.519957,0,-1,1,1034,0,-1543
661,7.531611,1,1,2,1032,1,-1543
662,7.543264,0,0,1,1035,0,-1550
663,7.554951,0,0,2,1035,-2,-1543
664,7.56661,0,0,1,1030,2,-1541
665,7.578311,0,0,1,1036,2,-1542
666,7.589972,0,0,1,1033,0,-1546
667,7.60166,1,1,0,1033,2,-1542
668,7.613329,0,1,1,1032,4,-1552
669,7.624886,0,-1,1,1033,0,-1545
670,7.636438,0,0,1,1035,1,-1545
671,7.648012,0,0,1,1034,1,-1542
672,7.659561,1,0,2,1029,-2,-1549
673,7.671143,0,-1,1,1033,4,-1546
674,7.682711,0,-1,1,1032,0,-1546
675,7.694297,-1,0,1,1031,1,-1548
676,7.70586,0,1,1,1033,5,-1546
677,7.717403,0,0,1,1032,0,-1547
678,7.729105,1,0,1,1033,2,-1542
679,7.740864,0,0,0,1033,-1,-1546
680,7.752552,0,-1,1,1031,3,-1537
681,7.764204,1,0,0,1031,0,-1546
682,7.775856,-1,0,0,1030,-1,-1549
683,7.78752,0,0,1,1032,-1,-1542
684,7.799186,1,0,1,1029,-1,-1549
685,7.810853,1,0,1,1037,0,-1547
686,7.822535,0,0,2,1031,1,-1546
687,7.834232,0,1,1,1033,4,-1547
688,7.845782,1,0,1,1036,3,-1547
689,7.857328,0,1,1,1030,0,-1543
690,7.868884,0,0,1,1031,2,-1546
691,7.88044,0,0,1,1033,1,-1543
692,7.89201,0,0,1,1031,-2,-1537
693,7.903554,0,0,1,1030,0,-1546
694,7.915102,0,0,1,1033,5,-1546
695,7.926672,0,0,1,1030,0,-1543
696,7.938326,1,0,1,1032,5,-1542
697,7.949987,0,0,1,1029,4,-1541
698,7.961656,1,0,1,1034,-1,-1543
699,7.973323,0,-1,1,1031,-2,-1540
700,7.984971,1,0,0,1032,0,-1544
701,7.996623,1,0,1,1030,0,-1539
702,8.008299,0,0,1,1030,2,-1550
703,8.019947,0,0,2,1031,0,-1544
704,8.03161,0,0,1,1035,0,-1547
705,8.04329,0,0,1,1032,1,-1547
706,8.054943,0,0,1,1034,0,-1538
707,8.066682,0,1,1,1032,2,-1547
708,8.078338,0,0,2,1030,3,-1544
709,8.090005,0,0,1,1032,-1,-1547
710,8.101664,0,0,2,1025,2,-1545
711,8.113327,1,1,1,1030,-3,-1542
712,8.124978,0,0,1,1031,0,-1543
713,8.13671,0,0,1,1033,3,-1543
714,8.148384,0,0,1,1028,-1,-1539
715,8.15993,0,0,1,1031,-2,-1548
716,8.171471,0,0,1,1030,1,-1544
717,8.18302,0,0,1,1034,3,-1543
718,8.194589,0,0,2,1031,0,-1549
719,8.206114,0,0,0,1031,3,-1545
720,8.217632,0,1,1,1032,1,-1548
721,8.229178,0,-1,1,1032,2,-1550
722,8.240763,0,0,1,1033,0,-1539
723,8.252403,0,-1,1,1032,1,-1546
724,8.264071,0,0,1,1035,-3,-1545
725,8.275713,0,0,2,1034,2,-1543
726,8.287366,0,0,1,1033,0,-1546
727,8.299042,1,0,1,1034,-2,-1546
728,8.310693,0,0,0,1034,0,-1543
729,8.322351,0,0,1,1033,0,-1539
730,8.334039,1,-1,0,1035,-1,-1540
731,8.345674,0,0,1,1032,2,-1543
732,8.357338,1,0,2,1035,0,-1548
733,8.36899,0,-1,1,1033,4,-1548
734,8.380669,1,0,1,1031,0,-1546
735,8.392325,0,0,0,1031,-1,-1546
736,8.40397,1,0,1,1033,-2,-1548
737,8.415617,0,0,0,1034,0,-1543
738,8.427315,0,0,1,1035,2,-1549
739,8.438965,0,0,1,1036,2,-1543
740,8.450629,0,0,1,1031,2,-1548
741,8.462344,0,-1,2,1033,3,-1541
742,8.473896,1,0,1,1033,0,-1536
743,8.485443,0,0,1,1034,7,-1545
744,8.496989,0,0,1,1034,2,-1541
745,8.508538,0,0,2,1034,0,-1545
746,8.520083,1,0,0,1031,4,-1537
747,8.531629,0,0,0,1036,2,-1546
748,8.543179,0,0,2,1034,0,-1544
749,8.554759,0,0,1,1032,0,-1541
750,8.566443,0,1,1,1032,0,-1544
751,8.578102,0,0,0,1026,0,-1540
752,8.589792,0,0,1,1032,1,-1551
753,8.601462,0,0,1,1033,0,-1543
754,8.613129,0,0,2,1031,-2,-1546
755,8.624802,0,0,2,1032,0,-1546
756,8.636456,0,0,1,1028,1,-1546
757,8.648102,0,0,1,1030,0,-1543
758,8.659765,0,0,1,1035,0,-1545
759,8.67132,0,0,2,1032,-1,-1546
760,8.682866,1,-1,1,1029,0,-1540
761,8.694425,0,-1,1,1032,1,-1544
762,8.70601,1,0,1,1032,2,-1548
763,8.717567,1,-1,1,1035,-1,-1545
764,8.729132,1,0,1,1033,0,-1549
765,8.740673,0,1,1,1033,0,-1543
766,8.752219,0,-1,1,1030,1,-1538
767,8.763881,0,0,1,1033,-3,-1545
768,8.77552,0,0,1,1034,2,-1548
769,8.787178,0,0,0,1033,0,-1541
770,8.798865,1,-1,1,1036,0,-1549
771,8.810562,1,1,1,1036,-1,-1546
772,8.822218,1,0,0,1033,1,-1549
773,8.833919,0,0,0,1032,4,-1543
774,8.845576,0,1,1,1035,1,-1541
775,8.857237,0,0,0,1034,-1,-1552
776,8.868909,0,0,1,1029,1,-1541
777,8.880564,1,1,1,1031,1,-1547
778,8.892216,1,0,1,1031,0,-1547
779,8.903866,0,0,1,1033,-3,-1543
780,8.915538,0,0,1,1031,1,-1541
781,8.927177,1,-1,1,1032,0,-1542
782,8.938834,0,0,1,1032,0,-1549
783,8.950499,1,0,1,1033,-1,-1545
784,8.962208,0,0,1,1032,-3,-1540
785,8.973898,0,0,1,1034,-3,-1548
786,8.985564,0,-1,1,1033,0,-1545
787,8.997213,1,0,2,1031,0,-1543
788,9.008861,0,-1,1,1031,0,-1544
789,9.020537,0,0,1,1034,-2,-1545
790,9.032184,0,0,1,1029,0,-1549
791,9.043828,0,0,2,1032,3,-1547
792,9.055476,0,0,1,1032,1,-1545
793,9.067153,0,0,1,1034,0,-1544
794,9.078842,0,1,2,1031,4,-1547
795,9.090422,1,0,2,1031,1,-1542
796,9.102016,0,-1,1,1031,-3,-1539
797,9.113569,0,0,0,1031,-4,-1544
798,9.125129,0,0,0,1035,1,-1547
799,9.136679,0,0,1,1032,-1,-1547
800,9.148245,0,0,1,1033,2,-1545
801,9.159794,1,0,0,1030,-3,-1544
802,9.171404,-1,0,1,1031,1,-1540
803,9.183079,1,1,1,1032,0,-1541
804,9.194743,0,0,1,1037,-1,-1546
805,9.206448,0,0,0,1031,-2,-1543
806,9.21812,0,1,0,1034,2,-1548
807,9.229785,0,-1,2,1035,1,-1543
808,9.241406,0,0,1,1033,0,-1545
809,9.253063,1,0,0,1035,0,-1544
810,9.264705,0,1,0,1036,-2,-1548
811,9.276366,1,1,0,1034,0,-1546
812,9.28803,1,0,1,1033,2,-1548
813,9.29961,0,1,1,1030,2,-1549
814,9.311149,0,0,1,1032,0,-1546
815,9.322719,0,1,1,1036,0,-1541
816,9.334273,0,0,1,1034,0,-1536
817,9.345817,0,0,2,1035,0,-1545
818,9.357384,0,1,1,1032,0,-1543
819,9.368956,0,0,2,1034,3,-1546
820,9.380516,0,1,1,1032,1,-1542
821,9.392167,0,0,1,1034,4,-1546
822,9.403826,0,-1,1,1034,1,-1546
823,9.415491,1,0,1,1034,2,-1539
824,9.427155,0,0,1,1034,0,-1542
825,9.438822,0,1,1,1032,3,-1541
826,9.450488,0,0,1,1034,1,-1547
827,9.462174,0,0,1,1034,0,-1544
828,9.473836,0,0,1,1027,1,-1543
829,9.485557,1,0,0,1033,0,-1547
830,9.497208,0,0,1,1031,0,-1537
831,9.508857,0,1,1,1029,1,-1550
832,9.52053,0,0,1,1030,0,-1543
833,9.532175,0,-1,1,1027,0,-1546
834,9.54385,0,-1,2,1030,-1,-1548
835,9.555523,1,0,1,1034,0,-1546
836,9.567167,0,0,1,1034,1,-1546
837,9.57884,1,0,1,1034,0,-1540
838,9.59053,0,0,1,1031,1,-1544
839,9.602179,0,1,1,1030,0,-1540
840,9.61376,0,1,1,1031,0,-1543
841,9.625317,-1,1,1,1032,-1,-1538
842,9.636869,1,0,1,1034,0,-1539
843,9.648419,1,-1,1,1036,-1,-1539
844,9.659988,0,0,1,1030,0,-1550
845,9.671529,0,0,0,1031,0,-1546
846,9.683075,0,0,1,1034,5,-1542
847,9.69461,0,1,1,1034,3,-1543
848,9.706272,0,1,1,1035,2,-1540
849,9.717924,0,0,0,1032,2,-1550
850,9.729584,0,0,1,1033,3,-1543
851,9.741256,0,0,1,1029,3,-1545
852,9.75291,0,0,1,1033,2,-1542
853,9.764561,0,0,1,1034,1,-1546
854,9.776213,1,0,1,1034,0,-1542
855,9.787884,0,0,1,1030,0,-1542
856,9.799554,0,0,1,1031,3,-1544
857,9.811211,0,0,1,1030,4,-1547
858,9.822884,0,0,1,1028,4,-1545
859,9.834562,1,0,0,1032,2,-1548
860,9.846231,0,0,2,1030,1,-1547
861,9.857924,0,0,2,1031,-2,-1542
862,9.86958,1,0,1,1031,-1,-1546
863,9.881249,0,0,1,1030,2,-1548
864,9.892906,1,0,1,1029,3,-1544
865,9.904589,1,0,1,1028,3,-1546
866,9.916287,0,0,1,1029,-1,-1552
867,9.927934,0,0,1,1030,1,-1545
868,9.939587,0,-1,0,1028,0,-1553
869,9.951241,0,-1,0,1032,1,-1546
870,9.962928,1,0,2,1032,0,-1544
871,9.974593,1,0,1,1033,0,-1541
872,9.986263,0,0,1,1032,3,-1551
873,9.997918,0,0,1,1030,-1,-1545
874,10.009604,0,1,0,1033,1,-1547
875,10.021259,0,0,1,1033,-3,-1538
876,10.032919,0,1,0,1033,0,-1544
877,10.044573,0,0,0,1032,0,-1541
878,10.056218,0,-1,1,1030,3,-1544
879,10.067873,0,1,1,1033,-3,-1543
880,10.07954,1,0,1,1033,2,-1548
881,10.091186,0,-1,1,1035,0,-1547
882,10.102842,0,0,0,1032,0,-1540
883,10.114537,0,0,1,1033,0,-1539
884,10.126181,0,0,1,1032,2,-1545
885,10.137756,0,0,1,1032,4,-1538
886,10.149305,1,0,1,1031,0,-1543
887,10.160849,0,0,1,1030,0,-1544
888,10.172399,0,0,1,1035,3,-1545
889,10.183946,1,0,1,1033,-4,-1544
890,10.195493,0,-1,1,1027,0,-1546
891,10.207038,1,1,1,1030,1,-1548
892,10.218611,0,0,0,1029,-3,-1551
893,10.230306,0,1,1,1033,-13,-1544
894,10.24199,0,0,1,1033,0,-1545
895,10.253664,0,0,0,1032,0,-1544
896,10.265313,1,1,1,1029,0,-1547
897,10.276972,0,0,2,1032,-1,-1540
898,10.288655,1,0,0,1031,1,-1552
899,10.300309,0,0,1,1034,0,-1551
900,10.311972,0,1,2,1032,0,-1546
901,10.323668,1,0,1,1031,0,-1544
902,10.335324,0,0,1,1033,0,-1548
903,10.346995,0,0,1,1032,2,-1544
904,10.358719,0,0,0,1035,2,-1551
905,10.370382,0,1,2,1033,0,-1549
906,10.382042,1,0,2,1029,0,-1540
907,10.393667,0,0,2,1031,0,-1552
908,10.405318,0,1,1,1033,1,-1543
909,10.416989,0,0,1,1034,-2,-1547
910,10.428707,0,1,0,1031,0,-1542
911,10.440381,0,-1,1,1032,2,-1546
912,10.451939,0,0,1,1033,1,-1545
913,10.463491,0,0,1,1032,1,-1539
914,10.475038,0,0,0,1033,5,-1541
915,10.486595,0,0,0,1031,-2,-1548
916,10.498113,0,1,1,1033,-2,-1546
917,10.509693,0,0,1,1034,0,-1536
918,10.521241,0,0,1,1031,-1,-1543
919,10.532817,0,0,1,1031,0,-1540
920,10.544432,-1,1,1,1033,2,-1542
921,10.556117,0,1,1,1039,0,-1545
922,10.567847,0,0,1,1030,1,-1549
923,10.579555,0,0,1,1034,0,-1545
924,10.591224,0,0,1,1031,0,-1542
925,10.60291,0,0,2,1034,4,-1543
926,10.614576,0,0,1,1031,3,-1547
927,10.626253,0,1,2,1033,0,-1545
928,10.637913,0,0,1,1032,4,-1545
929,10.649509,0,-1,1,1031,1,-1546
930,10.661092,1,0,2,1031,0,-1544
931,10.672646,0,0,1,1033,2,-1549
932,10.684217,0,0,1,1032,0,-1538
933,10.695784,1,0,1,1032,0,-1544
934,10.707333,0,0,1,1030,1,-1543
935,10.718884,0,0,1,1031,-2,-1540
936,10.730476,0,0,1,1033,3,-1543
937,10.742136,0,0,1,1036,0,-1539
938,10.753793,0,0,1,1032,1,-1541
939,10.76547,0,0,1,1033,0,-1544
940,10.77714,0,0,1,1035,3,-1540
941,10.788802,0,0,1,1034,-1,-1540
942,10.800468,0,0,1,1029,6,-1545
943,10.812138,0,-1,2,1029,0,-1547
944,10.823788,0,1,1,1035,0,-1547
945,10.83544,0,0,1,1033,2,-1546
946,10.847115,0,0,1,1033,2,-1545
947,10.858788,1,1,0,1028,1,-1545
948,10.870361,0,0,1,1032,-2,-1546
949,10.881916,0,0,1,1031,-1,-1550
950,10.893467,0,0,1,1033,1,-1542
951,10.905028,0,0,1,1029,3,-1543
952,10.916598,0,0,0,1031,0,-1542
953,10.928151,0,0,0,1034,0,-1546
954,10.939714,0,0,1,1031,0,-1542
955,10.951311,1,0,1,1034,2,-1544
956,10.962934,1,0,1,1034,-1,-1544
957,10.974635,1,0,1,1033,0,-1549
958,10.986304,0,0,1,1031,3,-1544
959,10.997982,0,1,1,1031,-2,-1542
960,11.009661,1,0,1,1031,2,-1546
961,11.021296,1,0,1,1032,0,-1545
962,11.033016,0,0,1,1033,4,-1548
963,11.044804,0,0,0,1032,-2,-1546
964,11.056515,0,0,1,1031,1,-1542
965,11.068086,0,-2,1,1031,3,-1542
966,11.079649,1,-1,1,1033,1,-1549
967,11.091215,0,1,1,1030,2,-1548
968,11.102766,0,0,0,1032,1,-1547
969,11.114347,1,0,1,1034,-3,-1542
970,11.125876,0,0,1,1033,4,-1549
971,11.13739,0,0,1,1033,-1,-1548
972,11.148937,0,1,1,1033,0,-1550
973,11.160504,1,1,1,1031,1,-1553
974,11.172131,1,0,1,1031,1,-1542
975,11.18378,0,0,0,1032,0,-1548
976,11.195429,0,0,1,1037,-2,-1546
977,11.207077,0,0,1,1033,2,-1550
978,11.218748,0,0,0,1032,1,-1544
979,11.230421,0,0,0,1032,1,-1545
980,11.24208,0,1,0,1030,1,-1547
981,11.253778,0,0,1,1030,1,-1545
982,11.265414,0,0,1,1035,4,-1545
983,11.27709,0,0,0,1034,1,-1553
984,11.288672,0,0,1,1033,1,-1542
985,11.300223,0,0,0,1033,2,-1545
986,11.311766,0,-1,1,1034,4,-1549
987,11.323315,-1,1,0,1032,1,-1543
988,11.334863,0,0,1,1036,-1,-1545
989,11.346435,0,0,1,1032,0,-1541
990,11.358,1,0,1,1033,1,-1545
991,11.369588,0,1,1,1034,0,-1544
992,11.381271,0,0,1,1032,1,-1546
993,11.392976,0,1,1,1035,2,-1547
994,11.404641,0,0,1,1030,1,-1542
995,11.416295,0,0,1,1035,3,-1542
996,11.427985,1,-1,0,1032,-3,-1545
997,11.439636,0,0,1,1032,0,-1543
998,11.451291,0,0,1,1034,-1,-1543
999,11.462932,1,0,1,1033,0,-1548
1000,11.474601,0,1,0,1034,0,-1549
1001,11.486274,0,0,1,1028,-1,-1542
1002,11.497857,0,0,1,1031,2,-1543
1003,11.509391,0,0,1,1033,1,-1541
1004,11.520938,1,0,0,1033,-1,-1541
1005,11.532486,0,0,1,1028,0,-1543
1006,11.544034,0,0,2,1031,4,-1548
1007,11.555582,0,-1,2,1031,2,-1548
1008,11.567145,1,-1,0,1035,1,-1546
1009,11.578729,0,-1,0,1030,1,-1549
1010,11.590418,0,1,1,1031,2,-1552
1011,11.602105,0,-1,0,1031,0,-1544
1012,11.613778,0,0,1,1035,2,-1544
1013,11.625402,0,0,1,1032,1,-1546
1014,11.63705,0,0,2,1031,-1,-1543
1015,11.648688,0,0,1,1034,0,-1543
1016,11.660368,0,-1,1,1039,0,-1544
1017,11.672094,0,1,0,1033,-1,-1545
1018,11.683777,0,1,1,1034,0,-1537
1019,11.695447,0,0,1,1035,-2,-1545
1020,11.707004,0,0,2,1028,3,-1541
1021,11.71859,0,0,1,1032,2,-1550
1022,11.73016,0,0,1,1030,-1,-1543
1023,11.741708,0,-1,2,1034,-1,-1538
1024,11.753251,0,0,0,1029,0,-1546
1025,11.764828,0,0,0,1034,-1,-1545
1026,11.776371,0,0,1,1035,0,-1543
1027,11.787951,1,0,1,1037,0,-1540
1028,11.79967,0,0,1,1033,1,-1546
1029,11.811355,0,0,1,1034,0,-1538
1030,11.823014,0,0,1,1030,0,-1542
1031,11.834693,0,1,2,1033,1,-1547
1032,11.846378,0,1,1,1033,0,-1550
1033,11.858046,0,1,0,1036,0,-1543
1034,11.869722,0,0,1,1031,0,-1544
1035,11.881405,1,0,1,1030,1,-1542
1036,11.893063,0,1,1,1032,0,-1548
1037,11.904754,1,0,1,1030,1,-1542
1038,11.916326,-1,0,1,1034,0,-1545
1039,11.927872,1,0,1,1030,3,-1545
1040,11.939422,0,1,0,1034,0,-1547
1041,11.950965,0,0,2,1032,0,-1540
1042,11.962522,0,-1,1,1032,-1,-1546
1043,11.974098,0,0,2,1028,0,-1549
1044,11.985636,0,1,0,1030,-1,-1545
1045,11.997201,0,0,1,1030,0,-1542
1046,12.008819,0,1,1,1037,0,-1552
1047,12.020488,0,1,1,1034,2,-1545
1048,12.03214,0,0,1,1030,-1,-1547
1049,12.043799,0,1,1,1033,2,-1544
1050,12.055444,0,0,1,1034,-1,-1550
1051,12.067099,1,0,1,1034,1,-1552
1052,12.078766,0,0,0,1030,0,-1540
1053,12.090417,0,0,1,1033,0,-1544
1054,12.102103,0,0,2,1030,4,-1543
1055,12.113758,0,0,1,1032,-2,-1549
1056,12.125315,-1,0,1,1030,0,-1544
1057,12.13692,0,0,1,1030,0,-1549
1058,12.148473,-1,0,0,1030,4,-1543
1059,12.160071,0,0,1,1032,2,-1547
1060,12.171632,0,0,2,1030,2,-1541
1061,12.183188,0,1,1,1031,0,-1541
1062,12.194728,0,0,1,1030,-3,-1546
1063,12.206293,0,0,1,1030,0,-1542
1064,12.217922,0,1,2,1031,3,-1550
1065,12.229612,0,0,1,1033,1,-1537
1066,12.241259,0,0,2,1033,1,-1549
1067,12.252906,0,0,2,1035,2,-1545
1068,12.26458,0,0,1,1034,0,-1546
1069,12.276232,1,1,1,1035,1,-1543
1070,12.287879,0,0,1,1032,1,-1546
1071,12.299526,1,0,1,1029,0,-1547
1072,12.311194,1,1,1,1031,-1,-1544
1073,12.322862,1,0,1,1035,1,-1543
1074,12.334438,1,-1,0,1037,6,-1547
1075,12.346009,0,0,1,1031,0,-1545
1076,12.357562,0,0,1,1034,1,-1545
1077,12.369116,1,1,2,1031,0,-1544
1078,12.380685,0,0,1,1029,0,-1547
1079,12.392239,-1,0,1,1033,-1,-1545
1080,12.403812,1,0,0,1032,-3,-1547
1081,12.415365,0,0,1,1032,-1,-1544
1082,12.426996,0,-1,0,1031,0,-1540
1083,12.43868,0,0,1,1033,0,-1544
1084,12.450352,1,0,1,1034,-2,-1546
1085,12.462037,0,1,1,1031,2,-1547
1086,12.473662,0,0,0,1032,0,-1542
1087,12.485329,0,0,1,1034,-3,-1547
1088,12.49699,1,0,0,1032,1,-1549
1089,12.508662,0,1,1,1033,2,-1546
1090,12.520341,1,1,0,1034,0,-1539
1091,12.531995,1,0,1,1032,-2,-1539
1092,12.543585,0,-1,1,1031,3,-1544
1093,12.555179,-1,1,1,1030,3,-1540
1094,12.56675,0,0,1,1034,-2,-1546
1095,12.578307,0,0,2,1033,0,-1535
1096,12.589871,1,1,1,1027,0,-1546
1097,12.601391,0,0,1,1037,-1,-1543
1098,12.612937,-1,0,1,1030,0,-1546
1099,12.624512,1,-1,1,1034,2,-1540
1100,12.636139,0,0,0,1031,0,-1548
1101,12.647833,0,0,1,1032,1,-1548
1102,12.659486,0,0,1,1033,-1,-1543
1103,12.67114,0,-1,1,1033,-1,-1545
1104,12.682837,0,1,1,1034,0,-1544
1105,12.694634,1,1,1,1031,0,-1546
1106,12.706314,0,1,1,1034,-4,-1543
1107,12.717978,0,0,1,1032,1,-1538
1108,12.729666,1,0,1,1033,1,-1545
1109,12.741349,1,1,1,1028,2,-1541
1110,12.752931,0,0,1,1031,3,-1548
1111,12.764483,0,0,1,1036,0,-1546
1112,12.776033,0,0,1,1034,2,-1542
1113,12.787578,0,0,1,1030,0,-1542
1114,12.799158,0,1,1,1029,0,-1539
1115,12.810728,1,0,0,1031,3,-1553
1116,12.822309,1,0,2,1035,3,-1546
1117,12.833878,1,0,1,1032,0,-1542
1118,12.845554,0,1,1,1031,0,-1550
1119,12.857207,0,1,1,1028,3,-1548
1120,12.868866,0,0,1,1029,2,-1545
1121,12.880563,0,0,1,1030,5,-1543
1122,12.892217,0,0,1,1033,-1,-1544
1123,12.903865,0,0,1,1036,0,-1543
1124,12.915538,0,0,1,1031,-2,-1544
1125,12.927181,1,0,1,1032,1,-1542
1126,12.938865,1,0,1,1033,4,-1543
1127,12.950576,1,0,1,1032,0,-1544
1128,12.96224,0,0,1,1031,2,-1544
1129,12.973919,0,0,1,1031,0,-1536
1130,12.985592,-1,0,1,1033,2,-1545
1131,12.997249,0,0,0,1033,2,-1543
1132,13.008896,0,0,1,1032,-1,-1541
1133,13.020546,0,0,1,1033,0,-1539
1134,13.032222,0,1,1,1032,0,-1542
1135,13.043881,1,0,0,1033,-2,-1541
1136,13.055564,0,0,1,1030,-1,-1547
1137,13.067133,0,-1,2,1036,-1,-1551
1138,13.078685,0,-1,1,1034,0,-1543
1139,13.090254,0,0,1,1032,3,-1542
1140,13.101809,1,1,1,1032,0,-1541
1141,13.113368,0,1,1,1032,3,-1542
1142,13.124922,-1,0,1,1033,1,-1545
1143,13.13648,0,0,1,1033,-3,-1546
1144,13.148079,0,1,0,1029,0,-1539
1145,13.159741,0,0,1,1038,1,-1548
1146,13.171402,0,0,1,1035,1,-1547
1147,13.18305,0,-1,1,1032,0,-1542
1148,13.194724,0,0,1,1033,0,-1541
1149,13.206429,0,0,1,1030,0,-1550
1150,13.218098,1,0,1,1031,4,-1547
1151,13.229781,0,0,1,1030,4,-1547
1152,13.241462,1,-1,1,1030,0,-1547
1153,13.253159,0,1,2,1031,1,-1539
1154,13.264815,0,0,1,1034,0,-1543
1155,13.276409,0,1,1,1034,-2,-1545
1156,13.287982,0,0,1,1034,0,-1538
1157,13.299546,0,1,0,1028,1,-1548
1158,13.311086,1,0,1,1032,0,-1537
1159,13.322593,0,0,1,1036,-3,-1552
1160,13.334111,1,0,2,1029,1,-1545
1161,13.345631,0,0,1,1032,0,-1543
1162,13.357189,0,0,1,1029,2,-1545
1163,13.368798,0,1,1,1035,-2,-1548
1164,13.38046,0,1,1,1030,0,-1539
1165,13.392105,0,1,1,1033,-1,-1548
1166,13.403756,0,1,1,1030,0,-1540
1167,13.415394,1,0,0,1034,4,-1546
1168,13.427036,0,-1,1,1030,4,-1541
1169,13.438712,0,0,1,1030,1,-1550
1170,13.45036,0,0,1,1033,-1,-1547
1171,13.462052,-1,0,0,1034,-3,-1544
1172,13.473721,0,0,1,1033,3,-1543
1173,13.485299,1,1,1,1031,1,-1543
1174,13.496858,1,0,0,1036,1,-1543
1175,13.508415,1,0,1,1031,2,-1543
1176,13.519972,1,0,1,1038,-4,-1545
1177,13.531545,0,1,1,1029,2,-1542
1178,13.543101,0,0,1,1032,1,-1547
1179,13.554672,0,0,1,1034,-4,-1544
1180,13.566245,1,0,1,1035,1,-1542
1181,13.57795,0,0,1,1032,0,-1541
1182,13.589633,0,0,1,1038,-1,-1548
1183,13.601285,1,1,1,1035,-1,-1545
1184,13.612959,1,0,1,1030,-1,-1546
1185,13.624629,0,0,1,1033,0,-1545
1186,13.636276,0,-1,1,1031,2,-1546
1187,13.64795,0,0,1,1037,2,-1543
1188,13.659614,0,1,1,1034,0,-1547
1189,13.671302,0,-1,1,1035,-2,-1540
1190,13.682979,0,0,1,1029,5,-1546
1191,13.694637,0,0,1,1034,2,-1540
1192,13.706393,0,1,1,1033,-1,-1552
1193,13.718171,0,1,0,1029,3,-1544
1194,13.729832,1,0,1,1034,0,-1543
1195,13.741514,0,0,1,1027,0,-1547
1196,13.753198,0,0,1,1033,0,-1549
1197,13.764862,0,1,1,1031,0,-1538
1198,13.776609,0,0,1,1031,0,-1544
1199,13.78829,1,0,1,1036,-2,-1539
1200,13.799879,1,1,1,1027,-2,-1547
1201,13.811427,1,0,1,1031,0,-1542
1202,13.822976,1,0,1,1032,1,-1548
1203,13.834535,0,1,1,1036,1,-1544
1204,13.846115,0,1,1,1030,0,-1545
1205,13.857635,0,0,1,1036,1,-1538
1206,13.869186,1,0,1,1031,-1,-1545
1207,13.880804,0,0,1,1036,0,-1545
1208,13.892462,0,0,0,1033,-3,-1540
1209,13.90412,0,0,1,1031,0,-1545
1210,13.915763,0,0,1,1031,0,-1538
1211,13.927416,0,0,1,1030,1,-1551
1212,13.939109,0,0,0,1029,-1,-1548
1213,13.950755,1,0,1,1034,0,-1546
1214,13.96245,0,0,1,1030,2,-1541
1215,13.974108,0,0,0,1032,0,-1544
1216,13.985798,0,0,1,1035,-2,-1542
1217,13.99751,1,1,1,1032,1,-1542
1218,14.009076,0,0,1,1036,0,-1546
1219,14.020677,0,-1,1,1034,0,-1552
1220,14.032262,1,0,1,1033,-3,-1548
1221,14.043808,0,0,2,1036,-1,-1542
1222,14.055353,0,0,2,1032,0,-1545
1223,14.066903,0,0,2,1032,0,-1555
1224,14.078472,0,0,2,1029,1,-1539
1225,14.090043,0,0,1,1034,-1,-1546
1226,14.101747,0,0,1,1031,3,-1543
1227,14.113408,-1,0,0,1030,0,-1545
1228,14.125077,0,0,1,1035,0,-1540
1229,14.136731,0,1,1,1030,0,-1548
1230,14.148381,1,1,1,1031,0,-1553
1231,14.160053,1,-1,1,1032,-1,-1544
1232,14.171706,0,0,0,1031,0,-1543
1233,14.183354,0,-1,1,1033,3,-1545
1234,14.195017,0,0,1,1032,2,-1546
1235,14.206708,1,0,1,1030,0,-1540
1236,14.218366,0,0,1,1032,2,-1548
1237,14.230062,0,0,1,1034,0,-1542
1238,14.241724,1,1,0,1031,4,-1546
1239,14.253406,0,0,2,1029,0,-1540
1240,14.265079,1,0,1,1031,2,-1542
1241,14.276735,-1,1,1,1033,-2,-1548
1242,14.288383,0,0,1,1034,0,-1546
1243,14.30007,0,0,1,1033,1,-1552
1244,14.31173,1,1,1,1031,3,-1542
1245,14.323381,1,0,1,1033,0,-1543
1246,14.335039,0,1,1,1034,0,-1542
1247,14.346707,0,0,1,1030,-1,-1548
1248,14.358385,0,0,0,1032,1,-1548
1249,14.370058,1,1,1,1032,-2,-1542
1250,14.381723,0,0,1,1035,0,-1545
1251,14.39346,0,-1,1,1034,2,-1542
1252,14.405125,0,1,1,1031,1,-1543
1253,14.416816,1,0,0,1030,-2,-1546
1254,14.428405,1,0,1,1030,0,-1538
1255,14.43995,0,0,1,1034,2,-1539
1256,14.451501,0,0,1,1035,-1,-1546
1257,14.463054,0,0,0,1029,3,-1546
1258,14.474622,0,0,1,1029,3,-1542
1259,14.486183,0,0,1,1034,0,-1543
1260,14.49779,0,0,1,1034,0,-1542
1261,14.50939,0,0,1,1030,2,-1548
1262,14.521013,0,0,1,1031,0,-1545
1263,14.532701,0,1,1,1032,-1,-1546
1264,14.544363,0,1,1,1032,0,-1545
1265,14.556013,0,1,2,1035,3,-1543
1266,14.567679,0,0,1,1031,0,-1540
1267,14.57935,0,0,1,1032,0,-1540
1268,14.590993,1,0,2,1031,-1,-1542
1269,14.602701,1,1,1,1030,0,-1546
1270,14.614377,0,0,1,1033,4,-1540
1271,14.626034,1,0,1,1032,2,-1543
1272,14.637649,1,0,0,1031,1,-1545
1273,14.649207,-1,1,1,1034,3,-1543
1274,14.660774,0,0,0,1029,-4,-1547
1275,14.672322,0,1,1,1029,1,-1544
1276,14.683871,0,0,2,1033,0,-1550
1277,14.695422,0,0,1,1034,1,-1545
1278,14.70697,1,0,0,1036,1,-1543
1279,14.718533,0,0,0,1029,0,-1544
1280,14.73024,0,0,1,1032,1,-1550
1281,14.742006,0,0,1,1037,0,-1543
1282,14.753676,0,0,1,1031,0,-1545
1283,14.765394,0,1,1,1033,0,-1548
1284,14.777072,0,0,1,1032,0,-1549
1285,14.788732,1,0,1,1028,-1,-1545
1286,14.800382,0,0,1,1030,0,-1546
1287,14.812037,0,1,2,1032,0,-1547
1288,14.823725,0,0,1,1030,2,-1544
1289,14.835377,0,-1,1,1033,-2,-1543
1290,14.846948,1,0,0,1031,4,-1545
1291,14.858527,0,0,1,1033,0,-1548
1292,14.870116,0,0,1,1031,0,-1543
1293,14.88164,0,0,1,1032,-1,-1550
1294,14.893183,1,1,2,1032,1,-1540
1295,14.904731,0,1,2,1034,-1,-1540
1296,14.91628,0,1,1,1031,3,-1544
1297,14.927836,0,0,1,1034,0,-1547
1298,14.939451,0,0,1,1030,2,-1553
1299,14.95111,1,0,1,1034,-2,-1542
1300,14.962793,0,1,1,1031,-3,-1549
1301,14.974446,0,0,1,1034,3,-1545
1302,14.986111,1,0,1,1030,0,-1540
1303,14.997803,0,0,2,1030,-3,-1546
1304,15.009458,1,0,1,1032,1,-1545
1305,15.021112,0,0,1,1032,2,-1544
1306,15.032805,1,0,2,1032,1,-1548
1307,15.044485,0,0,1,1028,-2,-1546
1308,15.056044,1,0,1,1033,-3,-1540
1309,15.067624,0,0,1,1036,0,-1546
1310,15.079164,1,0,1,1032,-2,-1542
1311,15.090728,0,0,1,1032,0,-1547
1312,15.10231,0,0,1,1031,1,-1547
1313,15.1139,0,0,0,1036,3,-1543
1314,15.125509,0,0,1,1033,-2,-1546
1315,15.137089,0,0,1,1035,2,-1543
1316,15.148702,0,0,0,1032,1,-1546
1317,15.16037,0,0,1,1032,1,-1546
1318,15.172025,0,0,1,1030,3,-1546
1319,15.183694,1,0,1,1031,3,-1550
1320,15.19535,0,0,1,1034,1,-1550
1321,15.206995,0,0,1,1035,2,-1545
1322,15.218699,0,1,1,1033,2,-1548
1323,15.230368,0,1,1,1033,0,-1547
1324,15.242057,0,1,1,1031,0,-1546
1325,15.253722,0,0,1,1035,3,-1549
1326,15.26528,0,0,0,1031,0,-1550
1327,15.276843,0,0,1,1030,2,-1545
1328,15.288392,1,0,1,1031,2,-1548
1329,15.299973,0,0,2,1030,3,-1543
1330,15.311522,0,-1,1,1034,4,-1543
1331,15.323075,0,0,1,1032,0,-1553
1332,15.334634,0,0,1,1032,1,-1541
1333,15.346193,0,0,1,1029,0,-1548
1334,15.357835,0,0,1,1032,1,-1545
1335,15.369521,0,1,2,1033,-1,-1544
1336,15.381199,0,0,1,1033,-1,-1544
1337,15.392865,0,0,1,1034,1,-1545
1338,15.404523,0,0,0,1031,2,-1551
1339,15.416188,0,0,2,1037,1,-1545
1340,15.427842,0,0,2,1030,2,-1544
1341,15.439486,-1,0,0,1034,-3,-1549
1342,15.451154,0,0,-1,1033,0,-1542
1343,15.462814,0,1,1,1031,1,-1546
1344,15.474402,0,0,1,1029,0,-1546
1345,15.486013,0,-1,0,1029,0,-1543
1346,15.497569,0,1,1,1034,-1,-1545
1347,15.509135,0,0,1,1034,-4,-1537
1348,15.520682,1,1,1,1034,2,-1542
1349,15.532226,-1,0,1,1029,0,-1539
1350,15.543773,0,0,1,1031,6,-1545
1351,15.555323,0,0,1,1034,0,-1550
1352,15.566949,0,1,1,1036,2,-1540
1353,15.578605,1,0,1,1035,2,-1546
1354,15.590297,0,1,1,1033,1,-1544
1355,15.601962,0,0,1,1028,0,-1547
1356,15.613642,1,0,1,1039,2,-1542
1357,15.6253,1,0,1,1031,1,-1544
1358,15.636955,1,0,1,1033,-1,-1546
1359,15.648597,0,0,0,1033,1,-1545
1360,15.660258,0,1,1,1030,1,-1544
1361,15.671916,0,0,2,1033,1,-1552
1362,15.68347,0,1,0,1034,-6,-1552
1363,15.695027,0,0,1,1031,1,-1540
1364,15.706612,0,0,2,1030,-2,-1540
1365,15.718178,0,1,1,1026,-1,-1543
1366,15.729778,0,0,2,1032,4,-1548
1367,15.741383,0,1,1,1033,1,-1546
1368,15.752935,0,1,1,1033,1,-1543
1369,15.764501,0,0,1,1037,2,-1544
1370,15.776172,0,-1,1,1032,1,-1547
1371,15.78783,0,0,1,1032,0,-1549
1372,15.799497,0,0,1,1033,0,-1544
1373,15.811159,0,-1,1,1030,0,-1553
1374,15.82283,0,0,1,1032,0,-1545
1375,15.834511,0,0,1,1032,0,-1543
1376,15.846187,0,1,1,1034,-1,-1549
1377,15.857847,0,0,1,1032,0,-1543
1378,15.86955,0,0,1,1036,4,-1543
1379,15.881225,0,0,1,1035,-1,-1544
1380,15.892788,1,0,1,1035,2,-1544
1381,15.904367,0,1,1,1029,2,-1543
1382,15.915918,0,0,1,1031,-1,-1542
1383,15.92749,0,0,1,1035,1,-1539
1384,15.939032,0,0,2,1029,0,-1543
1385,15.950601,0,0,1,1028,3,-1547
1386,15.962127,0,0,1,1033,-1,-1542
1387,15.97369,0,0,0,1029,1,-1548
1388,15.985306,0,0,1,1032,1,-1549
1389,15.996961,0,0,1,1031,0,-1536
1390,16.008625,-1,0,1,1033,2,-1545
1391,16.020291,0,0,1,1034,0,-1543
1392,16.031943,0,0,1,1033,3,-1546
1393,16.043589,0,1,1,1029,-1,-1544
1394,16.055261,0,0,1,1033,-1,-1549
1395,16.066953,0,0,1,1035,-1,-1545
1396,16.078615,1,0,1,1031,0,-1544
1397,16.090294,1,0,0,1035,0,-1539
1398,16.101894,0,0,1,1032,0,-1542
1399,16.113447,0,0,2,1033,1,-1548
1400,16.125008,0,0,0,1031,3,-1546
1401,16.136559,0,0,0,1035,0,-1546
1402,16.148126,0,0,0,1028,0,-1538
1403,16.1597,0,0,1,1033,-3,-1540
1404,16.171254,1,0,1,1036,2,-1545
1405,16.182932,0,0,1,1030,0,-1548
1406,16.194551,0,0,1,1029,3,-1540
1407,16.206245,0,0,0,1029,1,-1545
1408,16.217928,1,0,1,1029,4,-1548
1409,16.22958,0,1,0,1031,0,-1544
1410,16.241231,1,1,1,1031,-1,-1547
1411,16.25292,1,0,0,1034,-3,-1542
1412,16.264567,1,0,1,1031,0,-1539
1413,16.276215,0,1,1,1034,2,-1544
1414,16.2879,0,1,1,1032,1,-1539
1415,16.299558,1,0,1,1033,2,-1548
1416,16.311207,0,1,1,1034,0,-1540
1417,16.322857,0,0,0,1031,0,-1548
1418,16.334507,0,1,1,1031,1,-1548
1419,16.34618,1,1,1,1031,2,-1549
1420,16.357829,0,1,1,1033,0,-1540
1421,16.36948,0,0,1,1033,4,-1541
1422,16.381151,0,0,1,1035,-1,-1542
1423,16.392834,0,0,1,1028,1,-1542
1424,16.404488,0,0,2,1029,0,-1544
1425,16.416161,0,0,1,1029,2,-1545
1426,16.427807,0,0,0,1033,0,-1542
1427,16.439457,0,-1,1,1034,-2,-1545
1428,16.451119,1,0,1,1032,0,-1549
1429,16.462806,0,1,1,1034,1,-1545
1430,16.474437,0,0,1,1029,-1,-1542
1431,16.486102,0,0,1,1030,-2,-1548
1432,16.497812,1,0,2,1033,-2,-1546
1433,16.50948,0,0,1,1031,3,-1545
1434,16.521041,1,0,1,1034,-2,-1547
1435,16.532612,0,0,1,1032,1,-1542
1436,16.544155,0,0,1,1031,1,-1547
1437,16.555722,0,1,1,1036,3,-1539
1438,16.567495,0,0,1,1029,0,-1551
1439,16.579155,0,0,1,1034,0,-1543
1440,16.59074,1,1,1,1035,4,-1545
1441,16.602318,1,0,1,1031,0,-1547
1442,16.614012,0,1,1,1032,3,-1545
1443,16.625694,0,0,1,1036,4,-1542
1444,16.637406,0,0,1,1032,-1,-1542
1445,16.649065,0,0,1,1031,3,-1542
1446,16.660716,0,0,1,1035,0,-1540
1447,16.672389,0,0,1,1030,3,-1550
1448,16.684045,1,0,1,1031,1,-1543
1449,16.695696,0,0,1,1031,3,-1548
1450,16.707382,1,0,1,1033,0,-1538
1451,16.719049,0,1,2,1030,3,-1543
1452,16.730606,0,1,1,1034,-2,-1545
1453,16.742166,0,0,1,1033,3,-1544
1454,16.753759,0,0,1,1031,2,-1544
1455,16.765327,0,0,2,1028,-3,-1549
1456,16.776867,0,0,1,1030,5,-1546
1457,16.788412,0,0,1,1031,-2,-1541
1458,16.800001,1,0,1,1031,0,-1542
1459,16.811567,0,0,0,1033,0,-1543
1460,16.823196,1,0,0,1030,4,-1543
1461,16.834856,1,0,1,1033,6,-1541
1462,16.846548,0,0,1,1029,-1,-1546
1463,16.858168,0,0,1,1029,1,-1547
1464,16.869828,-1,0,1,1033,3,-1545
1465,16.881522,1,0,1,1031,2,-1544
1466,16.893173,0,0,1,1033,-1,-1545
1467,16.904816,0,0,0,1036,-3,-1546
1468,16.916495,0,0,1,1029,2,-1548
1469,16.928145,0,0,1,1036,0,-1547
1470,16.939746,0,0,0,1031,0,-1543
1471,16.951334,0,0,0,1036,2,-1545
1472,16.962879,-1,1,1,1034,0,-1547
1473,16.974433,0,0,1,1033,3,-1541
1474,16.986017,0,0,1,1029,2,-1545
1475,16.997569,0,0,0,1030,-1,-1547
1476,17.009119,-1,0,2,1034,1,-1539
1477,17.020735,1,0,0,1032,1,-1542
1478,17.032373,0,0,1,1034,-3,-1550
1479,17.044038,0,1,1,1036,0,-1546
1480,17.055677,0,-1,2,1032,0,-1545
1481,17.06732,0,0,1,1032,0,-1542
1482,17.078995,0,0,1,1032,-1,-1541
1483,17.090681,0,0,1,1034,-2,-1541
1484,17.102354,0,0,1,1033,1,-1552
1485,17.114034,1,0,1,1034,1,-1549
1486,17.125691,0,0,1,1035,-2,-1548
1487,17.137385,0,0,1,1032,-1,-1543
1488,17.148977,1,0,1,1033,3,-1536
1489,17.160528,1,0,1,1032,2,-1544
1490,17.17209,0,0,1,1031,-1,-1542
1491,17.183639,1,0,2,1032,-3,-1548
1492,17.195189,1,0,1,1031,6,-1543
1493,17.20678,0,0,1,1034,3,-1538
1494,17.218365,0,0,1,1028,3,-1553
1495,17.22998,0,0,1,1030,3,-1546
1496,17.241671,0,0,0,1038,-2,-1545
1497,17.253331,1,1,1,1031,2,-1548
1498,17.264995,1,0,1,1034,0,-1543
1499,17.276655,1,0,1,1034,0,-1544
1500,17.288299,0,0,1,1032,-1,-1543
1501,17.299952,0,0,1,1032,3,-1548
1502,17.311591,0,0,1,1035,-3,-1549
1503,17.323304,-1,0,1,1032,0,-1549
1504,17.334981,0,0,1,1034,1,-1546
1505,17.346645,0,0,1,1031,3,-1539
1506,17.358251,0,1,1,1030,1,-1547
1507,17.369833,0,0,0,1035,1,-1549
1508,17.381392,0,0,1,1034,3,-1550
1509,17.392936,0,1,1,1031,0,-1539
1510,17.404487,0,0,1,1037,2,-1546
1511,17.416037,1,0,1,1033,1,-1539
1512,17.427598,0,0,1,1032,2,-1540
1513,17.439165,0,0,1,1032,2,-1545
1514,17.450851,1,0,0,1030,0,-1548
1515,17.462548,1,0,1,1032,3,-1545
1516,17.47417,0,0,1,1033,0,-1541
1517,17.485827,0,0,1,1036,3,-1540
1518,17.49752,0,0,1,1034,1,-1543
1519,17.50916,0,0,1,1033,-1,-1548
1520,17.520807,0,0,1,1031,0,-1549
1521,17.532482,1,0,1,1033,4,-1547
1522,17.544131,1,0,1,1033,-1,-1538
1523,17.555741,0,0,1,1032,4,-1549
1524,17.567324,0,0,1,1033,0,-1542
1525,17.578868,0,0,1,1032,0,-1541
1526,17.590421,0,-1,1,1033,-1,-1544
1527,17.601994,0,0,1,1027,2,-1545
1528,17.613567,0,0,1,1029,0,-1551
1529,17.625105,0,0,0,1033,3,-1548
1530,17.636641,0,0,0,1036,0,-1544
1531,17.648198,-1,0,0,1031,5,-1541
1532,17.659816,0,-1,1,1028,2,-1543
1533,17.671462,0,1,0,1033,2,-1546
1534,17.683123,1,0,1,1033,0,-1542
1535,17.694844,0,1,1,1032,3,-1546
1536,17.706512,0,0,1,1029,1,-1543
1537,17.718221,0,0,1,1032,1,-1543
1538,17.729926,0,-1,1,1035,0,-1549
1539,17.741605,1,0,0,1036,0,-1547
1540,17.753284,1,0,1,1031,1,-1542
1541,17.764934,1,0,1,1030,6,-1546
1542,17.776496,0,0,2,1030,2,-1542
1543,17.788078,1,0,1,1029,4,-1543
1544,17.799638,0,0,1,1029,0,-1545
1545,17.811211,1,0,1,1030,0,-1548
1546,17.82281,0,0,1,1034,1,-1538
1547,17.834359,1,-1,1,1034,0,-1547
1548,17.845929,0,-1,2,1032,-1,-1544
1549,17.857519,0,0,1,1035,1,-1545
1550,17.869146,1,0,1,1030,-1,-1549
1551,17.880797,0,0,2,1032,1,-1549
1552,17.892456,0,0,1,1033,1,-1544
1553,17.904119,0,0,1,1028,0,-1553
1554,17.915771,0,1,1,1028,1,-1545
1555,17.927429,0,0,1,1031,-1,-1546
1556,17.939074,0,-1,1,1036,2,-1546
1557,17.950731,0,1,1,1034,1,-1550
1558,17.962438,0,0,1,1032,2,-1547
1559,17.974152,0,0,0,1037,1,-1546
1560,17.985873,1,0,1,1032,-1,-1542
1561,17.997396,1,1,1,1032,0,-1544
1562,18.008957,1,0,1,1035,3,-1532
1563,18.020508,0,0,2,1034,0,-1547
1564,18.032078,0,1,1,1031,1,-1539
1565,18.04364,0,0,1,1031,3,-1542
1566,18.055206,0,0,1,1031,3,-1544
1567,18.066852,0,0,1,1031,-2,-1545
1568,18.078411,0,1,1,1032,2,-1546
1569,18.089994,0,0,2,1033,-2,-1552
1570,18.101586,0,0,1,1032,0,-1547
1571,18.113153,1,0,0,1026,-3,-1541
1572,18.124705,1,-1,1,1032,1,-1549
1573,18.136252,0,0,1,1032,-3,-1544
1574,18.147799,0,0,1,1030,-1,-1546
1575,18.159347,0,-1,1,1032,3,-1541
1576,18.171031,0,0,2,1034,0,-1552
1577,18.184931,0,0,1,1031,1,-1544
1578,18.196631,1,0,1,1034,1,-1544
1579,18.208283,1,0,2,1035,1,-1548
1580,18.219932,0,0,1,1033,-2,-1550
1581,18.231588,0,0,1,1030,-2,-1543
1582,18.243244,0,0,1,1034,0,-1545
1583,18.254936,1,0,0,1030,5,-1546
1584,18.266586,1,0,0,1030,3,-1543
1585,18.278272,0,0,1,1030,0,-1542
1586,18.289951,0,0,2,1034,0,-1545
1587,18.30152,0,0,0,1031,0,-1547
1588,18.313077,0,1,1,1034,-1,-1543
1589,18.324616,0,0,1,1034,1,-1545
1590,18.336159,1,0,2,1028,0,-1546
1591,18.34771,1,0,1,1033,0,-1547
1592,18.359253,0,1,1,1030,3,-1544
1593,18.370831,0,-1,1,1031,0,-1546
1594,18.382369,0,0,1,1036,-2,-1548
1595,18.39406,0,0,1,1032,0,-1541
1596,18.40572,1,0,1,1030,-1,-1544
1597,18.417391,0,0,1,1029,1,-1542
1598,18.429047,0,1,1,1030,1,-1541
1599,18.440732,0,0,1,1030,0,-1539
1600,18.452388,0,0,1,1032,3,-1537
1601,18.464041,0,0,1,1033,2,-1545
1602,18.4757,1,0,1,1032,-1,-1544
1603,18.487344,1,0,1,1034,0,-1544
1604,18.498895,1,0,0,1032,0,-1537
1605,18.510479,0,0,0,1029,3,-1551
1606,18.522056,0,1,0,1030,2,-1545
1607,18.533639,1,0,1,1034,1,-1539
1608,18.545206,0,0,0,1034,0,-1545
1609,18.556758,1,0,1,1034,3,-1543
1610,18.56833,0,0,1,1034,-2,-1549
1611,18.579883,1,0,1,1034,0,-1544
1612,18.591508,1,-1,1,1033,0,-1545
1613,18.603151,0,1,1,1037,3,-1549
1614,18.614822,1,0,1,1033,0,-1546
1615,18.626484,0,0,0,1035,-1,-1541
1616,18.638171,0,0,1,1033,4,-1541
1617,18.649852,0,1,2,1034,-1,-1548
1618,18.66153,-1,0,2,1034,2,-1548
1619,18.673198,0,0,0,1034,4,-1543
1620,18.684886,0,0,1,1033,-2,-1542
1621,18.696545,1,0,1,1034,0,-1546
1622,18.708108,1,0,2,1036,0,-1543
1623,18.719694,0,1,2,1036,-1,-1536
1624,18.731235,0,0,2,1034,0,-1542
1625,18.742791,0,0,1,1033,-1,-1542
1626,18.754354,0,0,1,1036,0,-1549
1627,18.765874,0,-1,2,1032,-4,-1535
1628,18.777392,0,1,1,1030,2,-1544
1629,18.788943,0,0,2,1035,2,-1549
1630,18.800585,0,0,1,1033,1,-1546
1631,18.81229,0,1,1,1032,3,-1543
1632,18.823942,0,0,1,1035,3,-1548
1633,18.83562,0,1,0,1033,-4,-1546
1634,18.847315,0,0,1,1035,2,-1545
1635,18.858976,0,-1,1,1033,0,-1542
1636,18.870643,0,0,1,1032,0,-1546
1637,18.882309,0,1,1,1032,1,-1543
1638,18.894006,0,1,1,1035,-2,-1541
1639,18.905659,0,0,1,1033,1,-1540
1640,18.917209,0,0,1,1031,2,-1542
1641,18.928751,0,0,1,1030,0,-1543
1642,18.940308,0,0,1,1032,1,-1542
1643,18.951854,0,0,1,1034,4,-1545
1644,18.963399,0,-1,1,1033,0,-1545
1645,18.974939,0,0,1,1030,3,-1548
1646,18.986498,0,0,1,1033,4,-1547
1647,18.998083,1,0,1,1032,1,-1542
1648,19.009743,0,0,1,1033,0,-1550
1649,19.021401,0,1,1,1035,-1,-1544
1650,19.033046,0,0,1,1031,0,-1544
1651,19.044694,0,-1,1,1032,1,-1537
1652,19.056364,0,0,1,1033,4,-1543
1653,19.068009,0,0,1,1034,3,-1545
1654,19.079655,0,1,2,1027,0,-1545
1655,19.091327,0,1,1,1028,-1,-1548
1656,19.103,0,0,1,1034,0,-1547
1657,19.114654,0,1,1,1036,1,-1550
1658,19.126241,0,0,1,1028,4,-1542
1659,19.137818,0,0,2,1030,0,-1548
1660,19.149392,0,0,1,1035,0,-1543
1661,19.160948,0,0,1,1032,3,-1549
1662,19.172498,0,0,1,1030,0,-1543
1663,19.184075,0,0,1,1029,0,-1543
1664,19.195621,0,0,1,1032,0,-1546
1665,19.207173,0,0,1,1032,0,-1545
1666,19.218883,1,0,1,1034,0,-1543
1667,19.230566,1,0,0,1035,0,-1549
1668,19.242236,-1,0,1,1033,0,-1547
1669,19.253919,0,0,1,1033,2,-1539
1670,19.265571,0,0,1,1032,0,-1550
1671,19.277227,0,0,2,1035,-3,-1546
1672,19.288882,1,0,1,1032,0,-1546
1673,19.300527,0,0,1,1031,-1,-1544
1674,19.312191,0,1,1,1032,0,-1547
1675,19.323864,0,0,1,1033,1,-1541
1676,19.335433,0,0,2,1032,-1,-1541
1677,19.346977,0,0,1,1031,2,-1549
1678,19.358542,1,0,1,1033,0,-1541
1679,19.370105,0,0,1,1030,0,-1540
1680,19.381632,0,1,2,1035,1,-1545
1681,19.393187,1,0,1,1033,4,-1543
1682,19.404732,1,1,1,1034,3,-1545
1683,19.416301,1,-1,1,1037,2,-1554
1684,19.427917,0,-1,1,1027,0,-1538
1685,19.439571,0,0,1,1030,2,-1545
1686,19.451226,0,0,1,1032,2,-1543
1687,19.462882,1,-1,2,1032,1,-1538
1688,19.47455,0,0,1,1032,3,-1546
1689,19.486172,1,0,2,1030,1,-1550
1690,19.49785,0,1,1,1030,0,-1546
1691,19.50952,0,0,1,1030,0,-1549
1692,19.521179,1,0,1,1031,-3,-1546
1693,19.532845,1,0,1,1035,0,-1544
1694,19.54443,0,-1,0,1032,0,-1544
1695,19.555998,0,0,1,1034,5,-1543
1696,19.567557,1,0,1,1032,1,-1543
1697,19.579105,0,0,1,1031,-1,-1545
1698,19.590684,1,0,1,1034,3,-1540
1699,19.602262,0,0,0,1029,0,-1542
1700,19.613817,0,0,1,1034,1,-1549
1701,19.625397,0,0,1,1029,3,-1545
1702,19.637012,0,0,1,1031,0,-1544
1703,19.648677,0,-1,1,1035,0,-1544
1704,19.660348,1,0,1,1032,-1,-1546
1705,19.671995,0,0,0,1038,0,-1545
1706,19.68364,0,0,1,1037,2,-1541
1707,19.695304,0,0,1,1032,0,-1548
1708,19.70697,0,0,0,1034,-2,-1543
1709,19.718627,0,0,1,1030,0,-1544
1710,19.730336,1,-1,2,1031,0,-1545
1711,19.741992,0,-1,1,1034,-1,-1548
1712,19.753662,0,0,1,1031,0,-1547
1713,19.765332,0,0,1,1036,2,-1545
1714,19.776985,1,-1,0,1031,0,-1545
1715,19.788638,0,0,1,1030,2,-1545
1716,19.8003,0,0,1,1029,0,-1543
1717,19.811971,0,0,1,1032,-3,-1543
1718,19.823623,0,0,0,1034,5,-1551
1719,19.835309,0,1,1,1031,5,-1543
1720,19.846974,0,0,2,1033,3,-1550
1721,19.858638,0,0,1,1031,1,-1545
1722,19.870338,1,-1,1,1029,-1,-1543
1723,19.88199,0,0,1,1029,0,-1553
1724,19.893658,1,1,0,1038,1,-1544
1725,19.905322,1,1,1,1033,0,-1542
1726,19.916977,0,0,1,1031,0,-1543
1727,19.928649,0,0,1,1031,2,-1542
1728,19.940333,0,0,1,1033,3,-1549
1729,19.951985,0,1,1,1032,1,-1548
1730,19.963568,0,0,0,1031,0,-1542
1731,19.975116,0,1,0,1032,-4,-1547
1732,19.986666,0,0,0,1037,2,-1547
1733,19.998232,1,0,0,1031,1,-1541
1734,20.009802,0,1,1,1031,0,-1544
1735,20.021373,0,1,1,1031,-1,-1548
1736,20.032926,1,0,1,1031,2,-1542
1737,20.044479,0,-1,1,1030,3,-1544
1738,20.056105,0,0,1,1029,-1,-1550
1739,20.067756,0,1,1,1031,0,-1550
1740,20.079405,0,0,1,1029,0,-1544
1741,20.091075,0,1,1,1030,2,-1538
1742,20.102736,0,0,1,1029,0,-1546
1743,20.114409,1,1,1,1033,4,-1547
1744,20.126088,0,0,0,1031,4,-1548
1745,20.137737,0,0,1,1030,-2,-1545
1746,20.149404,0,0,1,1032,2,-1543
1747,20.160957,0,0,0,1033,0,-1548
1748,20.172535,0,1,1,1027,0,-1545
1749,20.184083,1,1,1,1031,1,-1551
1750,20.195664,1,1,0,1035,3,-1537
1751,20.207204,0,0,1,1034,4,-1548
1752,20.218764,0,0,1,1030,2,-1545
1753,20.230335,0,0,1,1033,0,-1540
1754,20.241872,0,-1,1,1031,2,-1550
1755,20.2534,0,0,1,1032,1,-1548
1756,20.265027,0,0,1,1033,2,-1547
1757,20.276679,1,0,1,1033,2,-1554
1758,20.288373,0,0,1,1031,1,-1544
1759,20.300016,0,0,2,1032,0,-1545
1760,20.311662,0,0,1,1030,1,-1544
1761,20.323333,0,0,2,1033,2,-1549
1762,20.334994,0,0,1,1032,-1,-1546
1763,20.346675,0,1,0,1026,3,-1543
1764,20.358363,0,1,0,1033,0,-1547
1765,20.370031,0,0,1,1032,0,-1547
1766,20.381613,0,0,1,1030,0,-1549
1767,20.393165,0,0,1,1033,2,-1542
1768,20.404716,0,2,1,1030,1,-1547
1769,20.416289,0,1,2,1035,1,-1547
1770,20.427835,0,0,0,1034,2,-1550
1771,20.439378,0,0,1,1031,2,-1545
1772,20.45092,0,0,1,1032,-1,-1544
1773,20.462506,0,0,0,1036,0,-1538
1774,20.474171,0,0,1,1029,2,-1546
1775,20.48585,0,0,2,1031,2,-1544
1776,20.497519,0,0,1,1033,0,-1545
1777,20.509165,0,0,1,1032,-1,-1544
1778,20.520835,1,1,1,1033,-1,-1546
1779,20.532483,1,1,1,1037,4,-1547
1780,20.544135,1,0,0,1033,3,-1543
1781,20.555812,0,1,1,1030,1,-1545
1782,20.567478,0,0,0,1032,1,-1543
1783,20.579046,0,0,0,1034,2,-1545
1784,20.590604,0,1,1,1035,1,-1549
1785,20.602167,0,1,1,1036,6,-1547
1786,20.613712,0,0,2,1036,0,-1546
1787,20.625255,0,1,1,1034,0,-1549
1788,20.636805,0,0,1,1034,4,-1544
1789,20.648355,0,0,1,1034,0,-1545
1790,20.659928,0,-1,1,1034,1,-1549
1791,20.671514,0,0,2,1031,1,-1547
1792,20.683187,0,1,1,1033,1,-1543
1793,20.694861,0,0,2,1032,2,-1548
1794,20.706589,0,0,2,1032,3,-1546
1795,20.718246,0,0,2,1034,2,-1548
1796,20.729917,0,0,1,1033,0,-1548
1797,20.741595,0,0,1,1037,2,-1548
1798,20.753236,0,0,2,1035,2,-1544
1799,20.7649,1,0,1,1033,3,-1544
1800,20.776582,0,0,1,1031,4,-1540
1801,20.788231,0,1,1,1032,0,-1542
1802,20.799879,0,0,1,1033,-2,-1542
1803,20.811547,1,0,0,1033,3,-1548
1804,20.823205,0,0,0,1032,2,-1538
1805,20.834861,0,-1,2,1032,0,-1545
1806,20.846559,0,0,1,1029,0,-1546
1807,20.858221,0,1,1,1034,0,-1544
1808,20.869927,0,0,0,1032,-3,-1546
1809,20.881506,0,0,1,1033,-1,-1544
1810,20.893064,0,0,1,1032,-2,-1547
1811,20.904615,0,-1,1,1029,1,-1538
1812,20.916164,0,-1,1,1033,1,-1545
1813,20.927716,0,0,1,1030,3,-1541
1814,20.939309,0,0,1,1033,2,-1553
1815,20.950863,0,0,0,1032,5,-1544
1816,20.962426,0,0,0,1032,3,-1544
1817,20.974025,1,0,2,1031,4,-1538
1818,20.985609,1,-1,0,1035,-3,-1545
1819,20.997166,0,0,1,1036,-1,-1543
1820,21.008719,0,1,1,1033,4,-1544
1821,21.020286,0,0,1,1035,0,-1538
1822,21.031852,0,-1,1,1030,0,-1543
1823,21.043401,0,0,1,1037,1,-1545
1824,21.05495,0,0,1,1035,0,-1540
1825,21.066519,0,0,1,1031,5,-1541
1826,21.078209,1,0,1,1031,-2,-1551
1827,21.089869,0,0,0,1030,-1,-1544
1828,21.101579,0,0,1,1029,0,-1542
1829,21.11324,-1,-1,1,1033,3,-1543
1830,21.124889,0,0,1,1031,4,-1544
1831,21.136572,0,0,0,1031,0,-1546
1832,21.148226,0,0,1,1030,0,-1546
1833,21.159867,0,0,1,1032,-2,-1545
1834,21.171531,0,0,1,1031,1,-1553
1835,21.183302,0,0,1,1034,1,-1543
1836,21.194992,1,0,1,1031,4,-1542
1837,21.206576,0,1,2,1031,0,-1541
1838,21.218117,0,1,0,1033,-2,-1547
1839,21.229634,0,0,1,1031,0,-1545
1840,21.241185,0,1,1,1032,0,-1544
1841,21.252762,0,0,2,1031,0,-1541
1842,21.264314,0,1,2,1029,5,-1541
1843,21.275898,0,0,1,1034,0,-1545
1844,21.287453,0,0,2,1030,1,-1546
1845,21.299078,0,1,1,1034,3,-1539
1846,21.310737,0,0,1,1035,-3,-1549
1847,21.322421,0,1,1,1033,-2,-1549
1848,21.334095,0,1,1,1033,0,-1544
1849,21.345743,-1,0,1,1032,-1,-1542
1850,21.357403,-1,0,1,1029,2,-1551
1851,21.369071,0,0,1,1032,1,-1542
1852,21.380718,0,0,1,1029,-4,-1547
1853,21.392378,0,0,2,1033,-1,-1547
1854,21.404045,0,0,0,1034,-2,-1546
1855,21.415597,0,-1,1,1034,-3,-1547
1856,21.427151,0,0,1,1033,1,-1544
1857,21.438758,0,0,1,1035,2,-1542
1858,21.450314,0,0,1,1034,-1,-1543
1859,21.461877,1,0,1,1034,1,-1539
1860,21.473442,1,0,1,1034,0,-1542
1861,21.484992,0,0,1,1035,-2,-1546
1862,21.496557,0,1,1,1032,2,-1547
1863,21.508201,0,0,2,1034,2,-1546
1864,21.519858,0,0,1,1031,0,-1547
1865,21.531523,1,0,1,1032,0,-1543
1866,21.543174,0,0,0,1034,2,-1536
1867,21.554843,0,0,1,1029,-2,-1543
1868,21.566504,0,0,1,1032,1,-1550
1869,21.578171,0,0,1,1035,3,-1545
1870,21.589831,0,0,0,1031,1,-1543
1871,21.601476,1,0,1,1032,-1,-1543
1872,21.613023,0,0,0,1028,0,-1541
1873,21.624586,0,0,0,1035,1,-1552
1874,21.636154,0,0,1,1034,-1,-1542
1875,21.647705,0,1,1,1028,-1,-1548
1876,21.659266,1,0,1,1029,2,-1548
1877,21.67084,0,0,1,1034,1,-1541
1878,21.68236,1,0,1,1031,0,-1549
1879,21.693916,0,0,1,1033,0,-1548
1880,21.705515,0,0,1,1035,3,-1541
1881,21.717131,0,0,1,1037,1,-1543
1882,21.728803,0,0,1,1032,1,-1544
1883,21.740463,0,0,1,1036,1,-1542
1884,21.752125,1,0,1,1031,4,-1551
1885,21.763803,1,1,0,1030,0,-1542
1886,21.775478,0,0,1,1033,2,-1541
1887,21.787153,1,0,1,1038,1,-1553
1888,21.798831,1,0,1,1036,2,-1543
1889,21.810521,0,0,1,1031,1,-1541
1890,21.822186,0,0,1,1032,1,-1544
1891,21.833769,0,0,0,1029,0,-1547
1892,21.845321,0,0,1,1031,0,-1546
1893,21.856889,1,0,1,1033,-2,-1541
1894,21.868433,0,1,1,1032,-1,-1548
1895,21.879976,0,0,1,1032,1,-1548
1896,21.891552,0,0,1,1029,1,-1549
1897,21.903133,0,0,1,1032,1,-1549
1898,21.914758,0,1,1,1030,0,-1542
1899,21.92644,1,0,2,1033,0,-1548
1900,21.938111,0,0,1,1032,0,-1548
1901,21.949802,0,1,1,1031,0,-1548
1902,21.961466,0,0,2,1034,6,-1544
1903,21.973105,1,0,1,1035,0,-1544
1904,21.98476,0,0,2,1034,-2,-1546
1905,21.996451,0,0,1,1031,1,-1539
1906,22.008091,0,0,1,1032,0,-1551
1907,22.019761,0,0,1,1034,0,-1548
1908,22.031445,0,0,1,1032,1,-1545
1909,22.043006,0,0,1,1031,0,-1542
1910,22.054584,1,1,1,1034,7,-1543
1911,22.066117,1,0,1,1033,2,-1544
1912,22.077638,1,0,1,1032,1,-1551
1913,22.089195,-1,1,1,1030,4,-1545
1914,22.100761,0,0,1,1033,-4,-1545
1915,22.112307,1,-1,1,1031,-1,-1545
1916,22.12389,0,0,1,1034,2,-1550
1917,22.135506,0,0,1,1033,3,-1544
1918,22.147193,1,0,1,1027,3,-1542
1919,22.158853,1,-1,1,1032,3,-1538
1920,22.170527,0,1,1,1030,-2,-1551
1921,22.182192,1,0,0,1030,0,-1547
1922,22.193843,1,1,1,1032,1,-1550
1923,22.205528,1,1,1,1035,2,-1537
1924,22.217184,0,0,1,1028,0,-1543
1925,22.228854,0,0,1,1030,0,-1541
1926,22.240512,1,0,0,1034,3,-1539
1927,22.252059,0,0,0,1034,2,-1546
1928,22.26361,1,0,1,1033,0,-1547
1929,22.27516,0,0,1,1033,2,-1539
1930,22.286743,0,0,1,1033,0,-1544
1931,22.298302,0,0,2,1033,1,-1546
1932,22.3099,0,0,1,1034,2,-1547
1933,22.321462,0,0,0,1035,2,-1542
1934,22.333015,0,0,1,1033,0,-1539
1935,22.344701,0,0,1,1033,0,-1535
1936,22.356351,0,0,1,1030,0,-1549
1937,22.368038,0,0,1,1032,-1,-1542
1938,22.379699,0,0,1,1032,0,-1546
1939,22.391348,0,0,1,1032,1,-1550
1940,22.403001,0,0,1,1031,0,-1540
1941,22.414695,0,0,1,1032,-6,-1546
1942,22.426344,0,1,1,1033,2,-1547
1943,22.438017,0,0,1,1031,-1,-1547
1944,22.44967,0,0,1,1032,-1,-1546
1945,22.461231,1,0,1,1035,-4,-1543
1946,22.472784,1,0,1,1033,2,-1548
1947,22.484375,-1,1,1,1029,0,-1550
1948,22.495918,1,0,1,1035,5,-1550
1949,22.507478,1,0,1,1030,3,-1545
1950,22.519026,1,1,1,1032,2,-1544
1951,22.530591,0,0,1,1034,0,-1538
1952,22.542129,0,0,1,1030,0,-1539
1953,22.553853,0,0,0,1027,0,-1546
1954,22.565568,0,1,0,1032,2,-1545
1955,22.577299,0,0,1,1038,1,-1548
1956,22.588963,0,0,0,1032,5,-1546
1957,22.600606,0,-1,1,1034,0,-1544
1958,22.612251,-1,0,2,1035,1,-1547
1959,22.623913,-1,0,1,1036,0,-1547
1960,22.635567,0,0,1,1032,-1,-1545
1961,22.647226,0,0,0,1034,0,-1546
1962,22.65895,0,0,0,1034,1,-1548
1963,22.670516,0,0,1,1033,1,-1547
1964,22.682068,1,0,1,1031,2,-1546
1965,22.693641,0,0,1,1035,3,-1551
1966,22.70519,-1,1,1,1028,-1,-1546
1967,22.716743,0,0,1,1030,1,-1543
1968,22.728292,1,0,1,1037,4,-1542
1969,22.739838,0,0,1,1031,0,-1538
1970,22.751389,0,-1,1,1033,2,-1547
1971,22.763044,0,0,1,1031,1,-1550
1972,22.774699,0,0,1,1031,2,-1548
1973,22.786382,0,-1,1,1034,-1,-1539
1974,22.798056,0,0,1,1031,0,-1542
1975,22.809714,0,0,1,1033,2,-1550
1976,22.821404,0,0,1,1033,5,-1540
1977,22.833067,1,0,1,1033,1,-1546
1978,22.844723,0,1,2,1034,0,-1547
1979,22.856414,0,0,1,1032,3,-1543
1980,22.868075,0,0,1,1029,1,-1544
1981,22.879763,-1,1,1,1032,-3,-1548
1982,22.891426,0,0,1,1030,1,-1547
1983,22.903081,0,0,1,1030,2,-1550
1984,22.914756,0,0,0,1033,0,-1547
1985,22.926454,0,0,2,1031,0,-1547
1986,22.938124,1,1,1,1033,0,-1540
1987,22.9498,0,0,1,1031,0,-1549
1988,22.961538,0,0,2,1032,0,-1546
1989,22.973195,0,0,1,1029,2,-1539
1990,22.984752,0,0,1,1033,6,-1547
1991,22.996298,0,0,1,1032,0,-1548
1992,23.007854,0,-1,1,1036,2,-1544
1993,23.019416,0,0,1,1030,3,-1554
1994,23.030968,0,1,1,1033,-1,-1543
1995,23.042534,0,0,1,1032,3,-1545
1996,23.054131,0,0,1,1031,2,-1543
1997,23.065692,0,0,1,1032,0,-1544
1998,23.077343,0,0,1,1033,0,-1539
1999,23.089013,0,-1,1,1034,0,-1542
