sample,t_s,gyro_x,gyro_y,gyro_z,accel_x,accel_y,accel_z
0,1e-05,1,7,8,9,28,-1019
1,0.011537,2,8,9,12,28,-1019
2,0.022765,2,6,9,13,30,-1013
3,0.033955,2,7,9,10,27,-1024
4,0.045148,2,6,9,12,31,-1022
5,0.056399,3,5,9,10,27,-1025
6,0.067598,3,6,9,10,30,-1021
7,0.078786,2,6,9,10,31,-1020
8,0.089969,2,6,9,13,30,-1030
9,0.101156,2,5,9,8,33,-1025
10,0.112343,3,6,8,10,34,-1024
11,0.123531,2,6,9,10,31,-1024
12,0.134715,2,6,9,17,33,-1024
13,0.145899,3,7,8,8,29,-1021
14,0.157082,2,6,8,8,32,-1021
15,0.168272,2,5,8,13,28,-1021
16,0.179473,2,6,8,7,26,-1024
17,0.190657,2,7,8,12,29,-1023
18,0.201839,3,8,9,10,31,-1023
19,0.213025,3,7,9,9,34,-1020
20,0.224215,3,7,10,15,35,-1024
21,0.235405,2,7,9,8,28,-1017
22,0.246592,2,6,9,13,31,-1021
23,0.257795,2,6,8,8,32,-1023
24,0.268978,2,6,8,10,31,-1025
25,0.280165,3,5,9,10,29,-1020
26,0.29135,2,6,9,10,30,-1021
27,0.302534,2,5,8,14,31,-1027
28,0.313715,2,5,9,8,29,-1023
29,0.324899,2,4,9,10,25,-1019
30,0.336084,1,4,9,11,29,-1023
31,0.347272,2,5,8,12,29,-1021
32,0.358456,2,5,9,12,27,-1019
33,0.369642,2,5,9,12,29,-1020
34,0.380831,2,5,9,12,31,-1028
35,0.392027,2,6,9,14,30,-1023
36,0.403225,2,6,9,11,33,-1024
37,0.41441,3,6,9,11,31,-1023
38,0.425593,2,6,9,8,29,-1022
39,0.436776,2,8,10,15,30,-1017
40,0.447967,2,6,9,9,33,-1023
41,0.459152,2,5,9,14,29,-1025
42,0.470337,3,6,10,8,31,-1026
43,0.481525,2,5,9,9,32,-1023
44,0.492708,3,5,9,11,30,-1023
45,0.503894,2,6,9,12,26,-1021
46,0.515077,2,6,9,15,30,-1020
47,0.52626,2,7,8,8,27,-1017
48,0.537442,2,7,9,7,25,-1026
49,0.548627,2,7,9,12,30,-1024
50,0.559815,2,6,9,8,34,-1020
51,0.571001,3,7,9,9,31,-1019
52,0.58219,3,7,8,10,34,-1023
53,0.593375,3,7,9,11,27,-1022
54,0.604567,3,6,10,13,29,-1018
55,0.615757,3,6,8,15,32,-1023
56,0.626943,2,5,10,8,28,-1017
57,0.638131,1,5,9,10,27,-1025
58,0.649321,2,5,10,9,33,-1023
59,0.66051,2,5,9,12,32,-1020
60,0.671663,2,5,9,12,29,-1023
61,0.682848,2,6,9,10,31,-1021
62,0.69403,2,6,9,10,31,-1024
63,0.705219,2,6,9,8,33,-1024
64,0.716403,2,6,9,9,31,-1023
65,0.727592,2,6,9,11,29,-1028
66,0.738775,3,7,8,12,31,-1025
67,0.749957,2,6,8,9,31,-1021
68,0.76115,2,5,9,10,29,-1022
69,0.772336,2,5,8,8,34,-1022
70,0.783482,2,7,9,14,31,-1019
71,0.794697,3,6,9,9,29,-1022
72,0.805885,2,5,8,8,32,-1019
73,0.817072,3,6,9,12,32,-1023
74,0.828217,2,5,9,14,33,-1022
75,0.839405,1,5,9,13,32,-1024
76,0.85059,2,6,8,11,31,-1014
77,0.861783,2,6,8,14,29,-1021
78,0.87297,2,8,8,14,28,-1021
79,0.884159,2,7,9,9,34,-1019
80,0.895346,3,7,8,7,29,-1023
81,0.906531,3,7,9,13,30,-1027
82,0.917717,3,8,9,10,29,-1026
83,0.9289,2,8,9,8,27,-1019
84,0.940091,3,6,9,7,44,-1023
85,0.951295,3,7,9,11,34,-1020
86,0.962485,2,6,9,7,28,-1024
87,0.973689,2,7,9,11,34,-1019
88,0.984874,2,7,9,11,29,-1024
89,0.996034,2,6,9,12,31,-1026
90,1.007221,2,4,9,9,29,-1018
91,1.018404,3,4,9,13,32,-1028
92,1.029585,2,6,9,12,31,-1029
93,1.040773,2,6,9,11,33,-1025
94,1.05196,3,6,9,10,30,-1021
95,1.063143,2,5,9,7,30,-1021
96,1.074329,2,6,9,10,31,-1021
97,1.08552,3,5,9,12,31,-1023
98,1.096704,3,5,9,7,31,-1024
99,1.107849,2,5,9,9,29,-1024
100,1.119047,2,5,10,11,29,-1024
101,1.130232,2,5,10,11,34,-1025
102,1.14142,2,5,9,9,31,-1025
103,1.152608,2,7,9,14,31,-1026
104,1.163805,3,6,8,14,31,-1026
105,1.174997,2,6,10,11,30,-1027
106,1.18619,1,6,10,12,32,-1021
107,1.197377,2,7,10,12,30,-1024
108,1.208563,2,5,10,10,31,-1025
109,1.219753,1,5,8,11,31,-1017
110,1.23094,2,5,9,11,28,-1027
111,1.24214,2,6,8,11,30,-1022
112,1.253391,1,7,8,10,32,-1022
113,1.264578,1,7,8,12,33,-1026
114,1.275776,3,7,9,11,30,-1024
115,1.286961,2,6,9,10,31,-1017
116,1.298145,3,6,10,10,28,-1025
117,1.309327,2,6,10,10,32,-1018
118,1.320511,3,7,10,8,34,-1023
119,1.331662,2,7,9,13,30,-1024
120,1.342848,3,7,9,13,28,-1019
121,1.354031,3,7,9,10,34,-1026
122,1.365229,3,7,8,11,33,-1025
123,1.376417,2,5,9,17,34,-1019
124,1.387606,2,4,9,13,32,-1020
125,1.398793,2,5,9,6,25,-1022
126,1.409981,2,6,9,9,31,-1024
127,1.421171,2,6,9,10,33,-1031
128,1.432361,3,6,9,11,26,-1026
129,1.44355,3,6,9,13,31,-1027
130,1.45474,2,6,9,13,34,-1028
131,1.465925,2,7,9,11,29,-1021
132,1.477157,2,6,8,10,29,-1027
133,1.488342,2,5,9,12,30,-1023
134,1.499534,2,6,9,10,30,-1015
135,1.51072,2,5,9,8,31,-1020
136,1.521908,2,5,9,7,32,-1028
137,1.533092,3,5,8,9,29,-1018
138,1.544277,2,5,9,10,32,-1022
139,1.555474,2,5,9,10,25,-1024
140,1.566656,1,6,9,11,35,-1019
141,1.577839,2,6,8,10,28,-1018
142,1.589022,2,5,10,13,28,-1021
143,1.600215,3,7,8,13,27,-1024
144,1.611407,2,7,8,12,30,-1021
145,1.622596,3,7,9,10,28,-1023
146,1.633783,3,7,9,13,24,-1018
147,1.64497,3,8,8,11,28,-1024
148,1.656161,2,6,9,12,30,-1023
149,1.667351,2,6,9,13,30,-1023
150,1.678551,2,7,9,14,29,-1025
151,1.689738,2,6,9,10,30,-1023
152,1.700922,3,6,8,9,32,-1021
153,1.712111,3,7,8,11,28,-1029
154,1.723293,3,7,8,10,30,-1024
155,1.734483,3,7,9,8,29,-1024
156,1.74567,2,7,8,9,31,-1024
157,1.756859,3,7,9,7,33,-1020
158,1.768038,3,6,8,9,30,-1017
159,1.779229,2,7,9,11,28,-1027
160,1.790423,3,7,9,8,32,-1025
161,1.801608,2,6,9,10,31,-1026
162,1.812801,2,5,9,9,31,-1025
163,1.823987,2,5,9,10,30,-1026
164,1.835183,2,6,9,11,27,-1025
165,1.846368,2,6,9,10,33,-1025
166,1.857553,2,5,9,12,31,-1017
167,1.868735,2,6,9,11,32,-1022
168,1.879923,2,6,9,9,28,-1023
169,1.891107,2,6,8,10,29,-1022
170,1.902289,2,6,9,11,33,-1021
171,1.913477,2,5,8,14,26,-1019
172,1.92466,2,5,9,10,32,-1033
173,1.93585,2,5,9,9,29,-1025
174,1.947035,2,6,9,15,31,-1024
175,1.958219,3,5,9,13,30,-1026
176,1.969403,2,5,9,6,30,-1029
177,1.980589,2,5,9,10,31,-1019
178,1.991784,2,5,9,13,29,-1021
179,2.002969,2,6,8,9,31,-1025
180,2.014152,2,7,8,8,33,-1018
181,2.025338,3,7,8,12,26,-1027
182,2.03652,2,5,9,11,29,-1027
183,2.047665,2,5,9,12,29,-1024
184,2.058851,2,5,8,13,32,-1025
185,2.070033,2,4,9,13,26,-1021
186,2.08122,2,4,9,9,29,-1023
187,2.092401,2,5,9,9,29,-1027
188,2.103619,2,5,9,10,31,-1023
189,2.114807,2,6,9,11,31,-1021
190,2.12599,3,7,10,12,29,-1021
191,2.137172,2,8,10,11,30,-1019
192,2.148361,2,7,9,11,32,-1028
193,2.15955,3,6,9,14,31,-1021
194,2.170731,2,6,9,10,26,-1024
195,2.181915,2,7,9,12,31,-1024
196,2.193113,3,7,9,10,29,-1018
197,2.204299,2,7,9,11,30,-1022
198,2.215478,1,6,9,10,32,-1024
199,2.226665,2,6,10,13,28,-1024
200,2.23785,2,6,10,12,29,-1018
201,2.249041,2,6,9,8,27,-1027
202,2.260221,2,6,9,14,31,-1023
203,2.271414,2,6,9,12,28,-1026
204,2.282599,2,5,9,12,32,-1024
205,2.293785,2,5,9,12,30,-1025
206,2.304973,1,4,8,8,27,-1018
207,2.31616,2,6,8,13,30,-1027
208,2.327351,2,6,8,11,31,-1030
209,2.338535,2,5,8,11,32,-1029
210,2.34972,3,5,8,10,32,-1028
211,2.36091,2,6,8,15,30,-1024
212,2.372096,3,6,9,8,30,-1019
213,2.383291,3,7,8,10,31,-1025
214,2.394487,2,5,10,12,29,-1026
215,2.405671,2,5,9,12,30,-1025
216,2.416855,2,6,10,12,33,-1022
217,2.428034,2,6,9,11,30,-1023
218,2.439221,3,7,10,10,27,-1024
219,2.450404,3,6,9,9,31,-1013
220,2.461589,2,7,9,11,32,-1023
221,2.472773,3,6,9,11,29,-1023
222,2.48396,2,7,9,10,32,-1027
223,2.495144,3,7,9,14,28,-1024
224,2.506331,3,8,9,12,33,-1027
225,2.517519,2,6,9,9,30,-1023
226,2.528711,2,6,9,14,32,-1021
227,2.539899,2,7,9,9,34,-1019
228,2.551099,2,5,9,4,33,-1019
229,2.562284,2,6,9,10,28,-1029
230,2.573469,2,6,9,10,29,-1019
231,2.584659,2,6,9,10,35,-1023
232,2.595849,2,6,8,12,30,-1024
233,2.607036,2,7,9,11,28,-1018
234,2.61822,2,7,9,12,32,-1027
235,2.629407,2,6,9,9,28,-1026
236,2.640593,2,5,9,10,30,-1023
237,2.651785,3,7,9,9,28,-1026
238,2.662972,2,6,10,11,33,-1024
239,2.674163,2,6,9,11,31,-1023
240,2.685347,2,6,9,10,30,-1022
241,2.696536,2,6,8,9,28,-1019
242,2.707722,2,5,10,14,32,-1028
243,2.718905,2,4,9,9,32,-1018
244,2.730091,2,5,10,9,30,-1020
245,2.741273,2,6,10,12,30,-1021
246,2.752459,2,6,9,11,28,-1029
247,2.763662,2,5,9,6,27,-1020
248,2.774845,2,6,8,9,31,-1022
249,2.786033,2,5,9,8,33,-1021
250,2.797219,3,7,9,10,30,-1025
251,2.80841,2,6,9,11,25,-1020
252,2.8196,3,8,9,11,33,-1020
253,2.830784,2,7,9,10,30,-1022
254,2.841968,3,7,9,9,28,-1025
255,2.853156,3,7,10,11,29,-1026
256,2.864344,2,7,9,10,29,-1019
257,2.875535,3,8,10,12,32,-1023
258,2.886718,2,7,9,9,30,-1020
259,2.897901,2,7,10,9,31,-1021
260,2.909104,2,6,9,10,28,-1023
261,2.920292,2,6,9,13,29,-1020
262,2.93148,2,5,9,11,26,-1019
263,2.942667,2,5,9,9,32,-1025
264,2.953849,2,6,9,12,29,-1018
265,2.965036,1,6,8,11,32,-1023
266,2.976226,2,5,8,14,30,-1025
267,2.987412,3,6,8,11,28,-1018
268,2.998599,2,6,9,8,30,-1026
269,3.009785,2,6,8,7,34,-1023
270,3.02097,3,6,9,13,28,-1023
271,3.032166,2,7,9,12,31,-1025
272,3.043351,3,7,9,10,32,-1022
273,3.05454,2,7,9,9,30,-1024
274,3.065723,2,6,9,13,33,-1017
275,3.076907,2,6,9,13,27,-1023
276,3.088093,3,7,9,12,30,-1020
277,3.099291,2,7,10,10,28,-1018
278,3.110475,2,5,9,13,26,-1018
279,3.12166,2,5,9,7,31,-1023
280,3.132853,1,5,10,12,30,-1024
281,3.144034,2,4,9,11,33,-1023
282,3.155218,2,5,9,9,30,-1024
283,3.16641,3,6,9,11,29,-1023
284,3.177596,2,5,9,9,30,-1027
285,3.18878,2,5,9,10,29,-1021
286,3.199968,2,5,8,13,29,-1028
287,3.211152,2,4,9,11,29,-1022
288,3.222342,2,5,9,8,28,-1020
289,3.233526,3,6,9,12,30,-1024
290,3.244716,2,6,8,15,29,-1022
291,3.255913,2,6,8,13,30,-1027
292,3.267099,2,6,9,8,30,-1026
293,3.278283,2,6,9,12,32,-1019
294,3.289467,2,7,9,9,31,-1021
295,3.300653,2,7,8,9,30,-1023
296,3.311845,2,7,8,10,31,-1024
297,3.323028,3,6,9,11,28,-1016
298,3.334213,2,6,9,13,30,-1016
299,3.345396,2,7,9,10,30,-1024
300,3.35658,2,7,9,9,31,-1026
301,3.367771,3,7,9,17,28,-1016
302,3.378954,2,6,9,12,29,-1028
303,3.39014,2,6,9,14,27,-1025
304,3.401322,3,7,9,14,31,-1025
305,3.41251,3,7,9,11,30,-1017
306,3.423665,2,6,10,11,35,-1021
307,3.43485,2,6,9,11,34,-1020
308,3.446034,2,6,9,11,31,-1014
309,3.457232,2,7,10,6,33,-1020
310,3.468417,2,4,10,10,31,-1020
311,3.479606,1,5,9,10,33,-1026
312,3.490791,2,5,9,13,33,-1022
313,3.501973,2,5,9,10,30,-1022
314,3.51317,3,6,8,11,28,-1023
315,3.52436,3,7,9,8,29,-1025
316,3.535545,3,8,8,10,31,-1026
317,3.54673,2,7,9,10,30,-1022
318,3.557912,3,7,8,9,32,-1027
319,3.569092,2,6,9,13,30,-1021
320,3.580277,2,5,9,12,35,-1023
321,3.591473,2,5,9,10,33,-1026
322,3.602653,2,6,9,11,33,-1022
323,3.613845,2,6,8,11,28,-1023
324,3.625029,3,7,9,13,31,-1017
325,3.636217,2,7,9,11,34,-1024
326,3.647411,3,8,10,12,27,-1026
327,3.658591,2,7,9,15,31,-1025
328,3.669774,3,6,9,11,30,-1022
329,3.680957,3,7,9,12,27,-1019
330,3.69215,2,6,9,11,27,-1029
331,3.703294,2,6,9,10,29,-1017
332,3.714477,3,6,9,13,35,-1016
333,3.725662,2,6,9,11,31,-1021
334,3.736845,3,7,8,7,31,-1019
335,3.748031,3,6,8,8,27,-1025
336,3.759215,3,7,9,8,32,-1026
337,3.770399,2,6,8,11,32,-1020
338,3.781583,2,5,8,7,29,-1018
339,3.792768,3,5,9,9,30,-1024
340,3.803959,2,6,9,9,26,-1020
341,3.815143,2,5,8,10,23,-1022
342,3.826328,3,5,8,11,27,-1017
343,3.837512,2,6,8,11,28,-1026
344,3.848702,3,6,8,7,32,-1024
345,3.859847,3,6,9,11,30,-1022
346,3.871029,2,5,9,12,29,-1021
347,3.882213,2,6,8,11,29,-1024
348,3.893396,2,4,8,11,31,-1021
349,3.904577,1,4,9,12,26,-1022
350,3.915771,1,5,9,10,27,-1025
351,3.926955,2,6,9,8,31,-1024
352,3.938146,2,5,9,13,28,-1029
353,3.949333,2,6,8,8,28,-1022
354,3.960518,2,7,8,10,32,-1021
355,3.971676,2,6,8,12,31,-1026
356,3.982875,2,7,8,10,32,-1018
357,3.994063,2,5,9,14,28,-1022
358,4.005257,2,5,8,9,25,-1016
359,4.016447,2,6,8,10,32,-1026
360,4.027634,3,6,9,12,30,-1018
361,4.038821,2,7,9,10,32,-1025
362,4.050007,2,6,9,11,30,-1023
363,4.061192,1,6,9,8,27,-1019
364,4.072387,3,6,9,12,29,-1020
365,4.083584,2,6,9,9,30,-1030
366,4.09477,2,5,10,12,32,-1022
367,4.105953,2,5,9,10,28,-1028
368,4.117136,3,5,9,16,27,-1016
369,4.128327,3,6,9,11,33,-1021
370,4.139479,2,6,9,8,26,-1021
371,4.150661,2,4,10,11,30,-1016
372,4.161854,3,5,8,9,29,-1020
373,4.173038,3,5,8,10,32,-1027
374,4.184216,3,5,9,15,31,-1023
375,4.195406,2,5,9,8,30,-1026
376,4.206589,2,4,10,12,30,-1018
377,4.217771,2,4,9,11,29,-1027
378,4.228955,3,6,9,9,31,-1019
379,4.240147,2,5,9,16,28,-1029
380,4.251295,2,6,9,12,29,-1017
381,4.262482,2,4,8,11,31,-1020
382,4.273666,1,5,9,11,28,-1023
383,4.284849,1,5,9,10,31,-1031
384,4.296033,2,5,9,12,30,-1023
385,4.307216,2,5,10,11,30,-1024
386,4.318401,2,5,10,11,31,-1020
387,4.329595,2,6,9,14,31,-1024
388,4.340781,3,6,9,7,31,-1016
389,4.351967,2,5,9,12,37,-1021
390,4.36315,2,4,9,9,29,-1018
391,4.374335,2,5,9,12,34,-1013
392,4.385518,2,5,9,14,30,-1021
393,4.3967,3,5,10,9,28,-1026
394,4.407848,2,6,10,9,30,-1020
395,4.419029,3,6,9,12,29,-1023
396,4.430207,3,7,9,9,32,-1022
397,4.441394,2,6,9,8,29,-1019
398,4.452589,2,7,9,12,34,-1024
399,4.463777,2,6,9,12,29,-1027
400,4.474964,3,4,9,7,32,-1021
401,4.48615,2,5,9,10,27,-1025
402,4.497334,2,6,9,13,32,-1025
403,4.508521,3,6,9,10,30,-1023
404,4.519717,2,5,10,10,26,-1018
405,4.531328,2,6,8,9,29,-1027
406,4.543009,2,6,9,9,31,-1018
407,4.554661,2,6,9,10,29,-1022
408,4.566311,2,6,8,12,27,-1018
409,4.57799,2,6,9,9,30,-1024
410,4.589642,3,7,9,14,29,-1023
411,4.601295,2,5,9,12,30,-1017
412,4.612957,3,6,9,12,34,-1023
413,4.62465,3,5,9,7,26,-1024
414,4.636307,3,6,9,9,30,-1016
415,4.647991,3,6,9,10,29,-1017
416,4.659639,2,6,9,10,30,-1024
417,4.671317,2,6,9,11,28,-1019
418,4.682987,3,6,9,12,32,-1025
419,4.694663,2,6,9,7,29,-1023
420,4.706307,2,7,8,10,33,-1021
421,4.717942,2,6,8,12,26,-1025
422,4.729632,2,6,9,12,28,-1023
423,4.74128,2,6,9,11,31,-1023
424,4.752841,2,6,9,9,31,-1017
425,4.764449,2,6,9,9,31,-1023
426,4.776019,3,5,8,13,28,-1021
427,4.787655,3,6,9,12,31,-1016
428,4.799279,2,6,9,8,26,-1022
429,4.810838,1,6,9,11,30,-1023
430,4.822384,1,6,8,12,26,-1018
431,4.833973,2,6,8,10,31,-1024
432,4.845647,2,5,9,15,30,-1026
433,4.857312,2,6,9,9,28,-1018
434,4.86896,2,6,8,10,32,-1022
435,4.880635,3,6,10,13,30,-1023
436,4.892293,3,6,9,13,28,-1024
437,4.903971,3,6,9,15,31,-1017
438,4.915602,2,5,9,11,29,-1022
439,4.927267,2,7,9,10,30,-1025
440,4.93893,2,6,9,7,30,-1018
441,4.95066,2,6,8,9,29,-1021
442,4.962217,2,6,8,7,26,-1022
443,4.973821,3,5,8,8,31,-1023
444,4.985376,2,6,9,11,29,-1027
445,4.996957,3,6,9,7,28,-1027
446,5.00853,2,6,9,9,30,-1025
447,5.02005,2,6,10,8,32,-1026
448,5.031576,2,5,9,9,34,-1021
449,5.043139,2,7,8,10,33,-1025
450,5.054783,2,5,9,10,31,-1025
451,5.066475,2,6,9,10,27,-1021
452,5.078154,2,6,8,8,30,-1020
453,5.089811,2,6,8,7,28,-1019
454,5.10148,2,6,8,8,35,-1028
455,5.113138,2,5,10,7,30,-1026
456,5.124801,2,5,8,11,33,-1020
457,5.136495,2,6,8,13,31,-1026
458,5.148169,2,6,8,11,27,-1022
459,5.15985,2,6,9,10,31,-1021
460,5.171463,3,5,9,10,31,-1014
461,5.183022,3,5,9,10,31,-1024
462,5.194578,2,5,9,10,26,-1019
463,5.206136,2,6,9,7,28,-1025
464,5.217688,2,6,9,9,29,-1024
465,5.22923,2,6,9,9,32,-1018
466,5.240767,2,5,9,12,29,-1018
467,5.252302,3,6,9,13,31,-1018
468,5.263926,2,6,9,9,29,-1020
469,5.275596,2,6,9,11,33,-1020
470,5.287268,2,5,9,12,25,-1020
471,5.298927,2,6,9,10,32,-1023
472,5.310581,3,6,9,13,32,-1018
473,5.32225,2,7,9,14,28,-1020
474,5.333905,3,6,9,12,26,-1022
475,5.345549,2,6,9,11,30,-1023
476,5.357249,2,6,9,10,29,-1021
477,5.368914,3,6,9,12,28,-1018
478,5.380473,3,6,9,3,30,-1021
479,5.392041,3,5,9,12,30,-1023
480,5.403574,2,5,9,10,34,-1019
481,5.415122,3,6,9,9,30,-1025
482,5.42669,3,6,9,13,29,-1018
483,5.43827,2,6,9,9,29,-1024
484,5.449835,3,7,9,9,33,-1027
485,5.461404,2,6,9,11,30,-1028
486,5.473029,2,5,9,8,27,-1020
487,5.484708,2,6,9,7,33,-1022
488,5.496381,2,5,9,13,28,-1022
489,5.508034,3,6,9,14,30,-1025
490,5.519715,2,6,9,12,29,-1021
491,5.531392,2,6,9,12,29,-1018
492,5.543038,3,5,9,12,28,-1015
493,5.55471,2,6,9,8,32,-1023
494,5.566391,3,6,9,12,29,-1021
495,5.578041,2,5,9,10,31,-1018
496,5.589601,2,6,9,9,31,-1017
497,5.601172,2,6,9,9,28,-1030
498,5.61273,2,6,8,10,26,-1020
499,5.624339,2,6,9,6,31,-1020
500,5.635939,2,6,9,13,29,-1024
501,5.647486,2,6,8,12,30,-1025
502,5.659034,3,5,8,12,28,-1022
503,5.670597,2,6,9,11,27,-1024
504,5.682231,2,7,9,9,29,-1016
505,5.693884,3,6,9,11,34,-1019
506,5.705532,2,7,9,12,29,-1019
507,5.717193,2,5,8,11,29,-1020
508,5.728871,2,6,9,15,31,-1022
509,5.740519,3,6,8,9,30,-1026
510,5.752175,3,7,8,14,32,-1017
511,5.763866,2,6,9,8,33,-1022
512,5.775524,2,6,9,11,32,-1020
513,5.787183,3,6,10,11,33,-1024
514,5.798749,2,6,9,12,28,-1022
515,5.810359,2,6,9,10,30,-1026
516,5.82193,2,7,9,10,30,-1019
517,5.833474,2,6,9,9,31,-1021
518,5.845025,3,6,10,9,33,-1021
519,5.856586,2,6,9,10,32,-1021
520,5.868133,2,6,10,11,29,-1028
521,5.879711,1,6,9,10,34,-1025
522,5.891401,2,5,9,12,30,-1015
523,5.903056,2,6,9,9,31,-1025
524,5.914733,3,6,9,13,27,-1017
525,5.926391,3,6,9,9,29,-1023
526,5.938057,3,5,10,6,28,-1018
527,5.949706,3,6,10,11,28,-1022
528,5.961381,2,6,9,13,29,-1018
529,5.973027,2,5,8,10,27,-1024
530,5.984718,2,6,9,12,32,-1019
531,5.996371,2,6,9,11,31,-1022
532,6.007935,2,5,9,13,29,-1026
533,6.019497,2,6,10,8,27,-1016
534,6.03107,2,6,9,11,29,-1025
535,6.04262,3,7,8,11,30,-1026
536,6.05418,2,6,9,12,30,-1029
537,6.065717,2,6,9,12,32,-1025
538,6.077264,2,7,10,11,34,-1022
539,6.088829,2,6,9,9,34,-1019
540,6.100495,3,6,9,9,27,-1025
541,6.112158,2,6,9,11,29,-1019
542,6.123851,2,6,9,11,27,-1024
543,6.135501,2,6,9,13,32,-1019
544,6.147152,3,6,9,13,34,-1024
545,6.158832,3,6,9,12,28,-1017
546,6.170506,2,6,9,13,23,-1027
547,6.182157,2,6,9,11,29,-1021
548,6.193826,3,6,8,17,27,-1021
549,6.205407,2,6,9,12,30,-1020
550,6.216954,3,6,9,12,28,-1026
551,6.228573,3,6,8,12,31,-1029
552,6.240132,2,6,9,14,31,-1024
553,6.251692,2,6,9,13,30,-1020
554,6.263277,3,7,9,12,27,-1026
555,6.274832,2,7,9,10,30,-1029
556,6.286402,2,6,9,10,31,-1020
557,6.297945,2,6,8,11,31,-1026
558,6.309495,2,6,8,8,28,-1023
559,6.321044,2,6,9,9,31,-1021
560,6.332598,3,6,10,10,28,-1019
561,6.344187,2,6,9,12,30,-1024
562,6.355749,3,6,9,12,29,-1021
563,6.367328,3,5,9,12,35,-1031
564,6.378895,2,5,8,11,34,-1023
565,6.390464,3,7,9,8,27,-1026
566,6.402077,3,6,9,10,31,-1022
567,6.413737,3,6,9,15,28,-1019
568,6.425415,2,6,10,11,32,-1023
569,6.437113,2,6,10,10,31,-1024
570,6.44876,2,6,9,12,28,-1025
571,6.460413,2,6,9,14,32,-1024
572,6.472104,2,6,9,13,28,-1027
573,6.483745,2,6,9,12,30,-1023
574,6.495411,2,5,9,14,32,-1027
575,6.507074,2,5,9,11,32,-1023
576,6.518632,3,7,10,12,29,-1020
577,6.530193,2,6,10,13,29,-1023
578,6.541805,2,7,10,9,32,-1025
579,6.553355,2,6,9,10,32,-1026
580,6.564928,2,5,9,12,29,-1018
581,6.576467,3,6,9,8,31,-1019
582,6.588032,2,6,9,10,28,-1024
583,6.599584,2,6,9,15,23,-1021
584,6.61122,2,6,9,11,27,-1024
585,6.622874,2,6,10,10,31,-1027
586,6.634529,2,6,9,8,31,-1024
587,6.646195,2,6,8,10,28,-1023
588,6.657852,2,6,9,11,25,-1022
589,6.669504,2,7,9,15,27,-1021
590,6.681155,2,6,9,12,31,-1029
591,6.692803,2,6,9,14,30,-1026
592,6.704473,2,7,9,10,27,-1021
593,6.716048,1,6,9,6,29,-1019
594,6.727572,2,7,9,8,28,-1030
595,6.739137,2,6,9,7,28,-1019
596,6.750689,2,6,10,14,31,-1018
597,6.762231,2,6,9,6,29,-1029
598,6.773774,2,6,10,11,33,-1026
599,6.785317,2,6,9,12,31,-1020
600,6.796892,3,6,10,10,33,-1021
601,6.808447,3,6,10,10,34,-1018
602,6.82011,2,7,9,6,30,-1023
603,6.831768,2,5,9,11,31,-1024
604,6.843414,2,6,9,7,29,-1015
605,6.855057,3,6,9,12,32,-1018
606,6.866718,3,6,9,7,27,-1020
607,6.87836,2,6,9,10,29,-1019
608,6.890004,2,6,9,11,34,-1025
609,6.901677,2,5,9,6,30,-1020
610,6.91337,2,6,9,7,29,-1026
611,6.925032,2,6,9,9,29,-1027
612,6.936709,3,7,9,11,27,-1026
613,6.948364,2,6,9,5,30,-1028
614,6.960021,2,6,8,11,33,-1016
615,6.971712,2,7,8,13,32,-1022
616,6.98334,2,6,8,11,29,-1023
617,6.994989,2,6,9,12,33,-1020
618,7.006669,2,6,9,7,30,-1028
619,7.018331,2,6,10,11,29,-1022
620,7.029988,2,5,9,11,28,-1027
621,7.041634,2,7,10,12,29,-1023
622,7.053285,2,5,9,9,32,-1026
623,7.064961,2,6,9,11,29,-1021
624,7.076619,2,6,9,13,29,-1018
625,7.088276,3,7,9,13,36,-1019
626,7.099968,3,6,9,10,32,-1025
627,7.111659,2,6,8,10,31,-1022
628,7.123307,2,6,9,9,29,-1017
629,7.134851,3,6,8,16,30,-1023
630,7.146411,2,6,8,6,30,-1020
631,7.157957,2,6,9,10,32,-1020
632,7.169504,2,6,9,12,31,-1022
633,7.181044,2,7,8,7,31,-1022
634,7.192619,3,7,10,11,32,-1021
635,7.204175,2,6,9,13,30,-1024
636,7.215745,2,6,8,14,31,-1022
637,7.227457,2,6,8,10,32,-1024
638,7.239103,2,5,9,12,28,-1021
639,7.250747,2,5,9,9,32,-1021
640,7.262405,3,5,9,12,31,-1031
641,7.274049,2,6,9,9,32,-1029
642,7.285737,2,6,9,8,30,-1021
643,7.297379,2,6,8,14,29,-1019
644,7.309027,2,6,9,13,28,-1029
645,7.32072,2,6,10,12,33,-1023
646,7.332368,3,6,9,11,27,-1028
647,7.343941,3,6,10,8,32,-1020
648,7.3555,3,7,9,11,29,-1020
649,7.367044,3,6,10,12,33,-1027
650,7.378604,2,7,9,7,33,-1020
651,7.390164,2,6,9,8,28,-1020
652,7.401708,2,6,9,10,31,-1019
653,7.413282,3,7,8,10,31,-1024
654,7.424857,2,6,8,11,31,-1026
655,7.436487,3,6,9,11,30,-1024
656,7.44811,2,6,9,12,27,-1015
657,7.459767,2,6,9,11,31,-1024
658,7.471459,3,5,9,7,33,-1022
659,7.483107,2,6,9,10,29,-1023
660,7.494756,2,6,9,9,31,-1023
661,7.506427,2,6,8,11,31,-1022
662,7.518088,3,6,9,8,29,-1025
663,7.529752,2,7,9,12,31,-1023
664,7.541402,2,6,9,12,31,-1024
665,7.552955,2,5,9,8,30,-1026
666,7.564535,3,6,8,9,29,-1024
667,7.5761,3,6,9,10,28,-1027
668,7.58766,2,6,8,11,32,-1023
669,7.599205,2,6,9,13,28,-1022
670,7.610778,2,7,8,7,29,-1020
671,7.622317,2,6,8,13,31,-1020
672,7.633865,3,7,9,11,30,-1027
673,7.645489,2,6,9,12,30,-1017
674,7.657158,3,7,9,8,35,-1018
675,7.668818,3,7,9,7,28,-1028
676,7.680494,2,6,9,11,32,-1021
677,7.692108,3,6,9,15,33,-1023
678,7.703762,3,6,9,13,31,-1026
679,7.715453,2,6,9,11,30,-1025
680,7.727088,2,6,9,5,32,-1018
681,7.738749,2,7,9,12,30,-1017
682,7.750416,2,7,10,6,30,-1027
683,7.761991,3,7,10,7,32,-1022
684,7.773539,2,6,9,11,31,-1021
685,7.78511,1,6,9,10,29,-1028
686,7.796666,2,7,9,16,28,-1019
687,7.808225,2,6,9,10,34,-1021
688,7.819794,2,6,9,9,33,-1019
689,7.831329,2,6,9,10,30,-1022
690,7.8429,2,6,9,12,32,-1021
691,7.854525,2,6,9,12,28,-1017
692,7.866185,3,6,9,12,32,-1018
693,7.877834,2,6,9,10,29,-1025
694,7.889484,2,6,9,10,29,-1023
695,7.901124,2,6,9,11,30,-1020
696,7.912815,2,6,9,10,29,-1023
697,7.924498,3,6,9,13,30,-1019
698,7.936156,2,6,10,7,29,-1021
699,7.947852,2,6,9,9,29,-1021
700,7.959509,2,6,9,9,33,-1020
701,7.971058,3,5,9,10,30,-1025
702,7.9826,2,6,8,13,30,-1020
703,7.99415,2,6,9,12,29,-1022
704,8.005692,2,6,9,15,30,-1022
705,8.017242,2,5,9,14,31,-1023
706,8.028804,3,6,9,11,31,-1023
707,8.040354,2,6,9,6,31,-1022
708,8.051943,2,6,9,10,30,-1018
709,8.063599,3,6,9,10,26,-1021
710,8.075246,3,6,9,11,29,-1018
711,8.08692,2,7,9,16,30,-1021
712,8.098577,2,6,9,10,32,-1025
713,8.110227,2,6,9,11,30,-1020
714,8.121877,2,6,9,10,26,-1018
715,8.133541,2,6,9,14,30,-1022
716,8.145196,3,6,9,11,29,-1024
717,8.156885,2,6,9,15,33,-1023
718,8.168543,2,6,9,12,23,-1019
719,8.180098,3,7,9,9,28,-1026
720,8.191653,2,6,9,8,31,-1025
721,8.203199,2,6,9,11,30,-1026
722,8.214752,2,6,9,11,34,-1019
723,8.226301,3,6,9,12,33,-1025
724,8.237892,3,6,8,12,33,-1023
725,8.249561,3,6,9,9,31,-1021
726,8.261157,3,6,8,11,32,-1023
727,8.27283,3,7,9,8,29,-1021
728,8.284512,3,7,8,13,29,-1020
729,8.296191,2,6,8,5,28,-1024
730,8.30786,2,5,9,13,34,-1029
731,8.319508,2,6,9,15,27,-1018
732,8.331188,3,7,8,10,35,-1025
733,8.342847,3,6,9,11,29,-1023
734,8.354495,2,6,9,14,29,-1019
735,8.366175,2,6,9,11,32,-1023
736,8.377851,2,6,8,10,34,-1025
737,8.389401,3,6,8,10,29,-1019
738,8.400978,2,6,9,14,27,-1020
739,8.41254,2,7,9,13,29,-1018
740,8.424064,2,6,9,12,32,-1023
741,8.435618,2,6,10,8,35,-1017
742,8.447172,2,6,9,8,32,-1024
743,8.458769,2,6,9,9,30,-1016
744,8.470332,2,5,9,11,31,-1026
745,8.481945,3,6,9,10,28,-1026
746,8.4936,2,6,10,12,32,-1021
747,8.505246,2,6,10,7,28,-1018
748,8.516924,2,6,9,13,31,-1022
749,8.52861,2,5,8,12,33,-1022
750,8.540275,2,6,8,12,29,-1020
751,8.551933,2,6,9,14,32,-1023
752,8.5636,2,6,9,9,27,-1023
753,8.575289,2,6,9,10,30,-1020
754,8.586951,2,6,9,10,30,-1027
755,8.598524,3,6,9,10,27,-1018
756,8.61008,3,5,9,14,27,-1022
757,8.62163,3,6,9,9,32,-1019
758,8.633189,3,6,9,11,33,-1019
759,8.64478,2,6,9,7,32,-1020
760,8.656357,3,6,9,12,30,-1020
761,8.668074,3,6,9,7,31,-1019
762,8.679652,3,6,8,12,29,-1025
763,8.691354,3,6,9,10,29,-1022
764,8.70301,2,7,9,11,35,-1026
765,8.714685,2,5,10,8,31,-1021
766,8.726338,2,7,9,12,30,-1023
767,8.737975,3,6,10,9,29,-1021
768,8.749623,2,6,9,11,34,-1022
769,8.7613,3,6,9,8,35,-1023
770,8.772977,2,6,8,16,32,-1020
771,8.784651,2,5,9,11,31,-1025
772,8.796351,2,5,9,7,29,-1020
773,8.808028,1,7,9,10,29,-1026
774,8.819715,2,6,9,9,30,-1023
775,8.831342,2,6,8,14,27,-1024
776,8.842992,3,6,8,11,32,-1020
777,8.854636,2,6,9,13,32,-1020
778,8.866294,2,6,8,12,32,-1028
779,8.877947,2,6,9,12,30,-1025
780,8.889583,3,6,9,14,29,-1026
781,8.901158,2,6,9,8,27,-1025
782,8.912743,2,5,9,6,32,-1017
783,8.924291,3,6,9,6,28,-1025
784,8.935807,3,6,9,12,28,-1019
785,8.947328,3,6,9,11,34,-1028
786,8.958877,2,7,9,10,31,-1020
787,8.970419,3,6,8,10,30,-1024
788,8.981971,2,6,9,9,30,-1022
789,8.993582,3,6,9,12,27,-1020
790,9.005231,3,5,9,14,32,-1027
791,9.016899,2,6,9,12,30,-1024
792,9.028561,2,5,10,10,31,-1026
793,9.040232,3,5,9,11,24,-1025
794,9.051911,2,6,9,10,30,-1030
795,9.063592,2,5,9,9,32,-1019
796,9.07524,3,6,9,9,31,-1023
797,9.086901,2,6,9,11,29,-1023
798,9.098562,2,6,8,11,28,-1014
799,9.110135,3,6,8,9,30,-1025
800,9.121686,3,6,9,8,30,-1027
801,9.133276,2,5,8,14,34,-1021
802,9.144819,2,6,9,10,36,-1028
803,9.156384,3,6,9,6,28,-1020
804,9.167935,2,6,10,10,28,-1023
805,9.179517,2,5,9,11,32,-1026
806,9.191165,3,6,8,10,28,-1020
807,9.202787,3,5,9,11,28,-1025
808,9.214451,3,7,9,9,28,-1018
809,9.226099,2,6,8,6,34,-1021
810,9.237768,3,7,8,6,32,-1014
811,9.249428,3,7,9,13,32,-1019
812,9.261071,2,6,9,9,31,-1025
813,9.272894,2,6,9,10,29,-1016
814,9.284565,2,6,9,10,31,-1018
815,9.296238,3,6,8,16,31,-1019
816,9.307895,3,6,9,15,32,-1024
817,9.319583,2,6,9,7,28,-1023
818,9.331258,1,5,9,10,31,-1028
819,9.34292,3,6,9,11,30,-1019
820,9.354573,2,7,8,11,28,-1022
821,9.366234,2,7,9,9,28,-1023
822,9.377903,2,7,9,10,30,-1024
823,9.389559,2,7,9,12,27,-1031
824,9.401337,2,6,8,13,28,-1026
825,9.413003,2,6,9,6,28,-1024
826,9.424551,3,5,9,9,28,-1023
827,9.436128,2,6,9,13,32,-1030
828,9.447697,3,7,9,9,30,-1021
829,9.459253,2,6,8,10,30,-1023
830,9.470794,2,6,9,11,31,-1021
831,9.482341,2,6,9,11,33,-1016
832,9.493891,2,6,9,11,29,-1028
833,9.505471,3,6,9,12,27,-1030
834,9.517094,3,7,9,10,30,-1025
835,9.528756,3,5,9,11,32,-1019
836,9.540432,2,6,9,6,28,-1029
837,9.552104,3,5,9,12,29,-1024
838,9.563761,2,6,8,9,32,-1023
839,9.57545,2,4,8,13,29,-1017
840,9.587109,2,5,8,9,34,-1026
841,9.598784,2,5,9,16,31,-1022
842,9.610451,2,5,9,16,33,-1029
843,9.622124,2,6,9,9,30,-1018
844,9.633689,2,6,8,10,28,-1017
845,9.64525,3,6,10,7,32,-1020
846,9.656794,3,6,9,10,28,-1024
847,9.668351,2,6,9,10,32,-1022
848,9.679917,3,6,9,9,30,-1027
849,9.69148,2,6,10,10,33,-1020
850,9.703031,1,5,9,10,33,-1025
851,9.71462,2,6,9,9,28,-1025
852,9.726263,3,6,9,10,33,-1025
853,9.737929,2,6,9,12,34,-1025
854,9.749577,2,6,9,10,30,-1020
855,9.761233,2,6,9,12,33,-1027
856,9.772907,2,7,9,12,30,-1019
857,9.784558,2,6,10,12,29,-1025
858,9.796232,2,6,9,11,31,-1026
859,9.807912,3,6,10,13,30,-1026
860,9.819602,2,6,9,9,30,-1018
861,9.83127,3,6,9,12,31,-1021
862,9.842829,2,6,9,14,27,-1019
863,9.854382,2,6,8,9,29,-1021
864,9.865931,1,6,10,10,31,-1021
865,9.877506,2,5,9,10,26,-1023
866,9.889107,3,6,9,11,34,-1028
867,9.900669,3,6,9,11,32,-1024
868,9.912245,2,6,9,10,33,-1019
869,9.923815,3,6,9,8,30,-1031
870,9.935466,4,5,9,11,30,-1022
871,9.947117,2,6,10,10,28,-1019
872,9.958776,2,6,10,14,30,-1021
873,9.97043,3,6,9,9,33,-1018
874,9.98207,2,6,8,9,30,-1022
875,9.993719,2,6,8,14,31,-1025
876,10.00539,2,6,10,9,28,-1022
877,10.017048,3,6,10,12,28,-1020
878,10.028696,2,6,9,12,29,-1024
879,10.040266,2,6,8,6,30,-1018
880,10.051811,2,6,9,11,28,-1023
881,10.063329,2,6,8,11,34,-1019
882,10.074878,2,6,9,11,28,-1020
883,10.086446,2,6,9,11,31,-1019
884,10.097992,2,7,9,7,30,-1024
885,10.109537,2,7,8,9,32,-1024
886,10.121089,2,7,8,12,31,-1022
887,10.132664,2,7,9,15,30,-1022
888,10.144338,2,5,8,11,31,-1028
889,10.156001,2,6,8,8,28,-1027
890,10.167673,2,6,8,10,29,-1019
891,10.179343,2,5,9,13,31,-1024
892,10.190992,3,7,9,12,31,-1029
893,10.202662,3,6,10,9,32,-1021
894,10.214304,2,6,9,11,30,-1022
895,10.225953,2,6,9,8,30,-1020
896,10.23762,2,6,9,12,29,-1022
897,10.24919,2,6,10,14,35,-1014
898,10.260768,2,7,9,11,27,-1025
899,10.272295,3,6,9,9,30,-1020
900,10.283832,3,6,9,13,29,-1024
901,10.295403,2,6,9,11,27,-1031
902,10.306991,3,5,9,12,31,-1023
903,10.318545,2,6,9,12,29,-1022
904,10.330116,2,7,9,11,31,-1029
905,10.341819,2,5,10,11,33,-1022
906,10.353501,2,7,8,12,29,-1017
907,10.36516,2,6,8,7,32,-1029
908,10.376832,2,7,9,12,32,-1021
909,10.388528,2,6,9,8,32,-1028
910,10.40018,2,6,9,8,32,-1022
911,10.411845,2,5,9,9,28,-1028
912,10.423521,3,6,9,6,29,-1024
913,10.435173,2,6,9,8,27,-1018
914,10.446833,2,6,9,12,33,-1022
915,10.4584,2,5,9,10,31,-1023
916,10.469977,2,6,9,10,27,-1015
917,10.481529,2,6,9,13,25,-1026
918,10.493106,3,6,9,10,31,-1018
919,10.504668,2,5,9,9,30,-1021
920,10.516229,3,6,9,9,32,-1028
921,10.527801,2,7,9,9,34,-1024
922,10.539341,2,6,9,10,33,-1024
923,10.550985,3,6,9,10,29,-1024
924,10.562659,3,7,9,10,32,-1026
925,10.574319,2,6,9,10,31,-1024
926,10.585976,3,6,9,6,26,-1025
927,10.597643,3,6,9,7,31,-1027
928,10.609298,3,6,9,8,33,-1025
929,10.620989,2,6,9,13,27,-1024
930,10.632641,2,6,9,8,34,-1020
931,10.644315,2,6,10,11,30,-1025
932,10.655984,1,6,9,13,31,-1026
933,10.667565,3,7,9,11,31,-1022
934,10.679107,2,7,9,14,33,-1021
935,10.690646,2,6,8,9,28,-1018
936,10.702188,2,6,9,11,31,-1020
937,10.713735,2,6,9,11,31,-1021
938,10.725295,2,6,9,14,31,-1023
939,10.736844,3,6,8,10,30,-1027
940,10.748432,3,6,8,12,29,-1023
941,10.760062,2,5,9,9,36,-1019
942,10.771747,2,6,9,11,28,-1021
943,10.783435,2,5,9,11,27,-1017
944,10.795226,3,6,9,11,30,-1027
945,10.807007,2,6,9,7,31,-1021
946,10.818677,2,6,8,10,30,-1019
947,10.830344,2,6,8,9,30,-1020
948,10.841993,2,6,9,7,29,-1024
949,10.85376,2,5,9,6,29,-1017
950,10.865443,2,5,9,9,28,-1025
951,10.877069,2,5,9,11,33,-1022
952,10.888622,2,5,10,9,31,-1025
953,10.900188,2,6,8,9,32,-1025
954,10.911749,2,6,9,6,30,-1022
955,10.923331,2,6,9,9,26,-1023
956,10.934892,2,6,9,9,35,-1023
957,10.946485,2,6,9,10,33,-1019
958,10.958072,2,5,8,10,33,-1021
959,10.969766,3,6,9,10,30,-1024
960,10.981429,2,6,10,6,30,-1021
961,10.993098,2,6,10,7,27,-1027
962,11.004768,2,6,9,14,30,-1022
963,11.016427,2,6,9,10,33,-1017
964,11.028112,2,6,9,9,29,-1021
965,11.03977,2,6,9,12,33,-1019
966,11.051451,2,6,9,9,30,-1023
967,11.063113,2,6,9,12,29,-1021
968,11.074781,2,6,8,9,29,-1032
969,11.086355,3,6,9,11,29,-1023
970,11.097902,2,6,8,10,31,-1029
971,11.109471,3,7,9,9,29,-1018
972,11.121024,3,6,9,11,32,-1023
973,11.132564,2,5,9,12,33,-1020
974,11.144109,2,6,10,10,30,-1023
975,11.155683,2,6,9,12,28,-1022
976,11.167243,2,6,9,11,32,-1029
977,11.178882,2,7,9,10,29,-1023
978,11.190542,2,6,8,13,31,-1021
979,11.202201,2,7,8,5,29,-1026
980,11.213868,2,6,8,12,30,-1024
981,11.225527,2,6,9,10,33,-1023
982,11.237182,3,6,9,11,35,-1027
983,11.248888,2,6,9,11,30,-1021
984,11.260554,3,6,10,8,31,-1022
985,11.272265,2,6,9,9,30,-1024
986,11.283921,2,6,9,11,29,-1023
987,11.29549,2,6,9,11,32,-1031
988,11.307061,2,5,9,11,33,-1029
989,11.318618,2,6,9,14,29,-1024
990,11.330178,2,6,9,9,31,-1026
991,11.341726,3,6,9,10,29,-1022
992,11.353299,2,6,8,7,29,-1019
993,11.364879,2,6,9,12,28,-1025
994,11.376474,2,6,9,15,30,-1020
995,11.388129,2,6,8,10,33,-1020
996,11.399793,2,6,9,11,30,-1024
997,11.411476,2,6,9,9,35,-1026
998,11.423139,2,6,8,12,29,-1027
999,11.434785,2,7,8,10,32,-1030
1000,11.446438,2,6,9,11,31,-1023
1001,11.458081,2,6,9,13,30,-1026
1002,11.469728,2,6,9,14,27,-1018
1003,11.481425,3,6,9,12,30,-1022
1004,11.493066,2,6,9,8,28,-1021
1005,11.504624,2,6,9,7,29,-1023
1006,11.51618,2,6,9,10,28,-1023
1007,11.527741,1,6,9,13,31,-1022
1008,11.539335,1,6,9,13,26,-1016
1009,11.550889,2,6,9,12,31,-1026
1010,11.562463,2,6,9,7,34,-1019
1011,11.574019,3,7,9,8,27,-1026
1012,11.585608,3,6,9,10,28,-1022
1013,11.597262,2,6,9,9,32,-1026
1014,11.608922,2,6,8,11,28,-1020
1015,11.620624,2,7,8,9,26,-1022
1016,11.632287,3,6,9,9,33,-1017
1017,11.643984,3,6,9,10,31,-1021
1018,11.65565,2,6,8,9,29,-1020
1019,11.667321,3,7,9,11,32,-1018
1020,11.679016,3,5,9,10,31,-1018
1021,11.690671,2,5,9,10,34,-1027
1022,11.702356,2,6,8,9,29,-1026
1023,11.713945,2,5,8,11,28,-1022
1024,11.725489,2,6,9,12,33,-1019
1025,11.737096,2,6,8,6,28,-1031
1026,11.748662,2,6,9,10,30,-1025
1027,11.760217,2,7,9,10,26,-1019
1028,11.771823,2,7,9,12,31,-1018
1029,11.783377,2,7,8,14,26,-1025
1030,11.794963,2,6,9,10,27,-1025
1031,11.806581,2,6,8,16,29,-1022
1032,11.818252,2,7,9,12,29,-1018
1033,11.829907,2,7,9,11,25,-1023
1034,11.841561,3,7,9,11,32,-1022
1035,11.853263,2,6,10,10,30,-1017
1036,11.864996,2,5,10,8,34,-1027
1037,11.876633,2,6,9,12,32,-1020
1038,11.888304,2,5,9,7,30,-1026
1039,11.900005,3,6,9,9,32,-1028
1040,11.911654,2,7,10,14,28,-1024
1041,11.923336,1,6,9,8,31,-1025
1042,11.935013,1,6,9,9,32,-1029
1043,11.946651,2,5,10,10,30,-1023
1044,11.958304,2,7,9,11,31,-1022
1045,11.969982,2,6,9,11,29,-1027
1046,11.981644,2,7,9,11,31,-1024
1047,11.993294,2,6,9,11,27,-1023
1048,12.004997,2,6,10,8,30,-1022
1049,12.016621,2,6,10,4,34,-1025
1050,12.028283,2,5,10,8,32,-1020
1051,12.039977,2,6,9,10,29,-1022
1052,12.051645,2,6,9,13,25,-1019
1053,12.06332,2,7,10,11,28,-1023
1054,12.075011,1,6,8,7,34,-1024
1055,12.086652,2,7,9,12,29,-1022
1056,12.098327,2,7,9,9,34,-1024
1057,12.110031,2,6,9,13,27,-1023
1058,12.121672,3,6,9,7,30,-1016
1059,12.133344,3,6,9,10,30,-1019
1060,12.145002,1,7,8,9,32,-1023
1061,12.156638,2,6,9,6,28,-1022
1062,12.168302,2,6,9,11,33,-1017
1063,12.179992,3,7,9,13,27,-1027
1064,12.191656,2,6,9,15,30,-1016
1065,12.203338,2,6,9,13,32,-1020
1066,12.215004,2,6,8,10,27,-1019
1067,12.226666,2,6,10,7,28,-1028
1068,12.238228,2,6,9,9,31,-1018
1069,12.249813,2,6,9,10,31,-1024
1070,12.261359,3,5,10,8,30,-1023
1071,12.272911,2,6,9,11,32,-1026
1072,12.284468,2,6,9,13,32,-1024
1073,12.296043,3,6,9,12,33,-1022
1074,12.307574,2,6,8,10,30,-1022
1075,12.31914,2,7,8,9,30,-1022
1076,12.330799,2,6,9,8,32,-1026
1077,12.342491,3,6,9,12,32,-1023
1078,12.354171,2,7,9,11,32,-1022
1079,12.365822,3,6,9,10,29,-1020
1080,12.377514,2,6,10,10,31,-1019
1081,12.38917,2,6,9,12,27,-1024
1082,12.400849,1,6,9,13,29,-1020
1083,12.412512,2,6,9,10,33,-1020
1084,12.424193,1,6,10,9,34,-1017
1085,12.435864,2,6,9,6,29,-1026
1086,12.447458,2,6,8,11,31,-1026
1087,12.459044,3,6,9,13,27,-1019
1088,12.470621,2,7,9,12,28,-1023
1089,12.482192,2,6,9,11,29,-1018
1090,12.493731,2,6,9,11,30,-1023
1091,12.505251,2,6,9,13,31,-1022
1092,12.516809,2,6,9,8,28,-1026
1093,12.528375,2,6,8,9,30,-1025
1094,12.540022,2,6,9,10,30,-1025
1095,12.551726,2,6,9,11,29,-1019
1096,12.563394,2,6,9,9,31,-1022
1097,12.575047,2,5,8,13,31,-1026
1098,12.586724,2,7,9,10,33,-1021
1099,12.598377,3,7,8,8,32,-1021
1100,12.610031,3,6,9,11,31,-1013
1101,12.621697,2,6,8,13,32,-1021
1102,12.633382,2,6,9,12,28,-1026
1103,12.645033,2,6,8,10,31,-1019
1104,12.656687,2,6,8,8,32,-1026
1105,12.668376,2,6,8,8,29,-1026
1106,12.680031,2,5,9,10,33,-1025
1107,12.691709,2,6,10,10,30,-1025
1108,12.703382,2,6,10,11,30,-1027
1109,12.715029,2,6,10,9,29,-1022
1110,12.726678,2,6,9,12,31,-1032
1111,12.738416,2,5,9,9,30,-1018
1112,12.750076,2,5,9,11,30,-1020
1113,12.761657,2,5,9,11,26,-1022
1114,12.7732,2,6,9,9,34,-1020
1115,12.784776,2,7,9,7,29,-1026
1116,12.796371,3,6,9,13,27,-1024
1117,12.807946,2,6,9,11,33,-1031
1118,12.819507,3,6,9,9,28,-1021
1119,12.831067,2,6,9,10,27,-1017
1120,12.842655,3,7,9,8,26,-1026
1121,12.854329,3,5,9,12,33,-1027
1122,12.865995,2,7,8,8,32,-1024
1123,12.877646,2,6,8,13,28,-1023
1124,12.889309,2,6,9,9,30,-1015
1125,12.900972,2,6,9,11,30,-1022
1126,12.912637,2,6,9,13,32,-1030
1127,12.92429,2,5,9,13,28,-1022
1128,12.935973,3,5,9,12,27,-1028
1129,12.947619,2,6,9,11,29,-1023
1130,12.959282,2,6,9,13,30,-1021
1131,12.97085,2,6,9,9,30,-1021
1132,12.982444,2,6,9,10,32,-1024
1133,12.994001,2,7,9,8,30,-1027
1134,13.005557,2,6,9,10,33,-1021
1135,13.017099,2,6,9,12,34,-1023
1136,13.028664,2,6,9,10,30,-1021
1137,13.040217,2,6,8,14,32,-1024
1138,13.05177,2,6,9,7,28,-1020
1139,13.06342,2,7,9,10,26,-1023
1140,13.075105,3,6,9,10,35,-1021
1141,13.086764,2,6,9,12,30,-1019
1142,13.098409,2,5,9,11,34,-1019
1143,13.110075,2,6,9,8,30,-1022
1144,13.121746,2,5,9,11,28,-1024
1145,13.133395,2,6,9,8,30,-1019
1146,13.145051,2,6,9,8,31,-1026
1147,13.156726,2,6,9,9,32,-1022
1148,13.16839,2,6,9,15,33,-1027
1149,13.179954,3,6,9,8,30,-1024
1150,13.191566,2,6,9,12,32,-1020
1151,13.203111,2,6,9,13,26,-1026
1152,13.214686,2,6,9,12,33,-1021
1153,13.226236,2,6,9,13,30,-1021
1154,13.237788,2,6,9,8,31,-1017
1155,13.249344,2,6,9,10,30,-1023
1156,13.26095,2,6,9,10,31,-1017
1157,13.272641,2,6,9,13,29,-1020
1158,13.284324,2,5,9,8,31,-1027
1159,13.295998,3,6,9,9,30,-1020
1160,13.307663,2,5,9,9,32,-1025
1161,13.319342,2,6,9,13,28,-1021
1162,13.33099,3,6,8,11,34,-1016
1163,13.342641,1,6,9,12,32,-1019
1164,13.354336,2,6,9,6,34,-1029
1165,13.366002,3,6,9,13,28,-1022
1166,13.377679,2,6,9,14,30,-1025
1167,13.389346,2,6,8,11,32,-1021
1168,13.400992,3,6,10,10,29,-1022
1169,13.412633,2,7,9,16,31,-1021
1170,13.424311,2,6,8,12,30,-1026
1171,13.435998,2,6,9,6,33,-1024
1172,13.447653,2,5,9,5,32,-1025
1173,13.459338,2,6,9,12,31,-1029
1174,13.471015,2,6,9,10,32,-1020
1175,13.482668,2,6,9,8,36,-1024
1176,13.494341,2,6,9,10,31,-1028
1177,13.505989,2,7,9,13,31,-1021
1178,13.517639,2,6,10,12,36,-1023
1179,13.529312,2,6,8,8,31,-1024
1180,13.540966,3,7,9,9,26,-1030
1181,13.552626,2,6,9,12,36,-1022
1182,13.564294,2,6,9,13,29,-1021
1183,13.576011,2,6,9,7,32,-1025
1184,13.587696,2,6,9,12,27,-1027
1185,13.59933,2,5,9,12,31,-1028
1186,13.610985,3,6,9,10,33,-1025
1187,13.622633,2,7,10,10,30,-1019
1188,13.63429,3,6,9,11,28,-1021
1189,13.645953,3,6,8,11,31,-1018
1190,13.657614,3,6,8,12,29,-1022
1191,13.66926,2,6,10,9,35,-1024
1192,13.680918,2,6,8,13,32,-1020
1193,13.692602,2,6,9,8,29,-1019
1194,13.704196,2,6,9,8,31,-1022
1195,13.715801,2,6,9,10,30,-1018
1196,13.72733,2,6,10,8,30,-1021
1197,13.73888,2,7,9,12,29,-1024
1198,13.750434,3,6,9,11,29,-1027
1199,13.761985,2,6,9,9,30,-1016
1200,13.77353,2,6,9,13,27,-1022
1201,13.785088,2,6,10,10,30,-1020
1202,13.796757,1,6,9,7,31,-1018
1203,13.808463,2,6,9,11,30,-1021
1204,13.820112,2,5,9,13,31,-1022
1205,13.831766,2,6,9,14,30,-1020
1206,13.843493,2,6,9,11,31,-1025
1207,13.855138,2,5,9,7,29,-1021
1208,13.866789,2,5,8,9,29,-1028
1209,13.878472,2,6,9,8,31,-1021
1210,13.890134,2,5,9,7,32,-1024
1211,13.901792,3,5,9,14,28,-1030
1212,13.913489,2,6,9,15,31,-1025
1213,13.925147,3,6,9,9,34,-1024
1214,13.936827,2,6,9,10,30,-1028
1215,13.948503,1,6,10,14,33,-1020
1216,13.960222,2,6,9,9,32,-1026
1217,13.971859,2,6,9,10,30,-1021
1218,13.983518,3,6,9,12,25,-1032
1219,13.995193,2,7,9,13,30,-1022
1220,14.006762,2,6,10,13,32,-1029
1221,14.018314,2,7,8,14,27,-1028
1222,14.029889,2,6,9,10,30,-1016
1223,14.041442,2,6,9,10,33,-1023
1224,14.053003,2,7,9,9,30,-1028
1225,14.06455,2,6,8,15,31,-1021
1226,14.076099,2,5,9,12,32,-1031
1227,14.087645,2,6,9,7,31,-1028
1228,14.099242,2,6,10,13,32,-1022
1229,14.110886,2,6,9,9,33,-1021
1230,14.122548,2,6,9,10,33,-1023
1231,14.134206,2,6,9,16,26,-1028
1232,14.145864,2,6,8,7,32,-1024
1233,14.157514,2,7,9,12,30,-1022
1234,14.169165,2,6,9,15,28,-1025
1235,14.180824,3,6,9,11,30,-1019
1236,14.192495,2,6,9,13,28,-1016
1237,14.204184,3,7,9,10,28,-1024
1238,14.215857,2,6,9,11,30,-1018
1239,14.227513,2,6,9,10,29,-1028
1240,14.239179,2,5,8,11,31,-1025
1241,14.250833,2,6,8,10,27,-1023
1242,14.262477,2,6,8,11,31,-1024
1243,14.274129,2,7,8,9,31,-1020
1244,14.285766,3,6,9,12,30,-1019
1245,14.297416,2,5,9,15,32,-1020
1246,14.309117,2,5,9,12,32,-1024
1247,14.320764,2,6,8,10,35,-1023
1248,14.332471,3,6,9,10,32,-1021
1249,14.344113,2,7,9,9,29,-1021
1250,14.35576,2,6,9,11,32,-1027
1251,14.36741,2,7,10,14,35,-1025
1252,14.379083,2,6,9,13,34,-1029
1253,14.390729,3,6,9,12,29,-1025
1254,14.40239,3,6,9,12,29,-1025
1255,14.414135,3,6,9,10,27,-1021
1256,14.42579,2,5,9,11,31,-1023
1257,14.437409,2,6,9,12,28,-1025
1258,14.44897,2,7,8,14,31,-1025
1259,14.460546,2,6,9,10,30,-1025
1260,14.472096,2,6,9,12,31,-1024
1261,14.483649,2,6,9,12,30,-1019
1262,14.4952,2,7,10,12,33,-1016
1263,14.506771,2,6,9,9,29,-1018
1264,14.518331,2,6,9,13,30,-1023
1265,14.529989,2,6,10,9,30,-1027
1266,14.541664,2,6,9,9,33,-1022
1267,14.55334,2,6,9,11,33,-1022
1268,14.564993,2,6,9,9,27,-1024
1269,14.576645,2,6,10,9,29,-1022
1270,14.588319,2,6,9,8,28,-1017
1271,14.599988,2,6,9,9,31,-1027
1272,14.611668,3,6,9,10,31,-1027
1273,14.623345,3,6,9,9,31,-1024
1274,14.635002,2,6,8,12,30,-1023
1275,14.646563,2,6,9,6,34,-1027
1276,14.658148,2,6,9,11,29,-1027
1277,14.669688,2,6,9,13,30,-1028
1278,14.681246,2,6,9,11,31,-1021
1279,14.692794,2,7,9,11,32,-1028
1280,14.704395,2,6,8,14,30,-1025
1281,14.715946,2,6,9,11,29,-1027
1282,14.727508,2,6,8,11,32,-1028
1283,14.739127,2,6,9,7,31,-1020
1284,14.750778,3,5,9,12,29,-1026
1285,14.762436,2,6,9,10,29,-1028
1286,14.774092,2,6,8,7,28,-1027
1287,14.78573,2,6,9,12,28,-1023
1288,14.797371,3,6,9,10,31,-1021
1289,14.809072,3,6,9,10,30,-1027
1290,14.820775,2,6,10,11,31,-1026
1291,14.832571,2,6,9,7,32,-1019
1292,14.844263,2,6,9,4,32,-1024
1293,14.855815,2,6,9,9,30,-1019
1294,14.867396,2,6,8,11,32,-1023
1295,14.878941,3,6,9,10,33,-1018
1296,14.890484,2,6,8,10,31,-1021
1297,14.902041,2,7,9,7,26,-1020
1298,14.913584,2,6,9,11,32,-1025
1299,14.925136,2,6,9,10,30,-1023
1300,14.936703,2,6,9,10,28,-1018
1301,14.948376,2,6,9,13,29,-1025
1302,14.960039,2,5,9,10,26,-1029
1303,14.971721,2,6,9,11,34,-1021
1304,14.983397,2,6,9,7,30,-1026
1305,14.995104,3,7,9,9,29,-1022
1306,15.006795,3,6,9,12,31,-1020
1307,15.018459,2,6,9,9,28,-1023
1308,15.030111,2,5,9,11,29,-1025
1309,15.04186,3,6,9,10,29,-1022
1310,15.053531,2,6,9,12,37,-1017
1311,15.065129,3,6,9,5,31,-1025
1312,15.076685,3,6,9,9,33,-1025
1313,15.088235,3,5,9,11,29,-1019
1314,15.099805,3,7,9,9,28,-1025
1315,15.111402,2,6,9,11,32,-1025
1316,15.122952,2,6,9,8,27,-1020
1317,15.134522,2,6,8,8,31,-1026
1318,15.146082,2,5,9,10,30,-1021
1319,15.15771,2,6,8,9,33,-1027
1320,15.169362,2,6,9,9,31,-1024
1321,15.181022,2,6,8,14,34,-1023
1322,15.192705,2,6,9,9,27,-1023
1323,15.204384,3,6,9,14,30,-1028
1324,15.216064,2,5,8,8,30,-1021
1325,15.227728,2,6,9,12,30,-1021
1326,15.239405,3,6,9,17,31,-1023
1327,15.251088,2,6,10,13,30,-1023
1328,15.262741,3,6,9,10,29,-1021
1329,15.274304,2,6,9,11,26,-1024
1330,15.285884,2,6,9,4,28,-1022
1331,15.297435,2,6,9,12,30,-1026
1332,15.309017,2,6,9,14,32,-1023
1333,15.320536,1,5,9,14,30,-1026
1334,15.332127,2,6,9,11,30,-1021
1335,15.343692,2,7,9,10,32,-1013
1336,15.35526,2,6,9,10,33,-1020
1337,15.366896,2,6,9,12,33,-1024
1338,15.378572,2,6,8,13,32,-1026
1339,15.390232,2,7,9,8,30,-1027
1340,15.401874,2,5,9,11,29,-1027
1341,15.413527,2,6,9,6,30,-1026
1342,15.42519,1,6,9,17,32,-1028
1343,15.436902,1,6,8,11,32,-1025
1344,15.448603,1,6,9,10,29,-1016
1345,15.460296,2,7,9,12,27,-1020
1346,15.471966,2,7,9,9,31,-1022
1347,15.483551,2,6,9,8,32,-1025
1348,15.495105,2,6,8,9,33,-1024
1349,15.50665,3,6,9,10,31,-1025
1350,15.518231,2,6,9,11,32,-1024
1351,15.529783,2,6,9,11,32,-1023
1352,15.541355,1,5,9,10,29,-1021
1353,15.552901,2,6,8,11,29,-1021
1354,15.564463,2,6,9,7,26,-1026
1355,15.576112,3,6,9,13,32,-1023
1356,15.587773,2,6,9,11,31,-1018
1357,15.599458,2,6,9,10,32,-1025
1358,15.611116,3,6,9,11,30,-1025
1359,15.622763,2,6,9,9,30,-1029
1360,15.634423,2,6,9,10,32,-1021
1361,15.646083,2,6,8,13,29,-1023
1362,15.65773,2,6,9,10,31,-1019
1363,15.669396,3,7,9,7,25,-1016
1364,15.681074,2,7,9,10,28,-1023
1365,15.692651,1,6,9,12,30,-1022
1366,15.704248,2,6,9,10,30,-1020
1367,15.715817,2,6,8,10,34,-1020
1368,15.727374,2,6,9,11,26,-1025
1369,15.738927,1,6,9,11,28,-1023
1370,15.750505,2,6,9,10,28,-1026
1371,15.762063,2,6,9,13,28,-1024
1372,15.773639,2,6,9,13,26,-1025
1373,15.785256,2,6,10,12,26,-1019
1374,15.796925,3,6,9,9,31,-1023
1375,15.80863,2,7,9,14,29,-1022
1376,15.820343,2,6,10,14,32,-1023
1377,15.832044,2,7,9,11,32,-1028
1378,15.84372,3,6,9,12,27,-1032
1379,15.855425,3,6,9,11,28,-1025
1380,15.867099,2,7,9,7,26,-1021
1381,15.87876,3,6,9,9,34,-1030
1382,15.890428,1,6,10,8,33,-1024
1383,15.902087,2,7,8,9,30,-1019
1384,15.913738,2,6,9,13,30,-1025
1385,15.925389,2,6,9,16,31,-1028
1386,15.937066,2,6,9,12,32,-1017
1387,15.948753,3,6,9,10,33,-1027
1388,15.960424,3,6,10,11,33,-1029
1389,15.972103,2,6,9,8,32,-1024
1390,15.983796,2,6,9,8,30,-1028
1391,15.995487,2,6,9,10,32,-1027
1392,16.007054,3,6,9,12,31,-1021
1393,16.018642,2,6,10,11,33,-1018
1394,16.0302,2,6,9,11,29,-1019
1395,16.041756,2,5,9,12,33,-1022
1396,16.053299,2,6,9,12,32,-1021
1397,16.064856,2,6,8,11,32,-1025
1398,16.076419,2,6,10,9,35,-1021
1399,16.087986,2,6,8,9,34,-1025
1400,16.099601,2,6,10,7,34,-1028
1401,16.111255,2,6,8,10,31,-1026
1402,16.122936,2,6,8,8,30,-1026
1403,16.134579,2,6,9,12,28,-1024
1404,16.146232,2,6,9,12,28,-1018
1405,16.157917,2,6,9,12,32,-1020
1406,16.16957,2,5,9,14,31,-1023
1407,16.18125,1,6,8,6,30,-1037
1408,16.19295,2,6,8,8,28,-1024
1409,16.20462,2,6,9,8,27,-1023
1410,16.216222,2,6,8,10,28,-1019
1411,16.227809,2,6,9,14,28,-1016
1412,16.239329,2,5,9,15,27,-1018
1413,16.250876,1,5,10,11,30,-1029
1414,16.262444,3,6,9,13,34,-1018
1415,16.274007,2,6,9,13,30,-1024
1416,16.285569,3,6,8,9,35,-1019
1417,16.297142,2,7,9,13,27,-1022
1418,16.30884,2,6,9,13,30,-1019
1419,16.320552,3,6,9,9,31,-1024
1420,16.332242,2,6,9,5,27,-1024
1421,16.343914,2,6,9,11,30,-1021
1422,16.355592,2,6,9,11,30,-1025
1423,16.367259,2,6,9,14,28,-1027
1424,16.378915,2,6,9,14,29,-1019
1425,16.390571,2,6,9,11,37,-1017
1426,16.402241,2,7,9,9,29,-1031
1427,16.41389,2,6,9,11,31,-1027
1428,16.425484,3,6,9,11,30,-1020
1429,16.437038,2,6,9,12,26,-1022
1430,16.448609,2,7,9,11,32,-1028
1431,16.460178,2,5,9,11,30,-1023
1432,16.471751,2,6,9,11,30,-1019
1433,16.483324,2,6,10,12,32,-1022
1434,16.494868,2,6,8,12,27,-1018
1435,16.50643,2,6,8,10,27,-1027
1436,16.518056,3,7,9,8,30,-1021
1437,16.529713,2,6,10,13,30,-1022
1438,16.54138,1,6,8,12,33,-1024
1439,16.55307,2,6,9,8,30,-1029
1440,16.564771,2,6,9,10,30,-1024
1441,16.576431,2,7,8,11,30,-1027
1442,16.588098,2,6,9,9,29,-1020
1443,16.599812,2,6,9,10,32,-1022
1444,16.611504,1,6,10,12,32,-1016
1445,16.623171,2,7,8,8,30,-1017
1446,16.634827,2,6,9,10,30,-1023
1447,16.646491,2,6,9,9,30,-1021
1448,16.658157,3,6,10,11,33,-1025
1449,16.669809,2,6,9,10,30,-1027
1450,16.681459,3,6,9,10,32,-1029
1451,16.693127,3,7,9,11,31,-1026
1452,16.704788,2,7,9,8,31,-1025
1453,16.716473,3,6,9,12,27,-1019
1454,16.72814,2,6,9,10,30,-1019
1455,16.739834,2,6,8,11,28,-1024
1456,16.751484,2,6,8,13,31,-1017
1457,16.763134,2,6,9,11,35,-1019
1458,16.774811,2,6,9,14,22,-1023
1459,16.7865,3,6,9,16,28,-1018
1460,16.798482,4,5,10,9,33,-1020
1461,16.810313,2,7,9,12,30,-1028
1462,16.821976,2,6,9,12,29,-1025
1463,16.833547,2,6,9,11,34,-1022
1464,16.845119,2,6,9,12,29,-1022
1465,16.856702,1,6,9,12,32,-1025
1466,16.868279,2,6,9,8,36,-1018
1467,16.879813,2,6,9,11,29,-1026
1468,16.891372,2,6,8,13,33,-1027
1469,16.902925,2,6,9,11,29,-1027
1470,16.914492,2,6,9,12,27,-1016
1471,16.926159,2,6,9,11,27,-1022
1472,16.937815,1,6,9,13,25,-1024
1473,16.949485,2,5,9,13,32,-1019
1474,16.96115,3,6,9,12,25,-1023
1475,16.972817,3,5,9,12,29,-1019
1476,16.984499,2,6,10,10,28,-1020
1477,16.996167,2,6,9,10,34,-1023
1478,17.007852,3,6,9,10,28,-1024
1479,17.019524,3,6,9,9,33,-1021
1480,17.031189,2,5,9,11,30,-1021
1481,17.042843,2,6,8,12,28,-1028
1482,17.054517,2,6,9,9,30,-1021
1483,17.066165,2,6,9,13,31,-1021
1484,17.077814,2,5,8,12,29,-1024
1485,17.089465,2,6,8,11,28,-1022
1486,17.101137,2,6,9,13,32,-1020
1487,17.112794,2,5,9,10,31,-1030
1488,17.124447,2,6,9,10,33,-1024
1489,17.136161,2,6,9,11,29,-1028
1490,17.147846,2,6,8,10,28,-1025
1491,17.159525,1,7,9,7,30,-1014
1492,17.171178,2,6,8,9,33,-1027
1493,17.182828,2,5,9,10,32,-1020
1494,17.194492,3,6,9,10,30,-1018
1495,17.206154,3,5,9,7,31,-1024
1496,17.217804,2,5,8,13,31,-1025
1497,17.229455,1,7,9,11,28,-1022
1498,17.241154,1,6,9,13,29,-1025
1499,17.25281,1,6,9,13,33,-1017
1500,17.2645,2,6,9,12,31,-1023
1501,17.27616,2,6,9,10,34,-1022
1502,17.287841,2,6,9,11,31,-1016
1503,17.299525,2,6,10,8,34,-1021
1504,17.31119,2,6,9,11,31,-1021
1505,17.322841,2,6,9,15,31,-1020
1506,17.3345,2,6,9,10,28,-1024
1507,17.346163,2,6,9,15,31,-1027
1508,17.357826,2,6,9,12,27,-1020
1509,17.369383,2,6,9,13,30,-1023
1510,17.38095,2,6,9,13,33,-1026
1511,17.392533,2,7,9,11,26,-1022
1512,17.404067,3,6,9,12,26,-1021
1513,17.415621,2,5,9,12,32,-1025
1514,17.427178,3,5,9,13,28,-1023
1515,17.438733,2,6,9,11,32,-1026
1516,17.450284,2,7,9,11,28,-1025
1517,17.461914,2,6,8,8,31,-1027
1518,17.473582,3,6,9,10,29,-1022
1519,17.485257,2,6,9,9,32,-1024
1520,17.49691,3,6,8,8,28,-1023
1521,17.508567,2,5,9,11,29,-1029
1522,17.520247,2,5,8,12,25,-1024
1523,17.531907,2,6,9,14,31,-1026
1524,17.543582,1,6,10,13,34,-1030
1525,17.555236,2,6,9,9,32,-1020
1526,17.566922,2,6,9,10,29,-1024
1527,17.57849,2,6,9,14,34,-1031
1528,17.590033,2,6,10,11,27,-1019
1529,17.601577,1,6,8,7,30,-1022
1530,17.613127,2,6,9,10,26,-1020
1531,17.624702,3,6,10,9,29,-1030
1532,17.636279,2,6,9,13,28,-1012
1533,17.647832,2,6,10,11,29,-1032
1534,17.6594,2,6,9,10,33,-1023
1535,17.671062,2,7,9,13,29,-1026
1536,17.68274,2,6,10,12,32,-1019
1537,17.694393,3,6,10,11,28,-1028
1538,17.706049,3,5,10,8,32,-1023
1539,17.717708,2,6,8,10,30,-1026
1540,17.729362,2,6,9,8,31,-1020
1541,17.741036,2,6,9,9,33,-1022
1542,17.752756,2,6,9,9,30,-1025
1543,17.764466,2,6,9,11,31,-1019
1544,17.776159,2,6,8,10,31,-1027
1545,17.787847,2,6,8,12,31,-1023
1546,17.799575,2,6,9,11,29,-1025
1547,17.81125,2,5,9,7,30,-1023
1548,17.822908,2,6,9,11,30,-1021
1549,17.834564,2,6,8,8,30,-1026
1550,17.84626,3,6,9,12,28,-1019
1551,17.857923,2,6,9,12,30,-1018
1552,17.869589,2,6,9,9,30,-1021
1553,17.881255,2,6,9,13,27,-1023
1554,17.892809,2,6,9,11,32,-1031
1555,17.904361,2,6,10,10,30,-1024
1556,17.915953,3,7,9,13,31,-1027
1557,17.927508,3,6,9,11,26,-1026
1558,17.939083,3,7,9,9,30,-1023
1559,17.950622,2,7,9,14,31,-1020
1560,17.96216,2,6,9,11,33,-1022
1561,17.973722,2,5,9,12,32,-1017
1562,17.98534,2,6,9,10,33,-1022
1563,17.997008,2,7,8,9,27,-1025
1564,18.008642,2,6,9,10,34,-1020
1565,18.020295,2,6,9,15,30,-1030
1566,18.032017,2,6,9,11,32,-1020
1567,18.043666,3,6,10,10,32,-1021
1568,18.055331,2,6,9,11,30,-1025
1569,18.066999,3,6,9,10,30,-1025
1570,18.078662,2,6,9,11,30,-1028
1571,18.090317,2,6,9,8,28,-1024
1572,18.101882,3,6,9,8,30,-1023
1573,18.11346,1,5,9,9,30,-1024
1574,18.125,2,5,9,13,27,-1025
1575,18.136531,2,6,10,9,30,-1020
1576,18.148052,2,6,10,10,34,-1021
1577,18.159571,2,5,8,13,33,-1026
1578,18.171118,2,6,9,13,32,-1018
1579,18.18268,3,5,9,7,34,-1025
1580,18.194308,2,6,9,11,31,-1018
1581,18.20598,2,6,9,11,30,-1032
1582,18.217652,2,6,8,11,33,-1022
1583,18.229299,2,6,9,8,26,-1021
1584,18.240961,2,6,8,15,30,-1024
1585,18.252657,3,6,8,8,32,-1025
1586,18.26431,1,6,9,8,31,-1017
1587,18.275998,1,6,8,8,28,-1020
1588,18.287696,3,6,9,9,29,-1027
1589,18.299346,2,6,9,11,29,-1020
1590,18.310936,2,6,9,11,30,-1017
1591,18.322485,2,5,10,11,33,-1017
1592,18.334053,2,6,9,12,31,-1024
1593,18.345594,2,5,9,15,31,-1025
1594,18.357133,2,5,8,12,28,-1026
1595,18.368698,3,6,8,10,31,-1018
1596,18.380269,2,6,9,10,31,-1024
1597,18.391822,2,7,9,11,32,-1025
1598,18.403487,2,5,9,11,28,-1022
1599,18.415148,2,6,9,8,32,-1020
1600,18.426797,2,6,9,11,30,-1024
1601,18.438441,2,6,9,10,27,-1020
1602,18.450096,2,6,10,13,31,-1020
1603,18.461763,3,6,9,7,26,-1025
1604,18.473405,2,5,8,9,33,-1029
1605,18.485056,2,6,9,14,28,-1023
1606,18.496775,2,6,9,10,27,-1018
1607,18.508435,3,6,9,12,32,-1022
1608,18.520013,2,6,9,14,28,-1022
1609,18.531574,2,6,9,9,30,-1020
1610,18.543127,2,5,8,12,29,-1018
1611,18.554698,2,5,9,13,30,-1019
1612,18.56625,2,6,9,11,32,-1020
1613,18.58027,1,6,9,14,31,-1021
1614,18.591864,2,6,10,11,32,-1022
1615,18.603462,3,6,8,10,31,-1026
1616,18.615005,2,6,9,9,28,-1021
1617,18.626553,2,6,9,14,31,-1026
1618,18.638101,2,6,8,6,33,-1022
1619,18.649644,2,6,9,10,33,-1022
1620,18.661191,3,6,9,14,32,-1028
1621,18.67283,2,6,9,8,32,-1022
1622,18.684426,3,6,8,12,32,-1023
1623,18.695971,2,6,9,14,28,-1027
1624,18.707558,2,6,9,12,28,-1029
1625,18.719215,2,6,9,13,31,-1025
1626,18.730882,2,5,8,10,32,-1022
1627,18.74254,2,6,9,14,31,-1024
1628,18.754185,2,5,10,10,32,-1016
1629,18.765837,2,7,9,9,32,-1020
1630,18.777502,3,7,9,11,32,-1027
1631,18.789199,3,6,9,10,29,-1018
1632,18.800918,2,6,9,7,32,-1027
1633,18.81261,2,6,9,9,32,-1014
1634,18.824271,2,5,9,8,30,-1019
1635,18.835921,2,5,8,11,30,-1028
1636,18.847609,3,5,10,12,32,-1024
1637,18.859262,2,6,9,10,31,-1023
1638,18.870974,2,6,9,10,31,-1028
1639,18.882785,2,5,9,11,28,-1022
1640,18.894477,2,5,8,10,30,-1027
1641,18.906134,2,6,9,12,29,-1029
1642,18.917705,2,6,8,8,29,-1021
1643,18.929256,3,6,9,10,29,-1030
1644,18.940824,3,5,9,7,33,-1028
1645,18.952368,3,6,9,10,33,-1022
1646,18.963934,2,6,9,12,30,-1021
1647,18.975485,2,6,9,11,29,-1025
1648,18.987034,2,7,9,9,29,-1027
1649,18.998579,2,7,9,11,29,-1027
1650,19.01015,2,6,8,10,30,-1025
1651,19.021777,2,6,9,8,34,-1023
1652,19.033437,2,6,9,11,30,-1023
1653,19.045081,2,6,9,12,33,-1019
1654,19.056758,2,6,8,14,29,-1024
1655,19.06841,2,6,9,12,33,-1017
1656,19.080104,3,6,9,13,33,-1027
1657,19.091768,3,5,10,9,31,-1020
1658,19.103418,2,6,9,7,29,-1024
1659,19.115077,2,6,9,14,31,-1021
1660,19.126756,2,6,9,10,30,-1017
1661,19.138332,2,6,9,10,28,-1020
1662,19.14989,2,6,9,12,30,-1023
1663,19.161447,1,7,9,9,32,-1019
1664,19.173059,2,6,9,11,29,-1024
1665,19.184623,2,7,9,11,30,-1023
1666,19.196205,2,7,9,13,30,-1024
1667,19.207752,2,6,9,11,29,-1017
1668,19.219341,2,6,9,8,28,-1023
1669,19.231023,2,6,9,8,30,-1021
1670,19.24268,2,6,9,15,36,-1028
1671,19.254343,2,5,9,11,31,-1021
1672,19.266012,2,6,8,11,29,-1021
1673,19.277658,2,5,9,13,31,-1021
1674,19.289331,2,5,9,13,33,-1018
1675,19.300991,2,6,9,8,31,-1019
1676,19.312628,3,6,8,11,33,-1021
1677,19.324305,3,6,9,8,33,-1018
1678,19.335965,2,6,9,9,31,-1018
1679,19.347521,2,7,9,14,27,-1022
1680,19.359065,2,6,8,15,28,-1019
1681,19.370621,2,6,10,11,31,-1021
1682,19.382189,3,5,10,13,31,-1022
1683,19.393741,3,6,9,13,31,-1026
1684,19.405309,3,5,9,12,29,-1019
1685,19.41685,2,6,9,8,32,-1026
1686,19.428434,2,6,9,10,31,-1023
1687,19.440054,2,6,8,8,31,-1023
1688,19.451721,2,7,9,9,31,-1023
1689,19.463383,2,6,9,11,29,-1026
1690,19.475035,1,5,9,12,28,-1023
1691,19.486676,2,6,9,10,29,-1025
1692,19.498323,2,6,9,10,31,-1022
1693,19.509993,2,6,8,10,33,-1025
1694,19.521654,2,7,10,13,30,-1020
1695,19.533327,2,6,9,14,28,-1015
1696,19.545014,3,7,9,7,33,-1020
1697,19.556567,2,6,9,11,32,-1027
1698,19.568114,2,6,9,11,29,-1020
1699,19.579686,2,6,9,10,35,-1024
1700,19.591232,2,6,9,11,32,-1029
1701,19.602776,3,6,9,12,28,-1017
1702,19.614324,2,6,8,9,32,-1021
1703,19.625906,2,6,8,8,30,-1027
1704,19.637467,2,6,9,14,27,-1018
1705,19.649113,3,6,9,9,28,-1019
1706,19.660779,3,6,9,9,33,-1024
1707,19.67243,2,6,9,12,31,-1023
1708,19.684108,2,6,10,9,29,-1022
1709,19.695773,2,7,9,11,29,-1019
1710,19.707452,2,7,9,15,30,-1019
1711,19.719116,3,6,9,12,30,-1022
1712,19.730767,2,6,9,8,30,-1028
1713,19.742426,2,6,9,9,29,-1027
1714,19.754119,2,5,9,14,30,-1027
1715,19.76569,2,7,9,9,30,-1019
1716,19.777268,2,7,9,12,32,-1017
1717,19.788823,3,6,10,11,31,-1024
1718,19.800377,2,5,9,9,31,-1021
1719,19.811945,1,5,9,14,32,-1025
1720,19.8235,2,6,9,10,32,-1027
1721,19.835049,2,6,9,11,30,-1028
1722,19.846612,1,7,8,10,29,-1018
1723,19.858237,2,6,8,13,34,-1021
1724,19.869894,2,6,9,10,29,-1025
1725,19.881573,2,6,9,7,32,-1025
1726,19.893246,2,6,9,12,27,-1029
1727,19.904901,2,6,9,13,29,-1020
1728,19.916637,2,6,9,11,31,-1024
1729,19.928305,2,6,10,13,28,-1018
1730,19.939996,3,6,9,10,29,-1024
1731,19.951667,2,6,10,12,30,-1018
1732,19.963328,3,6,9,9,29,-1026
1733,19.974923,2,6,9,11,29,-1022
1734,19.986472,2,6,9,9,29,-1027
1735,19.99805,2,6,9,12,32,-1021
1736,20.009588,2,6,8,10,31,-1023
1737,20.021141,2,6,10,12,29,-1022
1738,20.032697,2,6,9,13,32,-1020
1739,20.044246,2,6,8,11,34,-1022
1740,20.055814,2,6,10,11,31,-1027
1741,20.067518,1,5,9,11,34,-1020
1742,20.079161,2,6,8,11,31,-1021
1743,20.09081,2,6,9,11,28,-1024
1744,20.102477,2,6,9,11,28,-1020
1745,20.11412,2,6,9,11,36,-1021
1746,20.125768,2,7,9,12,30,-1021
1747,20.137426,2,6,9,10,32,-1019
1748,20.149089,2,6,9,13,29,-1023
1749,20.160765,1,6,9,16,35,-1017
1750,20.172445,2,6,9,8,28,-1029
1751,20.18411,2,5,9,14,34,-1023
1752,20.195765,2,6,9,10,29,-1025
1753,20.207445,2,6,9,9,34,-1023
1754,20.219098,2,6,9,13,31,-1029
1755,20.230745,3,6,9,11,32,-1021
1756,20.242393,2,5,9,11,29,-1024
1757,20.254056,2,5,9,11,30,-1025
1758,20.265756,2,6,8,12,31,-1026
1759,20.277423,3,7,9,12,31,-1023
1760,20.289102,2,7,9,12,31,-1023
1761,20.30076,2,6,9,10,30,-1018
1762,20.312435,2,6,9,11,29,-1024
1763,20.32411,3,5,9,13,30,-1028
1764,20.335767,2,6,9,9,30,-1024
1765,20.347412,2,6,8,16,29,-1019
1766,20.359057,2,6,8,9,27,-1019
1767,20.370754,2,6,8,9,29,-1019
1768,20.382402,2,6,8,13,30,-1017
1769,20.394048,3,6,8,8,31,-1024
1770,20.405721,3,6,9,10,33,-1023
1771,20.417365,2,6,10,11,27,-1012
1772,20.429008,2,5,9,14,28,-1029
1773,20.440624,2,5,9,10,32,-1022
1774,20.452289,2,6,9,11,35,-1019
1775,20.463934,2,6,9,10,28,-1020
1776,20.475617,2,6,8,10,34,-1019
1777,20.487273,2,5,9,11,30,-1023
1778,20.498835,2,6,9,5,32,-1020
1779,20.510424,2,6,9,10,30,-1020
1780,20.52197,2,6,9,10,32,-1024
1781,20.533513,2,5,9,10,31,-1026
1782,20.545078,2,5,9,8,28,-1024
1783,20.556676,2,6,9,12,31,-1024
1784,20.568229,2,6,8,10,34,-1020
1785,20.579824,2,6,9,8,29,-1017
1786,20.59148,2,6,9,11,30,-1019
1787,20.603133,2,6,8,11,30,-1017
1788,20.6148,3,6,9,13,29,-1020
1789,20.626485,3,6,9,12,35,-1020
1790,20.638136,2,6,9,6,28,-1024
1791,20.649794,2,6,9,11,31,-1024
1792,20.661461,3,6,9,8,33,-1020
1793,20.673105,2,6,9,6,29,-1025
1794,20.68477,2,6,8,10,30,-1024
1795,20.696426,2,6,9,9,29,-1018
1796,20.708103,2,6,9,11,31,-1019
1797,20.719761,2,6,9,11,31,-1020
1798,20.731408,2,6,9,8,31,-1024
1799,20.743056,2,7,9,10,27,-1017
1800,20.754719,2,8,9,12,30,-1028
1801,20.766382,2,6,8,6,29,-1024
1802,20.778037,2,6,9,10,27,-1020
1803,20.789723,2,6,9,8,29,-1020
1804,20.801369,3,6,8,13,33,-1027
1805,20.813014,2,6,9,11,30,-1018
1806,20.824695,2,6,9,10,34,-1023
1807,20.836369,2,6,9,13,29,-1026
1808,20.848035,2,6,9,11,29,-1026
1809,20.859722,2,6,9,10,31,-1021
1810,20.87138,2,6,9,11,30,-1031
1811,20.883021,2,6,9,12,30,-1015
1812,20.894709,2,6,9,9,31,-1021
1813,20.90638,2,6,9,11,27,-1024
1814,20.917946,2,6,10,11,33,-1021
1815,20.929491,3,5,9,12,30,-1025
1816,20.941036,3,6,9,10,29,-1026
1817,20.952595,2,6,9,8,30,-1026
1818,20.964176,2,6,9,7,31,-1024
1819,20.975743,2,5,9,8,33,-1021
1820,20.987319,3,6,9,7,28,-1024
1821,20.998884,2,6,9,10,30,-1020
1822,21.01055,2,5,9,10,33,-1022
1823,21.022248,2,6,9,12,31,-1020
1824,21.03392,2,6,9,10,30,-1024
1825,21.045599,1,6,9,8,27,-1016
1826,21.057245,2,6,9,8,34,-1026
1827,21.0689,3,6,9,9,33,-1022
1828,21.080586,2,6,9,9,27,-1026
1829,21.092245,2,6,10,7,32,-1021
1830,21.103925,2,6,9,10,27,-1027
1831,21.115591,1,6,9,13,29,-1021
1832,21.127149,2,5,9,13,26,-1018
1833,21.138705,2,6,8,14,28,-1019
1834,21.150297,3,6,9,10,29,-1021
1835,21.161844,3,6,9,14,31,-1020
1836,21.173404,2,6,9,9,29,-1022
1837,21.184941,2,6,10,12,29,-1028
1838,21.19652,2,6,9,8,31,-1024
1839,21.208066,2,6,9,8,31,-1027
1840,21.219707,3,6,9,9,32,-1018
1841,21.231342,2,5,9,9,27,-1020
1842,21.242995,3,5,9,14,31,-1023
1843,21.254662,3,5,9,14,32,-1021
1844,21.266346,2,6,9,10,29,-1026
1845,21.278001,2,6,9,10,28,-1020
1846,21.289667,2,6,9,6,31,-1016
1847,21.301327,2,6,10,9,29,-1022
1848,21.312994,2,6,9,9,32,-1024
1849,21.324655,2,6,9,10,30,-1023
1850,21.336227,2,6,9,10,32,-1021
1851,21.347803,2,7,9,10,30,-1024
1852,21.3594,1,6,9,12,29,-1027
1853,21.371066,2,7,9,12,29,-1023
1854,21.38266,3,6,10,6,29,-1030
1855,21.394239,3,6,9,13,33,-1019
1856,21.405796,2,6,9,12,30,-1024
1857,21.417383,3,5,9,8,33,-1026
1858,21.428949,2,5,9,8,30,-1024
1859,21.440543,3,6,9,12,33,-1024
1860,21.452132,3,5,9,12,31,-1023
1861,21.463698,2,6,9,9,29,-1024
1862,21.475242,2,6,9,9,27,-1021
1863,21.486793,1,6,9,8,31,-1027
1864,21.498341,2,6,8,10,29,-1027
1865,21.5099,2,6,10,9,31,-1028
1866,21.521535,2,6,9,11,28,-1019
1867,21.53318,2,7,9,8,28,-1030
1868,21.544887,1,6,9,9,34,-1024
1869,21.556581,2,6,9,13,30,-1032
1870,21.56825,2,7,9,12,30,-1026
1871,21.579945,2,6,9,9,31,-1023
1872,21.591602,2,6,9,12,29,-1023
1873,21.60325,2,5,9,12,30,-1021
1874,21.614893,3,6,9,11,28,-1030
1875,21.626559,3,5,8,10,28,-1021
1876,21.638223,3,5,9,10,30,-1022
1877,21.649781,2,6,9,9,30,-1018
1878,21.661328,3,6,10,12,30,-1024
1879,21.672879,2,6,9,12,31,-1032
1880,21.684431,2,6,9,8,29,-1026
1881,21.695978,2,6,9,11,29,-1029
1882,21.707554,2,5,10,13,31,-1020
1883,21.719181,2,5,9,8,32,-1019
1884,21.730859,2,6,8,9,34,-1021
1885,21.742421,2,6,8,12,28,-1023
1886,21.754029,2,6,9,7,30,-1022
1887,21.765584,2,7,9,13,29,-1025
1888,21.777137,3,6,9,13,30,-1038
1889,21.788688,2,6,9,13,30,-1025
1890,21.800234,2,7,9,12,32,-1021
1891,21.811816,2,6,9,11,33,-1020
1892,21.823393,2,6,9,11,26,-1027
1893,21.835016,2,6,8,9,32,-1024
1894,21.846654,2,5,9,12,28,-1024
1895,21.858322,3,7,8,9,31,-1025
1896,21.869975,2,5,8,12,27,-1017
1897,21.881642,2,6,9,11,33,-1026
1898,21.89331,3,6,9,11,28,-1025
1899,21.904966,2,6,9,11,29,-1017
1900,21.916644,3,6,9,8,36,-1021
1901,21.928345,2,6,9,11,30,-1026
1902,21.94002,3,6,9,11,30,-1019
1903,21.951717,2,5,9,15,30,-1022
1904,21.963342,2,5,9,12,27,-1020
1905,21.974989,2,6,9,10,28,-1022
1906,21.986652,2,7,8,11,30,-1024
1907,21.998315,2,5,9,12,31,-1022
1908,22.009963,2,6,9,12,31,-1020
1909,22.021615,3,6,10,11,29,-1025
1910,22.033281,3,6,9,10,28,-1019
1911,22.04497,2,6,9,13,28,-1025
1912,22.056641,3,6,9,10,31,-1020
1913,22.068312,2,6,9,11,34,-1027
1914,22.079981,3,6,9,10,33,-1030
1915,22.091603,2,6,9,8,26,-1030
1916,22.103261,2,6,9,13,30,-1024
1917,22.114933,3,6,10,9,29,-1028
1918,22.126582,3,6,9,11,31,-1025
1919,22.138262,3,6,8,9,29,-1020
1920,22.149972,2,6,10,11,30,-1025
1921,22.161618,3,6,9,13,29,-1025
1922,22.173269,2,6,9,9,37,-1022
1923,22.184943,2,6,9,10,30,-1025
1924,22.196621,2,6,8,7,24,-1019
1925,22.208286,2,6,9,9,30,-1019
1926,22.219975,2,6,9,10,31,-1028
1927,22.231598,2,5,9,12,30,-1024
1928,22.243264,2,5,9,12,26,-1020
1929,22.254946,3,6,9,10,32,-1024
1930,22.266639,2,6,9,8,33,-1022
1931,22.278198,3,6,9,12,27,-1025
1932,22.28975,2,5,10,11,30,-1026
1933,22.301304,2,6,9,9,29,-1026
1934,22.312879,3,6,9,9,31,-1030
1935,22.324435,2,6,9,14,33,-1030
1936,22.336014,2,6,9,14,25,-1023
1937,22.347572,3,6,9,13,35,-1021
1938,22.359128,3,5,9,10,30,-1024
1939,22.370809,2,7,10,12,29,-1022
1940,22.382477,2,6,9,13,32,-1024
1941,22.394161,2,6,9,8,31,-1021
1942,22.405832,3,6,9,12,29,-1023
1943,22.417491,2,7,9,9,34,-1018
1944,22.429166,2,7,9,14,32,-1025
1945,22.440824,2,6,9,13,31,-1023
1946,22.452516,3,6,9,9,30,-1025
1947,22.464191,2,6,9,9,30,-1020
1948,22.475847,2,6,9,8,31,-1019
1949,22.48741,3,7,9,10,30,-1022
1950,22.498998,3,7,9,12,33,-1020
1951,22.510561,2,6,8,14,28,-1019
1952,22.522118,2,6,8,12,29,-1019
1953,22.533665,2,6,8,12,32,-1019
1954,22.545238,1,7,9,9,27,-1027
1955,22.55678,2,6,8,14,25,-1019
1956,22.568381,2,6,9,11,32,-1026
1957,22.580021,2,6,9,11,28,-1018
1958,22.591719,2,6,10,11,29,-1026
1959,22.603385,3,6,9,10,29,-1017
1960,22.615078,3,6,9,13,31,-1019
1961,22.62673,2,6,10,13,30,-1027
1962,22.638408,1,6,9,9,27,-1021
1963,22.650062,2,6,10,10,34,-1023
1964,22.661713,2,8,9,10,29,-1024
1965,22.673364,2,7,9,9,31,-1020
1966,22.684998,2,7,9,13,29,-1020
1967,22.696545,2,7,10,9,31,-1027
1968,22.708139,2,6,9,11,29,-1017
1969,22.719706,2,5,9,12,30,-1025
1970,22.731254,2,6,9,13,29,-1024
1971,22.742845,3,5,9,11,30,-1023
1972,22.754399,3,5,9,13,29,-1021
1973,22.765981,2,6,9,13,33,-1025
1974,22.777539,2,7,8,12,28,-1020
1975,22.789301,2,6,9,15,33,-1023
1976,22.80112,2,6,9,12,31,-1020
1977,22.812804,2,6,9,10,25,-1023
1978,22.8245,2,6,9,11,28,-1022
1979,22.836189,2,6,9,10,30,-1020
1980,22.84786,2,6,9,10,29,-1030
1981,22.85952,3,6,9,8,28,-1023
1982,22.871198,2,7,9,11,28,-1016
1983,22.882959,2,6,9,14,29,-1029
1984,22.894672,2,8,9,9,25,-1019
1985,22.90626,2,6,8,10,34,-1018
1986,22.91781,2,6,9,9,32,-1018
1987,22.929364,3,6,9,12,33,-1019
1988,22.940911,2,6,9,11,29,-1024
1989,22.952465,2,7,9,8,33,-1031
1990,22.964046,2,7,9,11,31,-1024
1991,22.97563,3,6,9,8,30,-1028
1992,22.987183,2,6,9,15,27,-1019
1993,22.998842,2,6,9,10,31,-1022
1994,23.010521,1,6,9,11,30,-1026
1995,23.022178,2,6,9,13,34,-1015
1996,23.033831,2,5,9,10,29,-1023
1997,23.045485,3,6,9,8,26,-1021
1998,23.057131,2,6,9,12,31,-1027
1999,23.068797,2,6,9,9,30,-1027
