sample,t_s,gyro_x,gyro_y,gyro_z,accel_x,accel_y,accel_z
0,1.4e-05,0,0,1,1027,-3,-1543
1,0.01124,1,2,2,1031,1,-1551
2,0.022427,1,1,2,1034,-3,-1545
3,0.03361,0,-1,1,1030,0,-1546
4,0.044795,0,-1,1,1032,3,-1546
5,0.055946,0,-1,2,1030,0,-1550
6,0.067126,-1,0,1,1037,0,-1547
7,0.078312,0,0,1,1033,-1,-1551
8,0.089511,0,0,1,1036,0,-1543
9,0.100711,1,1,0,1033,0,-1544
10,0.1119,0,0,2,1030,0,-1541
11,0.12308,1,0,1,1030,-4,-1548
12,0.134267,0,1,2,1030,-2,-1547
13,0.145452,1,1,1,1029,1,-1541
14,0.156639,1,1,2,1031,2,-1545
15,0.167826,1,0,1,1033,1,-1540
16,0.179007,0,0,2,1032,0,-1545
17,0.190195,0,-1,2,1034,0,-1553
18,0.201379,0,0,1,1033,-1,-1543
19,0.212567,0,0,2,1032,1,-1549
20,0.223767,0,-1,1,1030,3,-1538
21,0.234954,0,-1,1,1034,-1,-1541
22,0.246142,1,0,0,1032,0,-1543
23,0.257327,1,0,0,1032,0,-1541
24,0.268504,0,-1,1,1031,0,-1541
25,0.279696,0,0,1,1031,2,-1548
26,0.290886,0,0,2,1034,2,-1542
27,0.302076,1,0,1,1036,0,-1547
28,0.313262,1,1,1,1036,0,-1544
29,0.32445,1,0,2,1032,0,-1544
30,0.335637,1,0,2,1030,0,-1549
31,0.346821,0,0,1,1032,-1,-1544
32,0.358008,0,1,1,1033,0,-1547
33,0.369192,0,0,1,1034,-1,-1550
34,0.380378,0,0,1,1031,0,-1545
35,0.391575,0,0,1,1031,0,-1549
36,0.402757,-1,1,1,1030,2,-1547
37,0.413944,-1,-1,2,1031,0,-1545
38,0.425124,-1,-1,1,1032,-1,-1538
39,0.436313,0,-1,1,1035,0,-1545
40,0.447499,0,-2,1,1034,0,-1553
41,0.458682,1,0,1,1034,0,-1540
42,0.469865,-1,-1,0,1031,0,-1544
43,0.481056,0,-1,0,1031,0,-1551
44,0.492248,-1,-1,1,1032,2,-1542
45,0.503434,0,0,1,1033,3,-1542
46,0.514619,0,0,1,1029,-2,-1548
47,0.525812,0,0,1,1034,1,-1550
48,0.536995,0,1,1,1032,-4,-1545
49,0.548191,1,0,1,1032,0,-1543
50,0.559374,0,-1,1,1033,1,-1549
51,0.570559,0,0,2,1032,-2,-1548
52,0.581747,0,1,2,1033,0,-1553
53,0.592936,0,-1,2,1032,3,-1541
54,0.604129,0,-1,2,1033,3,-1549
55,0.61531,0,0,1,1033,2,-1544
56,0.626493,-1,0,1,1028,1,-1545
57,0.637674,0,-1,1,1032,-1,-1541
58,0.648857,1,-1,1,1031,-1,-1538
59,0.660053,1,-1,1,1034,-1,-1544
60,0.671235,0,0,0,1034,0,-1544
61,0.682419,0,-1,1,1032,-2,-1544
62,0.693601,0,0,1,1039,-1,-1547
63,0.704784,0,-1,1,1035,0,-1549
64,0.715947,1,0,2,1033,-6,-1543
65,0.727131,0,0,1,1030,0,-1544
66,0.738312,0,-1,1,1035,-1,-1542
67,0.749505,1,-1,0,1034,0,-1547
68,0.760688,0,1,1,1030,0,-1540
69,0.771877,0,0,1,1033,0,-1544
70,0.783057,1,1,0,1030,-2,-1540
71,0.794246,0,0,1,1033,-1,-1543
72,0.805537,-1,1,0,1031,1,-1546
73,0.816822,0,1,0,1032,0,-1545
74,0.828036,1,0,0,1033,0,-1542
75,0.839226,1,-1,2,1035,3,-1540
76,0.85041,0,0,2,1034,-1,-1543
77,0.861603,0,0,2,1029,2,-1550
78,0.87279,1,-1,1,1033,-2,-1545
79,0.883951,0,0,1,1037,-2,-1545
80,0.89514,1,1,1,1029,0,-1542
81,0.906334,1,1,2,1030,2,-1543
82,0.917521,0,0,2,1032,3,-1554
83,0.928709,0,-1,1,1034,-3,-1542
84,0.939907,1,-1,1,1035,0,-1541
85,0.95109,0,0,1,1032,0,-1547
86,0.96228,0,0,1,1036,1,-1543
87,0.973464,1,1,1,1033,0,-1540
88,0.984652,1,0,1,1030,-4,-1548
89,0.995838,0,1,0,1034,0,-1547
90,1.007021,0,1,0,1034,0,-1547
91,1.018208,0,0,1,1029,1,-1546
92,1.029388,1,1,1,1034,2,-1550
93,1.040579,0,0,1,1033,0,-1544
94,1.051763,1,1,1,1031,-2,-1548
95,1.062943,0,2,1,1031,0,-1540
96,1.074126,0,0,1,1027,0,-1542
97,1.085311,0,0,0,1030,0,-1541
98,1.096499,0,0,0,1032,-1,-1542
99,1.107728,1,0,1,1032,-1,-1549
100,1.118913,0,1,1,1033,1,-1546
101,1.130098,0,3,0,1032,-1,-1543
102,1.141282,0,2,1,1029,0,-1545
103,1.152469,0,1,2,1029,-3,-1545
104,1.163654,0,2,0,1034,0,-1542
105,1.174838,1,2,1,1031,1,-1547
106,1.186019,0,1,0,1030,-2,-1549
107,1.197201,1,0,0,1031,1,-1550
108,1.208387,0,1,0,1030,-2,-1547
109,1.219579,0,1,1,1030,0,-1543
110,1.230763,0,2,0,1035,0,-1547
111,1.241946,0,2,1,1037,-7,-1543
112,1.253127,0,1,1,1033,1,-1548
113,1.264316,1,2,0,1034,2,-1544
114,1.275499,1,1,1,1032,2,-1544
115,1.286684,0,1,1,1034,0,-1544
116,1.297868,0,0,1,1034,2,-1547
117,1.309053,1,0,1,1032,0,-1541
118,1.320243,1,0,1,1035,-2,-1539
119,1.331425,1,1,1,1031,0,-1538
120,1.342613,1,1,1,1030,2,-1549
121,1.3538,0,0,1,1032,-3,-1546
122,1.364981,1,1,0,1034,-5,-1547
123,1.376128,0,0,1,1035,0,-1547
124,1.387309,0,2,0,1038,-1,-1547
125,1.398488,0,1,0,1030,0,-1548
126,1.409674,0,1,1,1033,0,-1549
127,1.420854,0,0,1,1033,-1,-1540
128,1.432055,1,0,1,1030,4,-1549
129,1.44324,1,1,0,1032,0,-1542
130,1.454419,0,0,0,1030,-3,-1543
131,1.465602,1,0,1,1031,0,-1546
132,1.476784,0,0,0,1030,-1,-1547
133,1.487943,0,0,1,1033,0,-1539
134,1.499123,0,1,1,1034,1,-1544
135,1.510305,1,0,0,1032,-2,-1546
136,1.521486,0,0,1,1028,-2,-1542
137,1.532681,1,1,1,1032,1,-1542
138,1.54387,1,2,0,1031,1,-1542
139,1.555051,1,2,0,1034,0,-1547
140,1.566232,1,0,0,1032,-1,-1544
141,1.577414,1,0,1,1031,1,-1544
142,1.588615,0,1,1,1033,0,-1547
143,1.59976,0,1,1,1035,-1,-1542
144,1.610943,0,1,1,1033,-3,-1544
145,1.622123,1,1,1,1031,-2,-1551
146,1.633302,1,0,1,1033,-4,-1553
147,1.644496,1,1,1,1034,-1,-1545
148,1.655686,1,1,1,1038,0,-1548
149,1.666867,0,1,1,1033,1,-1542
150,1.678046,0,1,1,1030,0,-1542
151,1.689226,0,1,1,1033,0,-1547
152,1.700418,0,0,1,1030,-1,-1553
153,1.711574,0,0,1,1033,0,-1540
154,1.72276,0,1,1,1033,1,-1542
155,1.733943,1,0,1,1032,0,-1541
156,1.745123,1,1,1,1034,4,-1546
157,1.756313,0,1,1,1034,-1,-1539
158,1.767494,0,0,1,1034,0,-1544
159,1.778675,0,0,1,1034,0,-1544
160,1.789854,0,0,1,1034,0,-1542
161,1.801034,0,-1,2,1035,-1,-1546
162,1.812216,-1,-1,1,1036,0,-1541
163,1.823398,0,-2,2,1031,2,-1543
164,1.834579,0,0,1,1035,1,-1546
165,1.845769,1,0,1,1035,2,-1542
166,1.856952,0,-2,1,1036,2,-1545
167,1.868134,0,0,1,1031,2,-1548
168,1.879346,1,0,2,1035,-1,-1538
169,1.890526,1,1,0,1035,1,-1547
170,1.901714,1,0,1,1033,5,-1540
171,1.912897,2,1,1,1032,-1,-1543
172,1.924086,2,1,1,1032,-1,-1543
173,1.935268,1,1,0,1031,2,-1540
174,1.946452,1,2,1,1033,2,-1537
175,1.957639,1,1,1,1030,-2,-1541
176,1.968823,1,0,0,1033,-2,-1545
177,1.980021,0,0,1,1032,2,-1549
178,1.991203,0,0,2,1032,2,-1545
179,2.002383,0,1,1,1032,-2,-1544
180,2.013567,1,2,1,1034,-3,-1547
181,2.024747,1,1,1,1035,3,-1547
182,2.035946,1,1,0,1031,-1,-1545
183,2.047129,1,0,1,1030,3,-1554
184,2.058314,0,0,1,1029,0,-1545
185,2.069506,0,0,1,1034,3,-1544
186,2.080688,-1,-1,1,1029,2,-1540
187,2.091879,0,0,1,1037,2,-1552
188,2.103062,0,0,1,1036,-4,-1547
189,2.114249,-1,0,1,1035,2,-1543
190,2.12543,0,0,1,1035,0,-1548
191,2.136618,0,-2,1,1031,0,-1542
192,2.147759,0,0,1,1036,5,-1548
193,2.158941,1,-2,1,1031,-1,-1545
194,2.170121,0,0,1,1035,3,-1540
195,2.181301,1,1,0,1033,3,-1547
196,2.192498,0,0,0,1029,2,-1549
197,2.203687,0,-1,1,1032,3,-1537
198,2.214867,0,0,1,1031,0,-1541
199,2.226064,0,1,2,1033,3,-1544
200,2.237244,0,-1,1,1030,1,-1548
201,2.248432,0,-1,1,1035,0,-1543
202,2.259582,0,-1,1,1033,-1,-1553
203,2.270767,0,-1,1,1032,0,-1541
204,2.28195,0,-2,1,1032,0,-1541
205,2.29313,0,-1,1,1035,0,-1550
206,2.304314,0,-1,2,1034,0,-1548
207,2.315495,0,0,2,1029,3,-1550
208,2.326675,0,0,1,1026,-3,-1541
209,2.337865,1,1,1,1031,0,-1546
210,2.349046,0,1,1,1030,-2,-1555
211,2.360239,0,1,1,1036,0,-1547
212,2.371419,0,0,2,1034,0,-1549
213,2.382599,0,-1,2,1036,-1,-1541
214,2.393784,1,1,1,1030,1,-1548
215,2.404968,1,2,1,1032,0,-1545
216,2.416128,1,1,1,1038,0,-1543
217,2.427307,0,0,1,1036,0,-1542
218,2.438488,0,0,1,1033,-4,-1543
219,2.449678,1,1,1,1029,0,-1544
220,2.460859,0,0,1,1032,0,-1544
221,2.472055,0,0,0,1033,-2,-1543
222,2.483234,0,0,0,1032,0,-1542
223,2.494415,1,0,2,1034,0,-1548
224,2.505596,0,1,1,1035,-3,-1544
225,2.516775,0,1,2,1032,1,-1545
226,2.527955,0,0,2,1031,-1,-1544
227,2.539139,0,0,1,1032,2,-1547
228,2.550334,1,1,0,1030,-2,-1548
229,2.561519,1,1,1,1034,3,-1541
230,2.572708,1,2,1,1032,3,-1545
231,2.583903,1,0,2,1033,2,-1542
232,2.595082,0,0,1,1036,0,-1549
233,2.606269,1,1,2,1030,0,-1547
234,2.617454,0,1,1,1034,4,-1537
235,2.628638,0,0,1,1030,-3,-1550
236,2.639832,1,1,1,1031,0,-1547
237,2.651015,1,1,1,1033,0,-1538
238,2.662202,-1,0,1,1030,1,-1551
239,2.673384,0,-1,1,1032,0,-1549
240,2.684576,0,-1,2,1035,0,-1546
241,2.695763,0,-1,2,1030,-2,-1543
242,2.706947,0,-1,0,1035,3,-1547
243,2.718135,0,-2,1,1036,-3,-1546
244,2.729317,0,-1,0,1030,2,-1553
245,2.740504,0,-1,0,1031,-3,-1549
246,2.751687,0,0,1,1035,3,-1544
247,2.762874,0,0,0,1030,2,-1548
248,2.774054,0,-1,1,1034,0,-1539
249,2.785238,0,-1,1,1032,2,-1542
250,2.796446,0,0,2,1033,1,-1546
251,2.80765,1,0,2,1030,-1,-1545
252,2.818835,0,0,1,1032,1,-1551
253,2.830017,1,-1,1,1030,0,-1542
254,2.841199,1,0,0,1033,2,-1544
255,2.852383,0,-1,1,1033,-4,-1545
256,2.863574,1,-1,1,1034,0,-1546
257,2.874764,0,0,1,1032,-3,-1544
258,2.885948,0,0,0,1034,0,-1548
259,2.897129,0,0,1,1030,0,-1544
260,2.908331,0,1,1,1036,2,-1550
261,2.91951,0,2,1,1029,-3,-1546
262,2.930692,1,0,1,1031,0,-1538
263,2.941885,0,-1,1,1031,-1,-1546
264,2.953065,1,-1,1,1035,-2,-1546
265,2.964249,0,1,1,1036,-1,-1545
266,2.975428,1,1,0,1031,-1,-1544
267,2.986609,0,-1,0,1035,1,-1544
268,2.99779,0,0,1,1030,4,-1545
269,3.008978,1,-1,2,1030,0,-1549
270,3.020128,1,0,2,1030,-2,-1542
271,3.031309,0,-1,1,1036,1,-1547
272,3.042493,-1,-1,2,1035,-1,-1546
273,3.053684,0,-2,1,1031,-4,-1547
274,3.064865,0,-1,0,1028,2,-1547
275,3.076057,0,0,1,1035,-1,-1539
276,3.087241,0,0,0,1033,-5,-1546
277,3.098424,0,0,1,1033,6,-1540
278,3.109614,0,0,1,1031,-3,-1552
279,3.120797,0,0,1,1033,0,-1541
280,3.131947,0,0,1,1036,-2,-1557
281,3.143129,0,-1,1,1033,1,-1547
282,3.154312,0,-1,0,1035,0,-1540
283,3.165511,0,0,1,1038,0,-1546
284,3.176697,1,0,0,1032,0,-1545
285,3.18788,0,1,0,1035,1,-1550
286,3.199061,0,1,0,1031,-1,-1550
287,3.21024,0,0,1,1030,1,-1545
288,3.221418,1,-1,0,1033,-2,-1543
289,3.232613,1,0,1,1030,-3,-1547
290,3.24376,0,0,0,1029,0,-1541
291,3.254939,0,0,1,1029,0,-1540
292,3.266131,0,0,1,1034,-2,-1543
293,3.277312,1,0,0,1032,-1,-1546
294,3.288504,0,0,1,1034,0,-1550
295,3.299698,1,0,1,1032,1,-1552
296,3.310887,1,1,1,1032,3,-1548
297,3.322072,0,1,1,1034,3,-1549
298,3.333255,0,0,1,1030,-1,-1547
299,3.344442,0,0,1,1032,-1,-1548
300,3.355625,0,1,1,1031,-5,-1543
301,3.366806,1,2,1,1032,-1,-1540
302,3.377987,0,1,1,1037,-1,-1542
303,3.389169,0,0,1,1034,-1,-1546
304,3.400313,0,-1,0,1035,4,-1544
305,3.411497,0,-1,0,1034,-2,-1542
306,3.422676,0,-1,1,1033,1,-1542
307,3.433858,0,-1,2,1037,2,-1546
308,3.445042,0,0,1,1033,2,-1548
309,3.456242,0,0,0,1032,0,-1544
310,3.467425,0,0,0,1034,0,-1539
311,3.478607,0,-1,0,1034,0,-1543
312,3.489788,0,-1,0,1032,0,-1548
313,3.500971,0,-1,1,1033,-1,-1543
314,3.512137,0,-1,0,1031,0,-1544
315,3.52332,1,2,1,1030,-2,-1547
316,3.534503,1,1,1,1034,-1,-1549
317,3.545699,1,0,1,1031,-2,-1545
318,3.556882,0,0,1,1031,-2,-1542
319,3.568077,0,0,1,1034,2,-1543
320,3.579259,0,0,1,1031,1,-1545
321,3.590446,0,1,1,1036,0,-1547
322,3.601629,1,1,1,1033,3,-1544
323,3.612814,0,0,2,1031,-1,-1550
324,3.624011,0,0,1,1033,0,-1550
325,3.635191,0,-2,1,1035,1,-1548
326,3.646374,0,0,0,1033,0,-1543
327,3.657566,0,0,0,1032,0,-1544
328,3.668747,0,-1,1,1032,3,-1548
329,3.679944,0,0,1,1034,4,-1545
330,3.691131,1,0,1,1034,-1,-1548
331,3.702315,1,1,2,1036,4,-1546
332,3.713504,0,0,1,1033,4,-1549
333,3.724688,1,1,1,1030,1,-1547
334,3.735876,2,1,1,1030,0,-1548
335,3.747059,0,1,0,1031,1,-1546
336,3.758242,0,1,0,1031,1,-1542
337,3.769429,0,0,1,1035,0,-1546
338,3.780621,0,1,1,1030,2,-1546
339,3.791807,1,2,1,1031,2,-1548
340,3.802988,0,2,1,1032,-2,-1544
341,3.814174,1,1,1,1034,0,-1554
342,3.82536,0,1,1,1033,-1,-1544
343,3.836545,0,1,1,1033,4,-1544
344,3.847749,1,1,1,1031,2,-1547
345,3.858931,0,0,1,1034,1,-1544
346,3.870117,0,-2,1,1032,-1,-1548
347,3.881299,0,0,1,1033,0,-1547
348,3.892575,0,0,1,1030,1,-1548
349,3.903761,1,1,1,1034,-2,-1549
350,3.914946,1,1,1,1030,2,-1545
351,3.926128,1,0,1,1032,-3,-1553
352,3.93731,0,0,2,1035,-2,-1548
353,3.948511,1,0,1,1034,4,-1550
354,3.960051,0,-1,0,1035,1,-1543
355,3.971706,0,-1,1,1037,2,-1540
356,3.983384,0,1,1,1035,0,-1549
357,3.995035,0,0,0,1031,1,-1543
358,4.006672,0,0,2,1034,0,-1543
359,4.018368,0,0,1,1032,0,-1545
360,4.03002,0,2,1,1034,0,-1549
361,4.041653,0,0,1,1030,0,-1547
362,4.053318,0,0,1,1032,4,-1545
363,4.065011,0,1,1,1033,4,-1547
364,4.076574,0,0,1,1033,0,-1544
365,4.08809,-1,0,1,1034,0,-1550
366,4.099615,0,0,1,1035,-2,-1545
367,4.11116,0,0,0,1031,-5,-1543
368,4.122709,0,0,1,1031,4,-1544
369,4.134253,0,0,1,1028,0,-1548
370,4.145815,1,-1,1,1037,-2,-1546
371,4.157404,0,0,1,1032,1,-1540
372,4.169044,0,1,0,1033,-2,-1545
373,4.180748,0,1,0,1033,0,-1540
374,4.192396,0,1,2,1033,1,-1548
375,4.20408,0,1,2,1034,3,-1539
376,4.215752,0,0,0,1032,2,-1541
377,4.227406,1,0,0,1034,-2,-1542
378,4.239072,0,0,0,1032,0,-1549
379,4.250724,1,0,-1,1032,1,-1545
380,4.262389,1,1,0,1028,0,-1547
381,4.274056,0,1,0,1034,3,-1549
382,4.285709,1,0,1,1028,0,-1549
383,4.297361,0,0,1,1032,0,-1544
384,4.309055,1,0,1,1035,-1,-1542
385,4.320721,0,0,0,1034,0,-1544
386,4.332406,1,0,1,1033,0,-1539
387,4.344083,0,0,1,1036,-3,-1545
388,4.355769,0,0,0,1029,0,-1546
389,4.367478,0,1,1,1033,1,-1545
390,4.379121,0,-1,1,1032,0,-1548
391,4.390793,0,0,1,1031,0,-1548
392,4.402473,0,0,1,1033,0,-1544
393,4.414116,1,0,0,1031,2,-1543
394,4.425767,0,0,1,1030,-1,-1548
395,4.437437,1,0,1,1033,-1,-1550
396,4.449108,1,0,1,1036,0,-1547
397,4.460798,1,0,1,1032,2,-1550
398,4.472527,0,-1,1,1033,0,-1544
399,4.484215,0,0,1,1034,3,-1538
400,4.495801,0,0,1,1031,0,-1540
401,4.507353,0,0,1,1032,0,-1546
402,4.518908,0,0,1,1033,1,-1547
403,4.530459,1,0,1,1036,0,-1547
404,4.542029,0,0,2,1034,0,-1544
405,4.5536,0,0,0,1031,-2,-1544
406,4.565161,1,0,1,1031,1,-1546
407,4.576742,0,0,1,1035,-2,-1540
408,4.588386,1,0,0,1036,3,-1544
409,4.600076,0,1,1,1033,4,-1548
410,4.61175,1,0,1,1034,-1,-1546
411,4.623418,1,-1,1,1033,-3,-1548
412,4.635071,1,0,0,1032,-2,-1549
413,4.64672,0,0,0,1033,-2,-1546
414,4.658374,0,-1,0,1034,0,-1545
415,4.670044,1,0,2,1029,-2,-1539
416,4.681703,1,0,1,1033,0,-1543
417,4.693359,1,0,2,1028,2,-1542
418,4.704948,-1,0,0,1033,-1,-1548
419,4.716523,0,0,1,1032,0,-1548
420,4.728154,0,0,1,1032,-1,-1547
421,4.739737,0,0,2,1030,4,-1546
422,4.751287,0,0,0,1034,3,-1544
423,4.762854,0,1,0,1031,1,-1544
424,4.774404,0,0,0,1033,3,-1544
425,4.785965,0,0,1,1036,0,-1540
426,4.797601,1,1,1,1034,0,-1547
427,4.809273,0,1,1,1032,0,-1550
428,4.820916,0,0,1,1035,-3,-1545
429,4.832583,0,0,2,1035,0,-1547
430,4.844272,-1,0,1,1032,-2,-1547
431,4.855933,1,0,1,1032,1,-1548
432,4.867612,-1,0,0,1029,0,-1550
433,4.87928,0,1,1,1029,2,-1547
434,4.890953,1,0,1,1034,0,-1547
435,4.902639,0,0,1,1036,-1,-1541
436,4.914198,1,-1,1,1034,-2,-1546
437,4.925769,0,0,1,1035,0,-1544
438,4.937316,1,0,1,1033,0,-1543
439,4.948866,0,0,1,1032,1,-1543
440,4.960414,0,0,1,1039,-4,-1547
441,4.971983,1,0,1,1035,2,-1546
442,4.983528,0,1,1,1034,2,-1546
443,4.995089,1,0,1,1034,0,-1548
444,5.006705,1,0,1,1031,3,-1540
445,5.018354,1,0,1,1036,1,-1542
446,5.030032,0,1,1,1032,3,-1550
447,5.041671,0,0,1,1032,-2,-1547
448,5.053322,1,-1,1,1033,0,-1549
449,5.064988,1,-1,0,1034,-4,-1547
450,5.076656,0,0,0,1031,0,-1543
451,5.088317,0,0,1,1034,0,-1547
452,5.100036,0,0,0,1032,0,-1546
453,5.111699,0,0,2,1031,2,-1546
454,5.123267,1,0,1,1034,2,-1545
455,5.13482,0,-1,1,1036,0,-1541
456,5.146374,0,0,0,1032,-4,-1550
457,5.157926,1,0,1,1034,1,-1544
458,5.169487,0,0,1,1034,5,-1542
459,5.181103,0,0,1,1034,-2,-1541
460,5.192657,0,0,0,1033,-1,-1551
461,5.204297,0,0,2,1031,0,-1539
462,5.215928,0,0,1,1030,-1,-1544
463,5.227629,0,0,1,1032,3,-1542
464,5.239285,0,0,1,1034,2,-1543
465,5.250939,0,0,1,1033,-1,-1540
466,5.262615,1,1,1,1034,-2,-1540
467,5.274275,0,0,0,1033,0,-1545
468,5.285922,0,0,0,1031,0,-1545
469,5.297577,1,0,1,1029,2,-1543
470,5.309234,0,0,0,1032,0,-1543
471,5.320907,1,0,0,1028,-4,-1550
472,5.332482,1,0,1,1031,0,-1545
473,5.34403,0,0,1,1033,4,-1547
474,5.355601,0,0,1,1033,-1,-1554
475,5.367143,0,-1,1,1033,-2,-1550
476,5.378702,0,0,1,1034,1,-1542
477,5.390252,0,0,1,1032,0,-1545
478,5.40185,0,0,1,1035,0,-1539
479,5.413414,0,1,1,1033,2,-1543
480,5.425073,0,0,2,1029,3,-1541
481,5.436774,0,0,1,1034,2,-1546
482,5.448437,0,1,1,1031,1,-1544
483,5.460147,0,1,1,1033,-2,-1548
484,5.471806,0,-1,1,1035,2,-1544
485,5.48348,0,0,1,1035,1,-1543
486,5.495154,0,0,1,1034,-3,-1545
487,5.506803,1,0,1,1030,-3,-1540
488,5.518464,1,0,0,1033,0,-1543
489,5.53001,0,0,1,1029,0,-1545
490,5.541532,0,0,1,1030,-3,-1544
491,5.553084,0,0,1,1033,0,-1545
492,5.564651,1,0,1,1032,-2,-1543
493,5.57622,0,0,0,1035,0,-1542
494,5.587789,0,0,0,1032,3,-1543
495,5.599333,0,0,1,1034,-2,-1543
496,5.610878,0,-1,2,1029,0,-1544
497,5.622446,0,-1,1,1032,0,-1544
498,5.634066,1,-1,1,1030,-4,-1541
499,5.645726,0,0,1,1034,0,-1546
500,5.657382,0,0,2,1030,0,-1543
501,5.669042,0,-1,1,1033,-3,-1542
502,5.680694,1,0,1,1029,-4,-1540
503,5.692379,0,0,1,1031,0,-1546
504,5.704039,0,0,1,1030,2,-1548
505,5.71569,0,0,0,1030,-2,-1543
506,5.727353,0,0,1,1033,1,-1539
507,5.739013,0,0,0,1035,-1,-1541
508,5.750581,0,0,1,1032,0,-1548
509,5.76213,0,1,1,1034,1,-1549
510,5.773694,0,0,1,1035,-1,-1544
511,5.78525,0,0,0,1033,0,-1544
512,5.796821,1,0,1,1031,0,-1547
513,5.808377,1,-1,1,1032,-3,-1550
514,5.819962,0,0,1,1033,-3,-1551
515,5.831537,0,0,1,1029,-1,-1544
516,5.843154,0,0,1,1025,1,-1541
517,5.854802,0,0,1,1029,-5,-1544
518,5.866496,0,0,1,1032,-4,-1553
519,5.878156,-1,0,1,1030,0,-1542
520,5.889813,0,0,1,1031,0,-1548
521,5.901482,0,1,1,1032,1,-1541
522,5.913175,1,0,1,1036,0,-1548
523,5.924833,1,0,1,1031,-2,-1543
524,5.936529,0,1,1,1031,0,-1550
525,5.948245,0,0,0,1031,4,-1541
526,5.959833,0,0,0,1033,2,-1546
527,5.971382,1,0,1,1029,0,-1545
528,5.98293,0,0,1,1033,-2,-1546
529,5.994474,0,0,1,1034,-1,-1550
530,6.006024,0,0,1,1036,1,-1544
531,6.017574,0,0,1,1032,2,-1541
532,6.029119,0,0,2,1032,1,-1546
533,6.040699,1,0,1,1031,-1,-1549
534,6.052379,0,0,1,1031,3,-1532
535,6.06406,0,0,1,1034,0,-1546
536,6.075746,0,0,1,1035,-2,-1551
537,6.087398,0,0,1,1033,2,-1551
538,6.099074,0,0,1,1033,0,-1541
539,6.110728,0,0,1,1032,-1,-1543
540,6.122383,0,0,1,1034,-2,-1547
541,6.13407,0,0,1,1030,0,-1540
542,6.145719,0,0,1,1033,0,-1544
543,6.157294,0,0,1,1035,0,-1546
544,6.168825,1,-1,1,1031,0,-1542
545,6.180412,0,1,1,1031,1,-1547
546,6.191974,1,0,1,1028,-1,-1540
547,6.203548,0,0,1,1032,3,-1551
548,6.215092,0,0,1,1028,0,-1542
549,6.226644,1,1,1,1030,-3,-1551
550,6.238225,1,0,1,1032,2,-1549
551,6.249851,0,1,1,1032,-1,-1549
552,6.261526,0,0,1,1030,-5,-1547
553,6.273173,1,1,1,1035,-1,-1539
554,6.284883,0,0,1,1033,-1,-1544
555,6.296555,1,1,1,1036,0,-1546
556,6.308212,0,1,2,1028,-1,-1537
557,6.319887,0,0,0,1031,2,-1544
558,6.331536,0,1,0,1033,0,-1545
559,6.343201,1,0,0,1030,-2,-1547
560,6.354864,0,0,1,1030,-2,-1538
561,6.366429,0,0,1,1031,-2,-1543
562,6.378016,1,0,1,1028,1,-1543
563,6.389566,0,0,0,1029,0,-1548
564,6.401109,1,0,0,1035,-1,-1544
565,6.412689,0,1,1,1033,2,-1545
566,6.42425,0,0,1,1029,0,-1543
567,6.435798,0,0,1,1029,3,-1548
568,6.447382,1,0,1,1034,0,-1545
569,6.459005,1,-1,1,1031,1,-1558
570,6.47068,1,0,2,1032,1,-1547
571,6.482327,0,0,1,1033,-2,-1546
572,6.493977,0,0,1,1032,-1,-1543
573,6.50562,0,0,1,1036,3,-1537
574,6.517267,0,0,1,1032,1,-1543
575,6.528927,1,0,1,1032,0,-1546
576,6.540579,0,0,1,1031,0,-1545
577,6.552276,0,0,0,1031,0,-1548
578,6.563933,1,0,1,1034,1,-1549
579,6.575518,0,1,1,1035,-4,-1546
580,6.587067,0,0,1,1032,-1,-1548
581,6.598619,1,1,1,1033,0,-1546
582,6.610187,0,0,1,1030,-1,-1543
583,6.621774,1,0,1,1033,0,-1544
584,6.63334,0,0,1,1033,-1,-1541
585,6.644888,0,0,1,1031,0,-1541
586,6.656461,0,0,0,1034,3,-1542
587,6.668085,0,-1,1,1030,0,-1550
588,6.679758,0,0,1,1034,0,-1542
589,6.691425,0,-1,1,1032,0,-1543
590,6.703086,0,-1,2,1032,-2,-1541
591,6.714731,0,0,0,1030,0,-1547
592,6.726417,0,-1,1,1031,-1,-1548
593,6.738084,0,0,0,1032,1,-1547
594,6.74974,0,-1,0,1034,0,-1542
595,6.761424,1,-1,1,1032,2,-1546
596,6.773113,1,0,0,1031,0,-1548
597,6.784716,0,-1,2,1036,0,-1547
598,6.796305,1,0,1,1034,-4,-1547
599,6.808131,0,-1,1,1029,-3,-1546
600,6.819795,0,-1,1,1032,0,-1547
601,6.831368,0,1,1,1029,-1,-1543
602,6.842927,1,1,1,1033,2,-1548
603,6.854491,1,0,1,1032,-2,-1541
604,6.86613,1,0,1,1032,0,-1545
605,6.877781,0,0,1,1029,-3,-1552
606,6.889453,0,0,0,1030,-4,-1543
607,6.901106,1,0,1,1031,-2,-1543
608,6.912787,1,0,1,1034,0,-1549
609,6.924449,0,0,1,1033,-2,-1547
610,6.936124,0,0,1,1030,1,-1547
611,6.947812,1,0,1,1031,-1,-1548
612,6.959463,0,0,0,1034,0,-1547
613,6.971146,0,0,1,1029,-1,-1546
614,6.982841,1,0,1,1036,1,-1550
615,6.99449,1,0,1,1031,-3,-1554
616,7.006159,0,0,0,1034,-1,-1543
617,7.017813,0,0,0,1032,0,-1545
618,7.029532,1,0,0,1033,2,-1540
619,7.041178,0,0,1,1028,2,-1548
620,7.052839,0,0,1,1030,0,-1552
621,7.06453,0,1,2,1033,2,-1547
622,7.07618,0,0,1,1032,0,-1549
623,7.087754,0,0,1,1029,0,-1543
624,7.099327,0,1,1,1034,-1,-1544
625,7.110863,0,0,1,1027,0,-1547
626,7.122406,0,1,1,1033,2,-1548
627,7.133955,0,0,0,1028,-2,-1546
628,7.145524,0,0,1,1030,-4,-1546
629,7.15707,1,0,1,1036,0,-1537
630,7.168628,0,0,1,1035,-4,-1540
631,7.180281,0,0,2,1034,-2,-1546
632,7.191905,0,0,2,1033,-1,-1554
633,7.203562,1,0,1,1033,1,-1549
634,7.215232,0,0,0,1030,2,-1540
635,7.226886,0,0,1,1035,0,-1547
636,7.238534,1,0,2,1034,-1,-1551
637,7.250185,1,0,1,1036,1,-1546
638,7.261868,1,1,1,1034,-2,-1544
639,7.273527,0,0,1,1036,-1,-1538
640,7.285187,0,0,1,1030,-1,-1543
641,7.296853,0,0,1,1029,-1,-1547
642,7.30853,0,0,1,1032,-1,-1550
643,7.320207,0,1,1,1029,3,-1543
644,7.331882,0,0,1,1033,0,-1546
645,7.343521,0,-1,1,1030,0,-1546
646,7.355184,0,0,1,1036,0,-1543
647,7.366858,0,0,1,1037,-14,-1551
648,7.378502,0,-1,1,1031,0,-1544
649,7.390221,1,0,1,1030,1,-1543
650,7.401902,1,1,2,1034,-3,-1551
651,7.413478,0,0,1,1032,-1,-1543
652,7.425073,0,0,0,1035,-2,-1537
653,7.436623,1,0,1,1031,0,-1545
654,7.448204,1,1,1,1033,-2,-1545
655,7.459758,0,0,1,1035,0,-1546
656,7.471323,0,0,1,1033,0,-1541
657,7.482878,1,-1,1,1030,-1,-1548
658,7.49446,1,0,2,1031,0,-1549
659,7.506126,0,0,1,1033,-3,-1552
660,7.517786,0,-1,0,1032,0,-1544
661,7.529481,0,0,1,1035,0,-1544
662,7.541159,0,0,1,1031,0,-1546
663,7.552819,1,0,1,1033,0,-1539
664,7.564526,0,0,1,1032,4,-1541
665,7.576181,1,1,1,1034,-4,-1546
666,7.587884,0,1,1,1036,-1,-1547
667,7.599555,1,0,1,1027,1,-1544
668,7.611207,0,0,0,1031,1,-1542
669,7.622766,1,0,1,1035,0,-1548
670,7.634317,0,1,1,1029,0,-1544
671,7.645858,0,1,1,1031,-3,-1545
672,7.657401,0,-1,1,1032,0,-1546
673,7.668957,0,0,1,1029,3,-1542
674,7.680555,0,0,0,1030,-2,-1546
675,7.692095,0,0,0,1034,0,-1549
676,7.703689,0,0,1,1028,0,-1545
677,7.7153,0,0,0,1035,1,-1545
678,7.726981,0,0,0,1031,0,-1546
679,7.738631,0,0,1,1032,0,-1543
680,7.750275,1,0,1,1033,-1,-1546
681,7.761942,-1,-1,1,1032,2,-1548
682,7.773596,-1,0,1,1029,0,-1550
683,7.785244,0,0,1,1032,0,-1541
684,7.796908,1,0,0,1033,-1,-1550
685,7.808595,0,0,1,1027,0,-1541
686,7.82025,1,0,2,1035,-1,-1539
687,7.831845,0,0,1,1032,-1,-1547
688,7.843441,1,1,1,1033,0,-1538
689,7.855013,0,0,1,1033,-1,-1536
690,7.866554,1,-1,0,1033,0,-1547
691,7.878095,0,0,1,1034,4,-1538
692,7.889653,0,0,1,1029,1,-1545
693,7.901214,0,-1,1,1030,0,-1543
694,7.912774,0,0,1,1034,0,-1543
695,7.92441,0,0,1,1032,4,-1550
696,7.936115,0,0,1,1033,-2,-1547
697,7.947779,1,0,1,1033,0,-1550
698,7.959426,0,0,1,1034,0,-1548
699,7.971073,0,1,1,1032,-2,-1546
700,7.98274,0,0,1,1036,-3,-1533
701,7.994426,0,0,1,1031,0,-1543
702,8.006087,0,0,1,1032,-1,-1545
703,8.017756,1,0,1,1034,-4,-1547
704,8.029425,0,1,1,1033,4,-1543
705,8.040979,0,0,1,1034,0,-1546
706,8.052581,0,1,0,1032,3,-1548
707,8.064137,0,1,1,1031,0,-1539
708,8.075688,0,0,1,1031,-2,-1544
709,8.087278,0,1,1,1035,-1,-1547
710,8.098826,0,0,1,1034,0,-1542
711,8.110395,0,-1,1,1031,-1,-1549
712,8.121947,1,0,1,1034,-1,-1547
713,8.133575,0,-1,0,1032,-3,-1545
714,8.145225,0,0,1,1032,0,-1549
715,8.1569,1,1,1,1032,2,-1542
716,8.168576,0,0,1,1034,-2,-1545
717,8.180244,1,0,0,1031,0,-1544
718,8.191882,1,0,1,1031,2,-1547
719,8.203552,0,1,1,1033,-1,-1551
720,8.215198,1,1,1,1035,2,-1541
721,8.226861,0,1,0,1032,1,-1540
722,8.238526,1,1,0,1033,-2,-1541
723,8.250077,0,-1,1,1034,0,-1545
724,8.261637,0,0,1,1029,-1,-1541
725,8.273193,0,0,2,1036,2,-1537
726,8.284755,0,0,0,1034,0,-1546
727,8.296326,0,0,1,1034,-2,-1545
728,8.307852,0,0,1,1034,-1,-1547
729,8.319398,0,-1,1,1036,0,-1549
730,8.330948,0,0,1,1031,0,-1545
731,8.342561,0,0,1,1036,0,-1546
732,8.354218,0,0,1,1030,2,-1540
733,8.365889,0,0,1,1034,-2,-1545
734,8.377553,0,0,1,1033,-1,-1545
735,8.389207,0,0,1,1032,0,-1541
736,8.400916,0,0,1,1033,5,-1547
737,8.412574,0,1,1,1034,1,-1545
738,8.424268,0,0,2,1032,-4,-1540
739,8.436007,0,0,1,1032,3,-1550
740,8.447668,0,0,1,1034,0,-1543
741,8.459263,0,-1,1,1035,0,-1539
742,8.470808,0,0,1,1035,-1,-1539
743,8.482354,0,1,1,1033,0,-1545
744,8.493901,0,0,1,1030,0,-1545
745,8.505448,1,0,1,1033,2,-1549
746,8.516996,0,-1,1,1034,1,-1545
747,8.528601,0,-1,1,1031,2,-1543
748,8.540171,1,0,1,1033,0,-1549
749,8.551808,0,1,1,1031,-1,-1543
750,8.563456,0,0,1,1033,1,-1544
751,8.575118,1,0,1,1033,2,-1541
752,8.586779,0,0,1,1036,0,-1546
753,8.598429,0,0,1,1038,-2,-1546
754,8.610077,0,0,1,1033,-2,-1543
755,8.621732,0,-1,0,1034,0,-1538
756,8.63338,0,0,1,1033,-1,-1547
757,8.645056,0,0,1,1032,-2,-1552
758,8.656727,0,0,1,1037,-1,-1546
759,8.668301,0,0,0,1031,0,-1543
760,8.679859,0,0,1,1032,-2,-1549
761,8.691405,0,0,1,1030,-2,-1547
762,8.70294,0,0,2,1034,0,-1550
763,8.71449,1,-1,1,1034,4,-1544
764,8.726035,1,0,1,1031,-4,-1543
765,8.737578,1,0,1,1031,0,-1545
766,8.749131,1,0,1,1033,-1,-1543
767,8.760832,0,-1,1,1035,2,-1547
768,8.772519,0,0,1,1030,0,-1546
769,8.784177,0,0,1,1033,2,-1548
770,8.79587,-1,0,0,1033,3,-1542
771,8.807528,0,0,1,1035,1,-1544
772,8.819173,0,1,1,1030,0,-1546
773,8.830834,0,-1,2,1030,1,-1544
774,8.842472,0,1,1,1037,1,-1549
775,8.854135,0,0,1,1035,1,-1544
776,8.865792,0,-1,1,1032,1,-1540
777,8.877356,0,0,1,1036,-3,-1550
778,8.88893,0,-1,1,1037,-1,-1541
779,8.900487,1,-1,1,1034,-2,-1547
780,8.912093,0,0,1,1031,2,-1543
781,8.923651,0,0,1,1035,1,-1543
782,8.935216,0,1,1,1031,0,-1543
783,8.946754,0,0,2,1033,0,-1542
784,8.958306,0,0,1,1033,0,-1552
785,8.969919,1,0,1,1033,0,-1546
786,8.981568,0,0,0,1032,0,-1546
787,8.993233,0,-1,2,1034,-1,-1545
788,9.004916,0,0,1,1036,0,-1544
789,9.016591,0,0,1,1029,-3,-1541
790,9.028276,0,0,1,1030,1,-1542
791,9.039937,0,0,1,1031,-1,-1546
792,9.051626,0,1,0,1035,-4,-1536
793,9.063294,0,1,0,1036,0,-1545
794,9.074947,1,0,1,1032,2,-1550
795,9.086499,1,0,1,1028,-1,-1540
796,9.09805,1,0,1,1032,-4,-1544
797,9.109606,0,1,1,1037,-2,-1544
798,9.121151,1,-1,1,1034,-1,-1549
799,9.1327,0,-1,1,1031,-1,-1541
800,9.144263,1,1,1,1032,-1,-1547
801,9.155856,0,0,1,1031,1,-1543
802,9.167523,1,-1,1,1034,-3,-1548
803,9.179209,0,0,1,1032,-1,-1544
804,9.19076,0,1,0,1031,0,-1546
805,9.202342,0,1,1,1031,-2,-1551
806,9.213887,0,0,1,1031,-2,-1548
807,9.225451,1,0,1,1035,-1,-1544
808,9.237002,1,0,1,1032,-1,-1546
809,9.248583,1,0,1,1035,-2,-1544
810,9.260135,1,-1,1,1028,0,-1544
811,9.271755,1,0,1,1033,-2,-1549
812,9.28342,0,0,1,1029,-1,-1550
813,9.295063,1,-1,0,1034,-3,-1541
814,9.306716,0,0,1,1034,-1,-1539
815,9.318373,1,0,0,1032,-1,-1541
816,9.330022,0,0,1,1033,-1,-1545
817,9.341663,0,0,1,1033,-2,-1544
818,9.353308,1,0,1,1032,0,-1542
819,9.364984,0,0,1,1033,0,-1539
820,9.376666,0,0,1,1031,0,-1551
821,9.388222,1,0,1,1030,-3,-1545
822,9.399811,0,0,2,1031,-1,-1541
823,9.411353,0,0,1,1030,0,-1546
824,9.422893,0,-1,1,1032,1,-1545
825,9.434446,0,0,2,1031,-2,-1545
826,9.44599,0,0,1,1033,1,-1547
827,9.457535,1,1,1,1029,-3,-1540
828,9.469088,0,0,1,1032,0,-1546
829,9.48078,0,0,1,1033,0,-1543
830,9.492457,0,0,1,1035,1,-1547
831,9.504127,0,0,1,1031,0,-1553
832,9.515768,0,0,1,1033,-2,-1540
833,9.527412,0,0,0,1033,1,-1549
834,9.539093,1,0,1,1033,1,-1541
835,9.550752,1,0,2,1032,-1,-1543
836,9.562397,0,0,1,1036,1,-1545
837,9.574073,0,0,0,1031,-1,-1545
838,9.585743,0,0,0,1031,0,-1548
839,9.597316,0,0,2,1032,5,-1550
840,9.608863,1,0,2,1036,-4,-1543
841,9.620416,0,0,1,1029,0,-1544
842,9.631991,1,0,1,1033,1,-1542
843,9.643598,0,0,1,1033,0,-1541
844,9.655167,1,0,0,1032,4,-1547
845,9.666706,1,0,1,1032,2,-1548
846,9.678264,1,0,1,1031,0,-1545
847,9.68992,0,0,1,1036,1,-1542
848,9.701601,0,0,0,1035,0,-1542
849,9.713254,0,0,0,1033,0,-1541
850,9.724934,0,0,1,1031,0,-1548
851,9.736622,1,0,1,1030,3,-1543
852,9.748282,0,0,1,1033,1,-1551
853,9.759957,1,0,0,1034,-1,-1535
854,9.771613,0,1,0,1035,5,-1549
855,9.783273,1,1,1,1036,-1,-1550
856,9.794944,0,0,1,1031,3,-1542
857,9.806538,0,0,1,1034,-1,-1547
858,9.818083,1,0,1,1034,3,-1544
859,9.829657,1,-1,1,1032,-3,-1539
860,9.841212,0,0,1,1035,-1,-1541
861,9.852786,0,0,2,1032,1,-1547
862,9.864332,0,0,0,1030,0,-1544
863,9.875854,1,0,1,1034,-1,-1549
864,9.887423,0,0,1,1033,0,-1544
865,9.899072,0,0,2,1034,3,-1542
866,9.910734,0,1,2,1034,0,-1557
867,9.922378,-1,0,1,1034,-4,-1542
868,9.93404,1,0,0,1032,-1,-1544
869,9.945711,0,0,1,1029,-1,-1542
870,9.957355,0,0,1,1034,-2,-1543
871,9.969052,1,-1,1,1032,0,-1552
872,9.980722,1,0,1,1030,-1,-1543
873,9.992416,1,-1,1,1037,0,-1535
874,10.004067,0,-1,0,1033,0,-1546
875,10.015613,1,0,1,1032,1,-1545
876,10.027173,1,0,1,1032,0,-1550
877,10.03873,1,0,1,1033,1,-1547
878,10.050282,0,0,1,1033,-3,-1544
879,10.061829,0,1,1,1035,0,-1549
880,10.073393,1,1,0,1033,1,-1542
881,10.084944,1,0,1,1030,-1,-1542
882,10.096513,1,0,1,1032,2,-1544
883,10.108215,2,0,1,1034,0,-1543
884,10.119884,0,-1,1,1034,-3,-1542
885,10.131542,1,-1,1,1033,-4,-1548
886,10.143213,0,0,1,1027,0,-1548
887,10.154858,1,1,1,1033,3,-1539
888,10.166507,1,0,2,1033,1,-1545
889,10.178181,1,-1,1,1031,0,-1544
890,10.189831,1,1,1,1034,-1,-1547
891,10.201531,0,0,1,1029,2,-1542
892,10.213201,0,0,1,1034,0,-1540
893,10.224759,0,-1,1,1033,-5,-1544
894,10.236326,0,0,1,1032,-1,-1542
895,10.247853,0,0,1,1030,0,-1543
896,10.2594,0,-1,1,1035,-1,-1546
897,10.270996,0,-1,2,1031,0,-1543
898,10.282548,1,0,1,1030,-1,-1545
899,10.294131,0,0,1,1037,-1,-1545
900,10.305679,0,0,1,1032,-4,-1544
901,10.317319,0,0,1,1031,-1,-1542
902,10.328977,1,0,1,1033,-3,-1551
903,10.34067,0,0,1,1032,1,-1552
904,10.352325,0,0,1,1028,1,-1546
905,10.364006,0,0,1,1032,0,-1545
906,10.375678,0,1,0,1032,1,-1546
907,10.387325,0,-1,1,1033,0,-1548
908,10.398974,-1,0,1,1031,-3,-1547
909,10.410657,0,0,1,1030,-1,-1541
910,10.422317,0,0,1,1034,0,-1548
911,10.433883,1,0,1,1033,-1,-1549
912,10.445429,0,0,1,1033,0,-1547
913,10.456988,1,0,0,1034,-1,-1549
914,10.46858,0,0,1,1031,0,-1541
915,10.480144,0,0,1,1030,0,-1545
916,10.491733,1,0,0,1035,-1,-1542
917,10.503281,0,-1,1,1032,-1,-1543
918,10.514836,0,0,1,1036,0,-1552
919,10.526458,1,1,1,1034,3,-1549
920,10.53811,0,0,1,1034,-1,-1545
921,10.549757,0,1,1,1034,2,-1543
922,10.561424,0,0,1,1032,0,-1548
923,10.573073,0,0,2,1035,-2,-1541
924,10.584725,1,0,1,1029,0,-1544
925,10.596407,0,-1,0,1032,-4,-1551
926,10.608067,1,0,0,1033,0,-1543
927,10.619762,1,-1,1,1033,-2,-1546
928,10.631426,0,0,2,1032,0,-1542
929,10.643017,1,0,2,1027,0,-1543
930,10.654606,0,0,1,1032,2,-1552
931,10.666141,0,1,1,1035,0,-1544
932,10.677672,0,-1,0,1033,-1,-1549
933,10.689232,0,0,1,1033,1,-1542
934,10.7008,0,0,1,1031,-1,-1546
935,10.712332,0,-1,0,1035,-1,-1547
936,10.723863,1,0,2,1034,0,-1548
937,10.735572,0,0,1,1035,1,-1543
938,10.747271,0,0,2,1033,2,-1547
939,10.758916,0,1,2,1038,0,-1542
940,10.770568,0,0,1,1028,-1,-1552
941,10.782242,0,0,1,1029,-1,-1545
942,10.793898,0,0,1,1033,0,-1548
943,10.805533,0,0,1,1035,-4,-1545
944,10.817189,0,1,1,1033,-1,-1544
945,10.82887,0,1,1,1035,1,-1548
946,10.840558,0,-1,1,1033,-1,-1542
947,10.852099,0,0,1,1033,0,-1544
948,10.863655,1,1,1,1034,-2,-1545
949,10.875223,0,0,1,1032,1,-1549
950,10.886765,0,0,1,1033,0,-1548
951,10.898317,1,0,1,1030,0,-1549
952,10.909867,0,1,1,1033,0,-1544
953,10.921411,1,0,2,1031,0,-1548
954,10.932976,0,1,1,1032,0,-1545
955,10.944678,0,0,0,1034,1,-1541
956,10.956337,0,0,1,1032,0,-1545
957,10.968037,0,0,0,1034,1,-1545
958,10.979682,0,0,1,1033,0,-1542
959,10.991351,1,-1,1,1035,0,-1541
960,11.003017,0,0,1,1031,0,-1543
961,11.014683,0,-1,2,1034,-3,-1549
962,11.026333,1,0,1,1033,0,-1549
963,11.038035,1,0,1,1030,3,-1541
964,11.049699,1,0,1,1032,4,-1545
965,11.061544,0,0,1,1029,0,-1544
966,11.073194,0,-1,1,1036,-1,-1551
967,11.08488,1,0,0,1033,0,-1547
968,11.096528,0,0,1,1032,4,-1546
969,11.108183,0,0,1,1032,0,-1546
970,11.119853,0,0,1,1034,1,-1537
971,11.131505,0,0,1,1031,4,-1549
972,11.143227,0,-1,0,1035,-2,-1543
973,11.154889,1,0,1,1031,-3,-1545
974,11.166445,0,0,1,1028,-1,-1546
975,11.177996,-1,0,0,1032,2,-1549
976,11.189572,0,0,1,1034,0,-1544
977,11.201134,0,0,0,1031,-1,-1541
978,11.212713,0,0,1,1035,3,-1546
979,11.224276,0,0,1,1035,0,-1544
980,11.235849,0,0,1,1033,-4,-1546
981,11.247398,1,0,1,1030,-1,-1539
982,11.259057,0,0,1,1035,0,-1546
983,11.270703,0,0,0,1036,2,-1544
984,11.282373,1,0,1,1037,-2,-1547
985,11.29403,0,0,1,1031,-4,-1549
986,11.305673,0,1,2,1034,-1,-1543
987,11.31734,1,-1,1,1034,0,-1549
988,11.329027,0,0,1,1030,3,-1552
989,11.340646,0,0,1,1032,0,-1542
990,11.352324,0,0,1,1032,0,-1546
991,11.363854,0,0,1,1033,-2,-1543
992,11.375439,1,-1,0,1031,-2,-1545
993,11.38701,0,0,1,1033,0,-1545
994,11.398561,0,0,1,1034,-3,-1544
995,11.410106,1,0,2,1032,0,-1544
996,11.421664,1,-1,1,1032,0,-1549
997,11.43322,1,0,1,1033,-5,-1539
998,11.444817,1,0,1,1036,-3,-1544
999,11.456375,1,0,1,1031,0,-1547
1000,11.468037,0,-1,1,1034,1,-1552
1001,11.479737,1,0,1,1034,-4,-1546
1002,11.491388,0,-1,1,1033,0,-1548
1003,11.503054,0,0,2,1034,0,-1546
1004,11.514715,0,0,1,1031,-2,-1547
1005,11.52637,0,0,1,1029,4,-1544
1006,11.538019,0,-1,1,1033,-1,-1549
1007,11.549691,0,0,2,1034,-1,-1543
1008,11.561351,1,0,1,1035,1,-1548
1009,11.573052,0,0,1,1035,-5,-1542
1010,11.584722,1,0,2,1031,1,-1553
1011,11.596394,0,-1,1,1035,-6,-1543
1012,11.608072,0,0,1,1030,-4,-1539
1013,11.619758,0,0,1,1031,-1,-1546
1014,11.631421,0,-1,0,1029,0,-1544
1015,11.643071,1,-1,0,1032,-3,-1541
1016,11.65476,1,0,1,1030,2,-1542
1017,11.666423,0,0,1,1031,0,-1542
1018,11.678088,0,0,1,1037,0,-1540
1019,11.689735,0,0,1,1033,-1,-1545
1020,11.701388,0,0,0,1033,0,-1542
1021,11.713053,0,1,0,1029,0,-1548
1022,11.724711,1,1,1,1031,0,-1548
1023,11.736384,0,0,1,1036,0,-1549
1024,11.748036,1,0,1,1032,0,-1549
1025,11.759813,0,-1,0,1032,0,-1551
1026,11.771479,0,1,1,1031,2,-1546
1027,11.783056,0,0,0,1030,1,-1547
1028,11.794672,0,-1,0,1033,0,-1544
1029,11.80623,0,0,1,1033,0,-1543
1030,11.817796,0,0,1,1034,0,-1548
1031,11.829336,0,0,1,1038,-1,-1544
1032,11.840889,0,0,1,1030,0,-1545
1033,11.852452,1,0,1,1033,-1,-1557
1034,11.864028,0,0,1,1030,1,-1547
1035,11.875687,0,0,1,1033,-2,-1541
1036,11.887336,0,0,0,1033,1,-1546
1037,11.898988,0,0,0,1031,-1,-1544
1038,11.91064,0,0,1,1031,0,-1545
1039,11.922309,0,0,1,1031,0,-1548
1040,11.933961,0,0,1,1030,-2,-1544
1041,11.945614,0,0,2,1035,0,-1543
1042,11.957273,1,0,1,1034,0,-1548
1043,11.968919,0,1,1,1028,-2,-1545
1044,11.980586,1,0,1,1038,-3,-1545
1045,11.992156,0,0,1,1033,4,-1546
1046,12.003738,0,0,1,1032,2,-1544
1047,12.015294,0,0,1,1034,2,-1550
1048,12.026855,0,0,0,1031,3,-1547
1049,12.038407,1,0,1,1032,0,-1547
1050,12.04995,1,1,1,1030,1,-1544
1051,12.061515,1,0,1,1034,0,-1546
1052,12.073075,0,0,2,1030,0,-1539
1053,12.084861,0,0,0,1034,1,-1545
1054,12.096545,0,0,2,1030,2,-1552
1055,12.1082,0,0,1,1031,1,-1552
1056,12.11987,1,0,2,1036,0,-1549
1057,12.131563,0,1,1,1027,-1,-1543
1058,12.143206,0,0,1,1030,-1,-1549
1059,12.154853,1,0,1,1031,0,-1545
1060,12.166512,1,0,1,1035,0,-1541
1061,12.178178,-1,0,1,1035,-1,-1541
1062,12.189834,0,0,2,1034,0,-1550
1063,12.201411,0,0,1,1032,2,-1543
1064,12.212999,1,1,1,1034,1,-1546
1065,12.224572,0,-1,1,1027,1,-1544
1066,12.236132,0,1,0,1032,1,-1544
1067,12.247684,0,0,1,1035,-4,-1544
1068,12.259228,0,0,1,1032,0,-1546
1069,12.270774,0,0,2,1032,0,-1548
1070,12.282374,0,0,0,1035,-2,-1549
1071,12.294002,0,0,1,1032,2,-1544
1072,12.305694,0,-1,1,1033,4,-1558
1073,12.317346,1,-1,1,1031,0,-1550
1074,12.329055,1,0,1,1031,1,-1547
1075,12.340723,1,-1,0,1034,2,-1543
1076,12.352389,1,0,1,1034,2,-1542
1077,12.364064,0,-1,1,1030,1,-1549
1078,12.375756,0,0,1,1037,-3,-1542
1079,12.387424,0,0,1,1036,-1,-1543
1080,12.399082,1,-1,1,1033,1,-1545
1081,12.410632,0,0,1,1030,0,-1546
1082,12.422189,0,1,1,1033,0,-1544
1083,12.433753,0,0,1,1035,-3,-1547
1084,12.4453,1,0,0,1033,0,-1544
1085,12.45682,1,0,0,1032,0,-1547
1086,12.468343,0,0,0,1033,2,-1542
1087,12.479892,0,0,1,1032,0,-1545
1088,12.491433,0,-1,1,1032,-1,-1543
1089,12.503129,0,0,2,1033,0,-1543
1090,12.514774,0,0,1,1034,-4,-1538
1091,12.526429,0,0,1,1032,-1,-1543
1092,12.538096,1,0,0,1037,1,-1547
1093,12.549741,0,0,1,1032,0,-1545
1094,12.561394,0,1,1,1034,0,-1548
1095,12.573059,0,0,1,1030,0,-1545
1096,12.584702,0,0,1,1031,-3,-1544
1097,12.596393,0,0,1,1033,0,-1541
1098,12.607975,0,0,1,1037,-2,-1542
1099,12.619521,0,0,1,1032,1,-1550
1100,12.63106,0,0,1,1030,2,-1549
1101,12.642602,0,0,1,1035,-1,-1546
1102,12.654141,0,0,1,1037,0,-1541
1103,12.665681,0,0,1,1033,-1,-1546
1104,12.677237,0,0,0,1033,2,-1542
1105,12.6888,0,0,1,1031,0,-1544
1106,12.700368,0,0,0,1034,-1,-1552
1107,12.712043,0,1,0,1032,1,-1541
1108,12.723693,0,0,1,1030,-1,-1546
1109,12.735345,0,0,1,1030,-2,-1546
1110,12.746995,1,0,1,1034,0,-1547
1111,12.758645,0,0,1,1034,0,-1542
1112,12.770297,0,0,1,1032,0,-1549
1113,12.781943,0,0,1,1029,-2,-1544
1114,12.793594,1,-1,1,1031,2,-1542
1115,12.805298,0,0,1,1029,0,-1544
1116,12.817058,0,1,1,1033,-1,-1552
1117,12.828714,0,0,1,1030,1,-1546
1118,12.840391,1,0,2,1033,-3,-1545
1119,12.852052,1,0,1,1030,0,-1548
1120,12.863761,0,0,1,1033,-2,-1548
1121,12.875419,1,0,2,1026,-1,-1538
1122,12.887074,1,0,1,1035,2,-1549
1123,12.898769,0,0,1,1032,0,-1544
1124,12.910496,0,-1,1,1034,-1,-1549
1125,12.922091,0,0,2,1033,-2,-1544
1126,12.933638,1,0,1,1035,0,-1547
1127,12.945184,1,0,2,1030,0,-1547
1128,12.95674,1,-1,1,1030,-2,-1548
1129,12.968321,0,-1,2,1030,-2,-1546
1130,12.979858,0,1,1,1030,-1,-1547
1131,12.991427,0,-1,1,1036,-2,-1547
1132,13.002982,1,0,1,1028,0,-1548
1133,13.014669,0,1,1,1030,-2,-1544
1134,13.026337,0,1,1,1033,1,-1546
1135,13.038012,0,1,1,1030,1,-1542
1136,13.049659,0,0,1,1031,0,-1546
1137,13.061307,0,0,1,1037,0,-1539
1138,13.072975,1,0,1,1030,0,-1553
1139,13.084645,0,0,0,1036,0,-1543
1140,13.0963,0,0,2,1038,2,-1549
1141,13.107993,0,0,1,1033,-3,-1539
1142,13.11955,0,0,1,1033,0,-1537
1143,13.131097,0,0,1,1031,-2,-1543
1144,13.14264,0,0,0,1031,0,-1540
1145,13.154194,0,0,0,1033,0,-1545
1146,13.165736,1,0,0,1033,-2,-1542
1147,13.177276,0,0,1,1032,0,-1542
1148,13.188816,0,0,0,1029,-2,-1545
1149,13.200336,0,0,2,1032,0,-1540
1150,13.211875,-1,0,1,1031,1,-1541
1151,13.223518,-1,0,0,1033,2,-1541
1152,13.235219,0,0,2,1033,0,-1546
1153,13.246885,1,0,1,1034,2,-1544
1154,13.258524,1,0,1,1030,-4,-1549
1155,13.270173,1,0,1,1034,0,-1547
1156,13.28186,1,0,1,1037,-3,-1539
1157,13.293526,0,0,1,1033,-3,-1548
1158,13.305189,0,0,1,1030,-2,-1548
1159,13.316876,1,0,2,1034,3,-1549
1160,13.328528,0,0,1,1034,0,-1546
1161,13.340184,0,0,1,1033,1,-1543
1162,13.351882,0,0,1,1033,0,-1544
1163,13.363518,1,0,1,1033,4,-1542
1164,13.375163,0,0,0,1034,0,-1546
1165,13.38682,1,0,0,1029,-2,-1549
1166,13.398463,0,0,0,1034,0,-1549
1167,13.410146,0,0,1,1033,1,-1549
1168,13.421797,0,0,0,1033,3,-1545
1169,13.433472,0,0,1,1031,1,-1544
1170,13.445143,0,1,1,1034,-2,-1544
1171,13.456792,0,-1,1,1031,-3,-1545
1172,13.468466,1,0,1,1035,0,-1548
1173,13.480134,0,-1,1,1032,0,-1546
1174,13.491788,0,0,1,1036,-1,-1550
1175,13.503455,1,1,1,1034,2,-1539
1176,13.515088,1,1,1,1034,-1,-1541
1177,13.526676,0,0,0,1035,0,-1546
1178,13.538241,0,0,1,1033,-2,-1548
1179,13.54982,0,0,0,1030,0,-1545
1180,13.561375,0,0,1,1032,0,-1542
1181,13.57294,0,0,1,1031,1,-1550
1182,13.584499,1,0,1,1038,0,-1546
1183,13.596082,0,0,1,1032,-4,-1551
1184,13.60766,0,0,1,1036,0,-1541
1185,13.619228,-1,0,1,1037,-1,-1547
1186,13.630874,0,1,0,1034,0,-1545
1187,13.642534,0,0,1,1030,-2,-1545
1188,13.654232,0,0,1,1032,0,-1541
1189,13.665881,0,1,1,1032,1,-1551
1190,13.677528,0,0,1,1031,0,-1548
1191,13.689197,0,0,1,1036,1,-1548
1192,13.700893,0,0,1,1031,-1,-1543
1193,13.712545,0,-1,0,1032,-1,-1546
1194,13.724216,0,0,1,1031,0,-1543
1195,13.73578,1,0,0,1032,-1,-1553
1196,13.747331,0,0,1,1032,1,-1537
1197,13.75888,1,0,1,1033,0,-1545
1198,13.770432,0,0,1,1033,1,-1543
1199,13.782033,0,0,1,1030,2,-1544
1200,13.793591,0,0,1,1031,-5,-1547
1201,13.805172,0,1,1,1033,0,-1547
1202,13.816725,1,0,0,1032,-1,-1543
1203,13.828288,1,1,1,1033,0,-1548
1204,13.839885,0,1,0,1034,-1,-1547
1205,13.851537,0,-1,1,1032,-3,-1550
1206,13.863213,1,1,1,1030,0,-1552
1207,13.874868,1,0,1,1033,0,-1547
1208,13.886507,0,0,1,1034,-2,-1543
1209,13.898157,0,0,1,1032,0,-1544
1210,13.909865,0,0,2,1032,0,-1536
1211,13.921602,0,1,2,1031,0,-1543
1212,13.933352,0,1,1,1032,-1,-1541
1213,13.945076,-1,0,1,1034,2,-1544
1214,13.956668,-1,0,1,1031,2,-1547
1215,13.968232,0,1,2,1028,0,-1539
1216,13.979855,0,-1,2,1032,-3,-1544
1217,13.991417,0,0,1,1031,3,-1549
1218,14.00299,0,0,1,1034,0,-1541
1219,14.01456,0,0,1,1031,0,-1541
1220,14.026152,0,0,0,1030,3,-1546
1221,14.037703,0,0,0,1033,-1,-1551
1222,14.049362,1,0,0,1035,2,-1548
1223,14.061034,1,1,1,1034,-1,-1548
1224,14.07265,0,0,1,1031,3,-1543
1225,14.084329,0,0,0,1029,1,-1539
1226,14.096002,1,0,1,1032,-3,-1546
1227,14.107622,0,0,1,1032,-2,-1543
1228,14.119322,1,0,1,1035,0,-1547
1229,14.130973,1,0,0,1033,0,-1547
1230,14.142702,1,0,0,1034,0,-1546
1231,14.154352,0,0,0,1035,-4,-1542
1232,14.165915,0,0,1,1031,0,-1543
1233,14.177519,0,1,1,1031,-2,-1538
1234,14.189068,0,0,1,1029,1,-1539
1235,14.200622,1,-1,0,1032,1,-1542
1236,14.212181,0,0,1,1033,3,-1545
1237,14.223781,0,0,1,1035,3,-1548
1238,14.235331,0,1,1,1033,0,-1544
1239,14.246909,0,0,0,1032,0,-1544
1240,14.258532,0,1,2,1036,-3,-1547
1241,14.270206,0,1,1,1030,0,-1551
1242,14.281857,0,0,1,1034,1,-1553
1243,14.293534,0,0,1,1036,2,-1543
1244,14.305193,0,0,2,1030,1,-1542
1245,14.316861,0,-1,1,1033,0,-1540
1246,14.328544,1,0,1,1033,-2,-1546
1247,14.340207,1,0,1,1033,3,-1547
1248,14.351899,0,0,1,1034,0,-1541
1249,14.363595,1,0,1,1030,2,-1545
1250,14.375157,0,1,1,1028,0,-1544
1251,14.386721,1,0,1,1031,1,-1543
1252,14.398264,0,0,1,1032,0,-1544
1253,14.409827,1,0,1,1031,-2,-1544
1254,14.421385,0,0,1,1032,0,-1545
1255,14.432946,0,0,1,1032,2,-1546
1256,14.444494,1,-1,0,1031,-1,-1548
1257,14.456052,0,0,1,1039,-2,-1548
1258,14.467686,0,0,1,1035,0,-1547
1259,14.479342,0,0,1,1035,0,-1543
1260,14.490991,0,0,1,1036,0,-1546
1261,14.502633,1,0,1,1034,0,-1550
1262,14.514286,0,0,1,1030,-1,-1546
1263,14.525937,0,0,1,1031,0,-1543
1264,14.537577,1,1,1,1031,-2,-1547
1265,14.54923,0,0,1,1030,-2,-1551
1266,14.560936,1,0,1,1033,0,-1543
1267,14.572596,0,0,2,1031,3,-1547
1268,14.584159,0,0,1,1033,3,-1544
1269,14.59573,0,0,1,1035,0,-1550
1270,14.607285,0,0,0,1034,2,-1541
1271,14.618838,0,0,1,1034,2,-1547
1272,14.630391,0,0,1,1033,3,-1543
1273,14.641995,0,0,2,1033,0,-1538
1274,14.653552,0,0,1,1031,1,-1547
1275,14.665137,1,0,1,1032,0,-1542
1276,14.676834,0,0,2,1034,-1,-1539
1277,14.688513,0,0,0,1033,0,-1544
1278,14.700187,0,1,1,1034,3,-1547
1279,14.711873,1,0,0,1032,0,-1545
1280,14.723565,0,0,2,1034,3,-1542
1281,14.73521,0,0,2,1033,-2,-1546
1282,14.746877,0,0,1,1032,1,-1547
1283,14.758567,0,-1,1,1034,2,-1544
1284,14.770207,0,-1,1,1031,-1,-1540
1285,14.781771,1,0,0,1032,2,-1548
1286,14.793352,1,-1,2,1035,-3,-1548
1287,14.804944,0,0,1,1034,2,-1552
1288,14.816506,0,0,1,1030,0,-1542
1289,14.828096,1,0,0,1035,1,-1548
1290,14.839655,0,0,0,1033,1,-1543
1291,14.851248,0,0,1,1030,-1,-1547
1292,14.8628,0,0,0,1035,2,-1548
1293,14.874374,0,1,1,1033,-3,-1547
1294,14.886047,1,0,1,1034,1,-1547
1295,14.897712,1,-1,2,1030,1,-1547
1296,14.909372,1,0,1,1034,0,-1545
1297,14.921038,0,-1,0,1030,0,-1542
1298,14.932702,0,0,1,1030,0,-1540
1299,14.944384,0,0,1,1031,-2,-1547
1300,14.956046,0,-1,1,1031,-3,-1545
1301,14.9677,0,0,1,1032,-1,-1545
1302,14.979386,1,-1,1,1035,-1,-1547
1303,14.991046,0,1,1,1030,-2,-1542
1304,15.002609,1,0,1,1032,-1,-1548
1305,15.014163,0,-1,1,1034,0,-1547
1306,15.025723,0,0,1,1033,1,-1549
1307,15.037276,0,0,0,1033,0,-1545
1308,15.048825,0,0,1,1037,-1,-1543
1309,15.060388,0,-1,1,1036,-1,-1540
1310,15.071983,0,0,1,1031,-2,-1548
1311,15.083546,0,0,0,1035,0,-1549
1312,15.095193,0,0,1,1030,5,-1548
1313,15.106864,1,1,0,1032,-2,-1543
1314,15.118526,0,0,0,1027,2,-1547
1315,15.130209,0,0,1,1035,-1,-1546
1316,15.141884,0,0,1,1036,0,-1549
1317,15.15354,0,0,1,1033,0,-1545
1318,15.165226,0,0,1,1031,1,-1545
1319,15.176913,1,0,1,1033,0,-1545
1320,15.1886,0,0,1,1034,2,-1542
1321,15.200273,0,0,1,1032,-3,-1548
1322,15.211853,0,0,1,1032,0,-1546
1323,15.223397,0,0,0,1034,0,-1540
1324,15.234953,0,0,2,1034,0,-1546
1325,15.246498,0,0,0,1035,0,-1549
1326,15.258059,1,-1,1,1029,-1,-1545
1327,15.269609,0,0,1,1032,0,-1543
1328,15.281198,0,-1,1,1032,0,-1545
1329,15.292766,0,0,0,1032,0,-1546
1330,15.304399,1,-1,1,1035,1,-1545
1331,15.316069,0,0,1,1034,2,-1549
1332,15.327749,0,0,1,1032,2,-1545
1333,15.339404,0,-1,1,1028,0,-1549
1334,15.351063,0,0,2,1036,0,-1541
1335,15.362711,0,1,1,1033,-1,-1547
1336,15.374386,1,0,1,1034,-2,-1549
1337,15.386041,0,0,1,1031,-5,-1544
1338,15.397701,0,0,1,1034,-2,-1549
1339,15.409361,0,1,1,1034,0,-1546
1340,15.42098,1,1,1,1034,-4,-1544
1341,15.432583,1,0,1,1031,-1,-1545
1342,15.444158,1,1,2,1034,1,-1551
1343,15.455733,0,1,1,1032,3,-1550
1344,15.467321,0,1,1,1037,-3,-1544
1345,15.478879,0,-1,1,1034,-3,-1545
1346,15.490443,0,0,2,1030,1,-1545
1347,15.502002,0,0,1,1030,-4,-1548
1348,15.513653,1,0,1,1034,-3,-1546
1349,15.525296,0,0,1,1032,2,-1547
1350,15.536955,0,0,1,1032,0,-1547
1351,15.548643,0,1,1,1038,-3,-1540
1352,15.560294,1,1,1,1039,3,-1547
1353,15.571944,0,0,1,1030,0,-1546
1354,15.583622,1,-1,1,1029,-1,-1543
1355,15.595266,0,0,0,1039,2,-1547
1356,15.606928,0,0,1,1031,2,-1544
1357,15.618596,0,0,1,1034,0,-1545
1358,15.630195,1,0,1,1033,1,-1542
1359,15.641747,1,0,1,1032,1,-1545
1360,15.653319,1,0,1,1033,0,-1549
1361,15.664866,0,0,0,1029,4,-1548
1362,15.676448,0,0,1,1031,1,-1545
1363,15.688022,0,0,1,1035,1,-1546
1364,15.699599,0,0,0,1032,-2,-1534
1365,15.711204,1,0,1,1031,-4,-1544
1366,15.722878,1,0,1,1031,-1,-1541
1367,15.734529,0,0,0,1032,3,-1545
1368,15.746204,0,0,1,1036,-4,-1551
1369,15.75786,1,0,1,1033,1,-1540
1370,15.769512,1,0,1,1035,-2,-1544
1371,15.781175,0,0,1,1030,2,-1538
1372,15.792854,0,1,1,1034,1,-1549
1373,15.804522,0,0,1,1035,-3,-1546
1374,15.816221,1,0,1,1033,-2,-1544
1375,15.827881,0,0,1,1037,0,-1546
1376,15.839532,0,0,1,1031,0,-1546
1377,15.851224,0,1,1,1032,0,-1544
1378,15.862865,1,-1,1,1032,0,-1542
1379,15.874526,1,0,2,1032,0,-1542
1380,15.886206,0,0,1,1031,-1,-1546
1381,15.897852,0,0,1,1033,0,-1548
1382,15.909529,0,0,1,1032,-1,-1550
1383,15.92125,0,-1,2,1033,-1,-1539
1384,15.932912,0,0,1,1035,2,-1548
1385,15.944564,1,-1,1,1032,5,-1543
1386,15.956265,0,0,1,1032,-2,-1544
1387,15.967884,0,0,1,1031,0,-1542
1388,15.97955,1,0,1,1030,0,-1543
1389,15.991208,1,0,0,1029,-3,-1546
1390,16.00287,0,-1,0,1033,-3,-1552
1391,16.014528,2,0,1,1030,-1,-1540
1392,16.026238,1,0,1,1032,0,-1546
1393,16.037906,1,-1,1,1029,2,-1540
1394,16.049517,1,0,2,1031,0,-1547
1395,16.061075,0,1,1,1030,0,-1540
1396,16.072661,0,1,1,1033,0,-1540
1397,16.084224,1,0,1,1035,1,-1545
1398,16.095777,2,-1,1,1033,0,-1546
1399,16.107327,0,0,1,1029,-1,-1550
1400,16.11887,0,0,1,1033,0,-1547
1401,16.130426,0,0,1,1033,0,-1551
1402,16.142076,0,1,0,1034,0,-1548
1403,16.153763,0,0,1,1026,2,-1542
1404,16.165532,1,0,1,1034,0,-1543
1405,16.177238,0,0,2,1036,-1,-1550
1406,16.188957,0,0,1,1033,-2,-1547
1407,16.200687,0,0,1,1031,0,-1547
1408,16.212373,1,0,1,1032,1,-1548
1409,16.224044,0,-1,1,1029,-2,-1545
1410,16.235697,0,0,1,1032,0,-1552
1411,16.247263,1,-1,1,1033,0,-1545
1412,16.258807,1,0,0,1035,0,-1538
1413,16.270353,1,0,1,1031,-2,-1548
1414,16.281891,1,0,0,1029,-2,-1543
1415,16.293436,1,0,0,1031,-4,-1544
1416,16.305016,1,-1,0,1034,0,-1543
1417,16.316578,0,0,1,1034,1,-1543
1418,16.328151,0,0,1,1032,0,-1545
1419,16.339706,1,1,1,1032,0,-1547
1420,16.351378,0,0,1,1036,1,-1543
1421,16.363086,0,0,2,1035,0,-1542
1422,16.374825,1,0,1,1034,1,-1548
1423,16.386489,0,1,0,1033,0,-1543
1424,16.398171,0,1,1,1033,-2,-1547
1425,16.40984,0,0,0,1030,-1,-1544
1426,16.421484,0,0,1,1033,2,-1542
1427,16.43318,0,-1,1,1031,0,-1540
1428,16.444865,-1,0,1,1032,0,-1545
1429,16.456558,0,1,1,1028,1,-1549
1430,16.468149,0,0,1,1033,-2,-1540
1431,16.47973,1,0,1,1032,0,-1543
1432,16.491283,0,1,1,1032,-2,-1539
1433,16.502868,0,0,1,1031,-1,-1541
1434,16.514421,0,0,1,1033,1,-1542
1435,16.526008,0,0,1,1032,0,-1548
1436,16.537553,0,0,2,1031,1,-1540
1437,16.549126,0,0,1,1032,-1,-1541
1438,16.560783,1,0,2,1031,-4,-1545
1439,16.572515,1,0,1,1034,2,-1545
1440,16.584288,0,0,1,1032,1,-1541
1441,16.595955,0,-1,1,1033,1,-1546
1442,16.607612,0,0,1,1031,1,-1541
1443,16.619322,0,0,1,1035,0,-1543
1444,16.63098,0,0,0,1032,-2,-1544
1445,16.642623,1,-1,1,1031,5,-1542
1446,16.654294,0,-1,1,1031,-3,-1547
1447,16.665997,1,0,2,1035,0,-1550
1448,16.67757,0,0,1,1036,0,-1550
1449,16.689138,0,0,1,1035,1,-1546
1450,16.700706,1,-1,1,1036,0,-1543
1451,16.712269,0,0,2,1031,1,-1545
1452,16.723848,1,0,0,1032,-4,-1545
1453,16.735392,0,-1,1,1034,0,-1548
1454,16.746933,0,0,1,1035,2,-1552
1455,16.758495,1,-1,1,1030,0,-1549
1456,16.770133,0,0,1,1032,3,-1550
1457,16.781808,1,0,0,1034,-1,-1539
1458,16.79346,1,1,1,1032,0,-1544
1459,16.805169,1,0,1,1030,0,-1546
1460,16.816818,0,0,2,1034,2,-1544
1461,16.828469,1,-1,1,1034,0,-1545
1462,16.840152,0,1,1,1034,0,-1547
1463,16.851804,0,0,1,1032,1,-1551
1464,16.863466,0,0,1,1033,1,-1546
1465,16.875146,1,0,1,1032,0,-1546
1466,16.886705,0,0,1,1034,0,-1539
1467,16.898257,0,0,0,1028,-2,-1547
1468,16.909802,0,0,1,1033,-3,-1555
1469,16.921353,0,1,1,1033,0,-1542
1470,16.932904,1,0,1,1037,0,-1550
1471,16.944505,0,0,1,1033,-3,-1545
1472,16.95608,0,0,0,1034,0,-1551
1473,16.967625,0,0,1,1034,3,-1546
1474,16.979308,0,0,1,1033,1,-1547
1475,16.991054,0,0,2,1029,-1,-1543
1476,17.002721,0,0,1,1034,-1,-1543
1477,17.014388,0,0,2,1029,0,-1544
1478,17.026045,1,1,1,1035,1,-1540
1479,17.037695,1,0,0,1032,1,-1543
1480,17.049346,0,0,1,1030,3,-1541
1481,17.061039,1,0,0,1032,0,-1551
1482,17.072723,0,0,1,1033,2,-1550
1483,17.084384,-1,0,0,1028,-1,-1552
1484,17.09599,0,-1,1,1034,0,-1549
1485,17.107542,1,0,1,1037,-3,-1545
1486,17.1191,1,-1,1,1033,0,-1544
1487,17.13066,0,0,1,1033,2,-1546
1488,17.142215,0,-1,1,1034,1,-1544
1489,17.153774,1,0,1,1031,0,-1545
1490,17.165364,1,0,1,1034,-1,-1546
1491,17.17699,0,0,1,1035,-2,-1545
1492,17.188712,0,-1,1,1037,1,-1545
1493,17.200418,1,0,2,1033,0,-1550
1494,17.212148,1,-1,2,1034,0,-1542
1495,17.223814,1,0,1,1032,-4,-1548
1496,17.235464,1,0,1,1034,2,-1545
1497,17.247121,0,0,1,1034,2,-1545
1498,17.25877,1,0,0,1033,0,-1541
1499,17.270418,1,1,1,1032,4,-1549
1500,17.28207,1,1,0,1035,-3,-1552
1501,17.29363,0,0,1,1033,1,-1542
1502,17.30521,0,0,1,1032,0,-1542
1503,17.316843,1,0,0,1032,1,-1544
1504,17.328386,0,0,1,1031,1,-1549
1505,17.339962,1,0,1,1031,-1,-1544
1506,17.351527,0,0,1,1035,0,-1543
1507,17.363075,0,0,1,1033,0,-1551
1508,17.374625,1,1,1,1033,0,-1537
1509,17.386228,0,0,0,1033,-1,-1543
1510,17.397982,0,0,1,1034,-3,-1537
1511,17.409654,0,0,1,1031,2,-1544
1512,17.421312,1,0,0,1031,0,-1544
1513,17.433,0,0,1,1031,0,-1546
1514,17.444649,0,-1,1,1030,1,-1546
1515,17.456308,0,-1,1,1031,0,-1551
1516,17.468003,1,0,1,1034,1,-1548
1517,17.479639,0,-1,1,1032,1,-1541
1518,17.491321,0,0,1,1032,3,-1544
1519,17.502884,1,0,1,1033,1,-1547
1520,17.514434,0,-1,1,1030,0,-1547
1521,17.525991,0,0,1,1031,0,-1545
1522,17.537591,0,0,0,1035,0,-1552
1523,17.549141,0,0,1,1035,-1,-1544
1524,17.56071,0,0,1,1031,0,-1549
1525,17.572261,0,0,1,1033,-2,-1537
1526,17.583846,0,0,1,1032,0,-1541
1527,17.595506,0,0,0,1034,0,-1540
1528,17.607163,1,0,1,1030,-1,-1546
1529,17.618841,1,0,0,1030,1,-1552
1530,17.6305,0,1,1,1032,-1,-1548
1531,17.642155,1,0,2,1035,4,-1547
1532,17.653825,0,1,1,1034,-3,-1550
1533,17.66553,0,0,1,1031,0,-1544
1534,17.677183,1,0,1,1032,0,-1547
1535,17.688927,-1,0,1,1033,1,-1543
1536,17.700601,0,1,1,1032,-2,-1545
1537,17.712167,0,0,1,1029,1,-1546
1538,17.723754,0,1,1,1032,0,-1550
1539,17.73531,0,0,1,1032,-2,-1542
1540,17.74686,0,0,1,1031,4,-1541
1541,17.758441,0,1,1,1031,4,-1545
1542,17.76999,0,-1,1,1031,-5,-1545
1543,17.781544,0,0,1,1035,2,-1548
1544,17.793106,0,-1,1,1034,0,-1548
1545,17.8048,0,0,2,1034,1,-1544
1546,17.816464,0,1,1,1032,-1,-1548
1547,17.82814,0,1,1,1035,1,-1544
1548,17.839789,0,0,1,1033,-4,-1548
1549,17.851439,0,0,0,1034,3,-1548
1550,17.863117,0,0,0,1035,0,-1553
1551,17.874758,0,0,1,1033,0,-1547
1552,17.886405,0,1,1,1029,0,-1553
1553,17.898103,0,0,1,1032,-3,-1543
1554,17.909746,0,0,0,1032,0,-1548
1555,17.921394,0,0,1,1028,0,-1539
1556,17.933093,0,0,1,1033,0,-1550
1557,17.944769,0,0,1,1029,3,-1540
1558,17.956391,-1,0,1,1031,0,-1548
1559,17.968069,0,0,1,1034,0,-1545
1560,17.979763,1,0,1,1030,-2,-1550
1561,17.991414,0,0,2,1036,0,-1541
1562,18.003109,0,0,1,1035,0,-1545
1563,18.014691,0,0,1,1031,-1,-1543
1564,18.02629,0,0,1,1033,0,-1542
1565,18.037849,1,1,1,1031,0,-1547
1566,18.049423,1,1,1,1030,3,-1546
1567,18.061016,1,0,1,1036,1,-1541
1568,18.072572,0,0,1,1032,0,-1543
1569,18.084096,1,0,1,1033,0,-1550
1570,18.095672,0,0,1,1031,0,-1545
1571,18.107288,0,0,1,1034,-4,-1543
1572,18.118917,1,0,1,1031,-1,-1542
1573,18.130605,0,-1,1,1030,0,-1548
1574,18.142253,0,-1,1,1031,1,-1544
1575,18.153908,0,1,0,1032,0,-1545
1576,18.165609,0,0,1,1033,1,-1542
1577,18.179533,0,0,1,1031,0,-1542
1578,18.191217,0,0,1,1027,0,-1551
1579,18.202872,1,1,0,1033,0,-1541
1580,18.214546,0,0,2,1032,-1,-1545
1581,18.226232,0,-1,0,1034,6,-1547
1582,18.237796,1,-1,1,1030,-1,-1541
1583,18.249358,0,-1,1,1031,0,-1548
1584,18.260946,1,1,2,1030,0,-1544
1585,18.272541,1,-1,1,1034,1,-1549
1586,18.2841,0,0,1,1032,1,-1548
1587,18.295673,0,0,1,1031,0,-1544
1588,18.307219,0,0,0,1029,2,-1550
1589,18.318805,0,0,1,1029,0,-1545
1590,18.330415,0,0,1,1034,0,-1550
1591,18.342085,0,0,1,1034,0,-1545
1592,18.35374,0,0,2,1033,1,-1544
1593,18.36539,0,-1,2,1029,1,-1543
1594,18.377074,0,0,1,1033,-1,-1545
1595,18.38873,0,0,2,1028,0,-1545
1596,18.400414,0,0,1,1034,0,-1535
1597,18.412129,0,1,2,1036,2,-1543
1598,18.423877,0,0,1,1031,1,-1548
1599,18.435471,0,-1,1,1034,-1,-1545
1600,18.447027,1,0,1,1032,3,-1543
1601,18.458589,0,0,0,1034,1,-1548
1602,18.470163,0,-1,1,1034,-2,-1547
1603,18.481733,0,0,1,1031,-2,-1551
1604,18.493295,1,1,1,1031,-4,-1544
1605,18.504822,0,-1,0,1032,-3,-1539
1606,18.516406,1,0,1,1031,0,-1550
1607,18.527979,1,0,1,1030,1,-1548
1608,18.539631,1,0,1,1032,1,-1540
1609,18.551336,0,0,1,1033,-1,-1552
1610,18.562981,0,0,1,1032,0,-1543
1611,18.574629,0,1,1,1028,0,-1543
1612,18.586305,0,1,1,1032,-1,-1548
1613,18.597963,0,0,1,1034,0,-1549
1614,18.609611,0,0,1,1031,4,-1539
1615,18.621285,0,-1,2,1035,0,-1546
1616,18.632994,0,1,1,1035,0,-1542
1617,18.644644,0,0,1,1034,1,-1548
1618,18.656221,0,0,1,1033,-1,-1550
1619,18.667783,0,0,1,1035,1,-1549
1620,18.679327,1,0,1,1027,1,-1537
1621,18.690881,-1,1,1,1033,0,-1544
1622,18.702432,0,0,2,1029,2,-1545
1623,18.713982,0,0,1,1034,1,-1547
1624,18.725541,0,0,1,1031,-2,-1547
1625,18.737235,1,0,1,1031,1,-1549
1626,18.748932,1,0,1,1034,-1,-1545
1627,18.760586,1,0,1,1031,-1,-1543
1628,18.77226,0,0,1,1035,-1,-1544
1629,18.783937,0,1,1,1031,0,-1542
1630,18.795699,0,-1,1,1032,0,-1544
1631,18.807687,0,0,1,1032,-3,-1548
1632,18.819473,1,0,1,1029,-3,-1550
1633,18.831152,1,0,1,1030,-4,-1542
1634,18.842758,0,0,1,1035,0,-1547
1635,18.854319,0,0,1,1033,0,-1545
1636,18.865888,0,1,1,1029,2,-1543
1637,18.877443,0,0,0,1033,0,-1543
1638,18.889015,1,0,1,1033,-1,-1542
1639,18.900579,0,0,1,1030,1,-1547
1640,18.912144,0,0,0,1030,-1,-1549
1641,18.923739,0,0,0,1031,-1,-1543
1642,18.935297,0,0,1,1034,0,-1549
1643,18.946882,0,0,2,1031,1,-1541
1644,18.958433,0,0,1,1030,2,-1548
1645,18.970001,0,0,2,1035,1,-1544
1646,18.981549,0,-1,1,1034,0,-1543
1647,18.993093,0,0,1,1036,0,-1545
1648,19.004652,0,0,1,1034,2,-1549
1649,19.016219,0,-1,1,1032,0,-1539
1650,19.027787,0,0,1,1033,2,-1538
1651,19.039427,0,1,0,1034,1,-1543
1652,19.051082,1,0,1,1035,-3,-1546
1653,19.062732,0,0,1,1031,1,-1541
1654,19.074403,0,-1,1,1032,3,-1541
1655,19.08606,0,0,1,1031,-3,-1535
1656,19.097712,0,0,1,1033,0,-1547
1657,19.109374,0,0,0,1034,-1,-1546
1658,19.121055,0,0,1,1030,-1,-1547
1659,19.132729,1,0,2,1034,0,-1539
1660,19.144423,0,0,2,1031,3,-1544
1661,19.156006,0,0,1,1033,0,-1546
1662,19.16758,1,0,1,1035,1,-1550
1663,19.17913,0,0,1,1032,0,-1543
1664,19.190675,0,0,1,1035,1,-1541
1665,19.202223,0,0,1,1034,0,-1543
1666,19.213789,0,-1,0,1030,-2,-1547
1667,19.225362,0,-1,1,1034,-2,-1548
1668,19.237043,0,0,1,1032,2,-1544
1669,19.248794,0,0,1,1031,-4,-1542
1670,19.260481,1,0,1,1030,1,-1542
1671,19.272131,0,0,1,1035,-2,-1542
1672,19.283809,0,1,1,1033,-2,-1546
1673,19.295453,1,0,2,1030,0,-1546
1674,19.307121,0,0,2,1034,-1,-1544
1675,19.318768,0,0,1,1029,-2,-1546
1676,19.330423,0,0,1,1033,0,-1544
1677,19.3421,0,0,1,1035,1,-1546
1678,19.3538,0,0,2,1030,-2,-1546
1679,19.365362,0,0,2,1034,-1,-1549
1680,19.376993,0,0,1,1031,1,-1554
1681,19.388588,0,1,1,1034,4,-1545
1682,19.400137,0,0,0,1029,2,-1541
1683,19.411714,0,0,0,1031,0,-1553
1684,19.423356,0,0,1,1033,-2,-1544
1685,19.434908,0,0,2,1033,3,-1543
1686,19.446479,0,0,1,1032,-1,-1545
1687,19.458175,1,0,1,1032,-5,-1545
1688,19.469829,1,1,1,1036,1,-1540
1689,19.481481,0,0,2,1035,-1,-1541
1690,19.493178,0,0,0,1030,2,-1544
1691,19.504825,0,-1,1,1036,1,-1540
1692,19.516497,0,0,1,1034,0,-1551
1693,19.528147,0,0,1,1036,1,-1538
1694,19.539858,-1,1,1,1029,0,-1540
1695,19.551552,1,0,2,1038,1,-1555
1696,19.563224,0,1,1,1033,-1,-1545
1697,19.57488,1,0,1,1027,0,-1549
1698,19.586555,0,0,2,1031,0,-1543
1699,19.598204,1,0,1,1030,-1,-1552
1700,19.60985,1,0,1,1032,-2,-1546
1701,19.621517,0,0,2,1030,0,-1545
1702,19.633169,0,0,1,1030,2,-1547
1703,19.644825,0,1,1,1031,1,-1543
1704,19.656524,1,0,1,1034,3,-1541
1705,19.668208,1,1,1,1033,-1,-1545
1706,19.679781,0,0,1,1029,-1,-1543
1707,19.691351,0,1,1,1035,3,-1544
1708,19.702893,0,1,1,1032,-4,-1546
1709,19.714437,0,1,1,1032,0,-1545
1710,19.725987,1,-1,1,1031,-4,-1546
1711,19.73756,0,0,1,1028,-2,-1542
1712,19.749114,1,0,1,1031,2,-1547
1713,19.760749,1,0,1,1034,0,-1542
1714,19.7724,0,1,2,1036,0,-1547
1715,19.784069,0,1,1,1035,0,-1546
1716,19.79574,-1,0,1,1031,-1,-1544
1717,19.807397,0,0,1,1032,1,-1542
1718,19.819053,1,0,1,1030,0,-1547
1719,19.830749,1,0,1,1031,-3,-1544
1720,19.842396,0,0,0,1032,-1,-1543
1721,19.85405,0,0,1,1032,1,-1543
1722,19.865731,1,0,1,1033,1,-1542
1723,19.87737,0,0,1,1031,1,-1543
1724,19.888977,0,0,1,1036,1,-1539
1725,19.900582,0,0,2,1034,-1,-1547
1726,19.912128,0,1,1,1032,-1,-1546
1727,19.92368,0,-1,0,1031,-1,-1543
1728,19.935229,0,1,1,1032,-1,-1548
1729,19.946776,0,0,1,1033,-1,-1542
1730,19.958342,0,0,1,1031,1,-1548
1731,19.969962,0,1,1,1034,0,-1547
1732,19.981597,0,0,1,1029,0,-1548
1733,19.993269,0,1,1,1035,-2,-1542
1734,20.004903,0,0,1,1029,-2,-1545
1735,20.016562,0,-1,1,1034,0,-1544
1736,20.028262,1,-1,1,1036,-2,-1544
1737,20.039885,0,0,1,1033,3,-1542
1738,20.051543,1,0,1,1028,0,-1546
1739,20.063229,0,1,1,1032,1,-1545
1740,20.074898,0,1,1,1029,0,-1543
1741,20.086569,0,0,0,1036,1,-1540
1742,20.09813,0,0,0,1031,0,-1544
1743,20.109695,0,1,1,1032,0,-1542
1744,20.121236,0,0,1,1032,0,-1545
1745,20.13282,1,0,1,1031,0,-1544
1746,20.144337,0,0,1,1038,2,-1547
1747,20.155855,0,0,0,1028,0,-1541
1748,20.167399,0,0,1,1034,3,-1547
1749,20.17896,0,0,1,1032,-2,-1542
1750,20.190611,0,0,1,1033,-1,-1547
1751,20.202261,0,0,1,1032,0,-1545
1752,20.213912,0,0,1,1034,3,-1541
1753,20.225558,1,0,1,1033,-3,-1546
1754,20.237208,0,0,1,1031,0,-1541
1755,20.248896,0,0,1,1036,-1,-1546
1756,20.260737,0,1,0,1033,0,-1539
1757,20.272402,1,0,2,1032,2,-1540
1758,20.284133,0,0,1,1032,0,-1543
1759,20.295815,0,-1,0,1032,0,-1541
1760,20.307479,0,0,1,1031,5,-1548
1761,20.319136,0,0,1,1033,1,-1547
1762,20.330815,0,0,2,1033,-1,-1547
1763,20.342486,1,1,1,1031,1,-1547
1764,20.354124,0,0,0,1033,2,-1545
1765,20.365774,0,0,1,1035,1,-1547
1766,20.377444,1,0,1,1034,0,-1547
1767,20.389119,0,0,1,1029,0,-1549
1768,20.400827,1,1,1,1033,5,-1541
1769,20.412428,0,1,0,1033,3,-1548
1770,20.423992,0,1,1,1029,3,-1550
1771,20.43554,0,-1,1,1032,-1,-1543
1772,20.447089,1,0,0,1035,2,-1545
1773,20.458649,0,1,1,1031,0,-1547
1774,20.470303,0,0,0,1030,3,-1553
1775,20.481865,1,0,0,1033,1,-1540
1776,20.493445,0,0,1,1035,1,-1545
1777,20.505125,0,1,1,1037,0,-1544
1778,20.516797,0,1,1,1030,2,-1547
1779,20.528467,0,0,1,1034,1,-1542
1780,20.540143,1,0,1,1032,0,-1545
1781,20.551795,0,0,1,1029,1,-1548
1782,20.563449,0,0,1,1032,4,-1547
1783,20.575111,0,0,1,1033,0,-1545
1784,20.586758,1,0,1,1031,-1,-1545
1785,20.598429,0,-1,1,1036,0,-1546
1786,20.610116,0,0,1,1034,3,-1541
1787,20.621671,0,0,0,1033,-1,-1545
1788,20.633228,0,0,1,1030,-3,-1543
1789,20.644822,0,1,1,1033,2,-1552
1790,20.656424,1,-1,1,1034,-2,-1549
1791,20.667991,0,0,0,1026,-1,-1545
1792,20.679547,0,0,1,1036,-1,-1546
1793,20.691089,1,0,1,1032,-1,-1548
1794,20.702668,0,0,1,1033,-4,-1540
1795,20.714322,0,0,1,1033,-3,-1545
1796,20.725983,0,-1,1,1034,-2,-1550
1797,20.737639,1,1,0,1032,0,-1546
1798,20.749285,0,0,1,1034,1,-1548
1799,20.760915,0,1,1,1033,0,-1540
1800,20.772602,0,0,1,1034,2,-1546
1801,20.784273,0,0,1,1033,0,-1549
1802,20.79593,0,0,2,1032,0,-1541
1803,20.807633,1,0,1,1033,0,-1541
1804,20.819292,0,0,1,1033,-3,-1539
1805,20.830881,0,0,1,1032,2,-1537
1806,20.84245,0,0,1,1032,1,-1541
1807,20.854005,1,0,0,1032,4,-1541
1808,20.865565,0,0,1,1030,-1,-1543
1809,20.877165,1,1,1,1031,-2,-1540
1810,20.888721,1,0,0,1029,0,-1540
1811,20.900285,1,0,2,1032,0,-1539
1812,20.911857,0,0,2,1032,0,-1546
1813,20.923475,0,0,1,1033,2,-1542
1814,20.93512,0,0,1,1033,-1,-1542
1815,20.946791,0,0,1,1036,0,-1538
1816,20.958456,1,-1,1,1033,0,-1545
1817,20.970103,0,-1,1,1030,0,-1545
1818,20.981757,0,0,0,1035,-3,-1544
1819,20.993439,0,0,1,1030,0,-1542
1820,21.005086,0,0,0,1031,-1,-1544
1821,21.016808,0,0,1,1034,1,-1548
1822,21.028482,0,0,1,1029,-2,-1545
1823,21.040049,0,0,1,1033,0,-1543
1824,21.051613,0,0,2,1030,-1,-1540
1825,21.063161,1,0,0,1032,1,-1544
1826,21.074722,0,0,1,1028,-1,-1550
1827,21.086272,0,1,1,1033,2,-1547
1828,21.097822,1,0,1,1032,4,-1543
1829,21.109395,0,1,2,1031,0,-1545
1830,21.120963,0,0,2,1037,-3,-1546
1831,21.132591,0,0,1,1029,-3,-1549
1832,21.144267,0,1,0,1027,-5,-1545
1833,21.155931,1,0,1,1032,0,-1540
1834,21.167615,0,0,1,1032,-4,-1549
1835,21.179267,0,-1,1,1032,4,-1538
1836,21.190928,0,1,0,1035,2,-1542
1837,21.202584,0,1,0,1032,1,-1544
1838,21.214228,0,0,1,1034,1,-1547
1839,21.225888,0,0,2,1036,-2,-1541
1840,21.237546,0,0,1,1037,-1,-1540
1841,21.249102,0,0,1,1031,1,-1547
1842,21.260656,0,1,1,1030,1,-1547
1843,21.272216,1,-1,1,1034,0,-1541
1844,21.283771,0,0,1,1034,0,-1548
1845,21.295344,0,1,1,1030,1,-1547
1846,21.306898,1,-1,1,1030,0,-1546
1847,21.318446,0,0,1,1032,-2,-1546
1848,21.330009,0,1,1,1035,-1,-1542
1849,21.341618,1,1,1,1033,1,-1544
1850,21.353296,1,0,1,1034,0,-1550
1851,21.364952,0,0,1,1033,0,-1546
1852,21.376632,0,-1,1,1033,0,-1542
1853,21.388307,0,0,1,1035,-1,-1550
1854,21.400022,0,1,1,1032,0,-1540
1855,21.411687,1,0,0,1032,-3,-1543
1856,21.423341,0,0,1,1032,-1,-1545
1857,21.435037,0,0,0,1028,1,-1543
1858,21.446691,0,-1,0,1029,1,-1538
1859,21.458263,1,0,0,1036,-2,-1547
1860,21.469825,0,0,1,1031,-2,-1544
1861,21.481383,1,1,1,1036,-1,-1544
1862,21.492949,1,0,0,1033,1,-1543
1863,21.504516,1,0,1,1033,3,-1547
1864,21.516089,0,0,0,1034,-3,-1547
1865,21.527609,0,0,1,1035,2,-1541
1866,21.539171,1,0,1,1032,0,-1541
1867,21.5508,0,0,0,1031,4,-1546
1868,21.562454,0,1,0,1032,-2,-1538
1869,21.574106,-1,-1,1,1031,1,-1543
1870,21.585749,1,0,0,1031,2,-1542
1871,21.597407,0,-1,1,1036,-2,-1548
1872,21.609075,0,0,1,1031,0,-1549
1873,21.620742,0,0,1,1032,0,-1538
1874,21.632403,0,0,0,1033,-2,-1544
1875,21.644081,0,0,0,1033,0,-1546
1876,21.655755,1,-1,1,1027,-3,-1545
1877,21.667415,0,0,1,1032,0,-1548
1878,21.679067,0,0,1,1033,2,-1540
1879,21.690717,0,0,1,1034,1,-1540
1880,21.702388,1,1,1,1031,-3,-1543
1881,21.714056,0,0,1,1033,-1,-1551
1882,21.72571,1,1,0,1032,0,-1544
1883,21.737378,0,-1,1,1035,0,-1547
1884,21.749052,0,0,0,1032,0,-1543
1885,21.760604,0,0,1,1032,6,-1542
1886,21.772154,0,0,0,1033,1,-1546
1887,21.783727,1,1,1,1036,-2,-1545
1888,21.795274,1,1,2,1030,2,-1546
1889,21.806837,0,0,1,1032,0,-1547
1890,21.818386,1,1,1,1031,0,-1543
1891,21.829962,0,0,1,1036,-1,-1544
1892,21.841514,0,0,1,1034,-1,-1546
1893,21.853104,0,0,1,1033,0,-1550
1894,21.864788,1,0,1,1030,-1,-1543
1895,21.876452,0,-1,1,1036,1,-1543
1896,21.888136,0,0,2,1035,0,-1546
1897,21.899803,0,1,2,1033,1,-1543
1898,21.911451,0,1,1,1033,0,-1545
1899,21.923121,1,0,1,1034,-2,-1540
1900,21.934775,0,0,1,1031,0,-1550
1901,21.946435,0,0,-1,1034,5,-1545
1902,21.958091,0,0,1,1033,0,-1549
1903,21.969742,0,1,1,1033,0,-1546
1904,21.981402,-1,1,0,1032,-2,-1540
1905,21.993066,1,1,1,1038,0,-1537
1906,22.004728,0,0,1,1034,2,-1547
1907,22.016403,0,0,1,1035,1,-1547
1908,22.028064,1,0,1,1032,-2,-1543
1909,22.039742,0,0,1,1029,0,-1542
1910,22.051431,0,0,0,1032,3,-1535
1911,22.063091,0,0,1,1030,-1,-1548
1912,22.07475,0,1,0,1035,-2,-1548
1913,22.086407,0,0,0,1034,2,-1543
1914,22.098063,0,0,1,1032,0,-1551
1915,22.10971,1,0,2,1034,-4,-1546
1916,22.121379,1,-1,1,1030,-1,-1540
1917,22.133069,1,0,0,1032,-2,-1540
1918,22.14475,0,1,1,1034,6,-1551
1919,22.15643,-1,1,0,1028,-3,-1548
1920,22.168128,0,-1,1,1031,0,-1544
1921,22.179814,0,0,1,1031,0,-1547
1922,22.191461,0,0,0,1032,-3,-1545
1923,22.203123,1,1,1,1034,0,-1549
1924,22.214776,0,0,1,1034,-1,-1543
1925,22.226419,0,0,1,1033,0,-1545
1926,22.238069,1,-1,1,1033,2,-1543
1927,22.249742,1,0,1,1031,1,-1543
1928,22.26141,1,0,1,1034,-1,-1541
1929,22.273073,0,0,2,1035,0,-1546
1930,22.28464,1,1,1,1034,0,-1542
1931,22.296221,0,-1,2,1035,0,-1546
1932,22.307778,0,0,1,1029,0,-1541
1933,22.319331,0,0,1,1034,2,-1552
1934,22.330882,0,0,1,1030,0,-1548
1935,22.342433,0,0,0,1029,-2,-1547
1936,22.353978,1,0,2,1034,1,-1543
1937,22.365531,1,0,2,1034,0,-1548
1938,22.37715,0,0,1,1035,-1,-1541
1939,22.38882,-1,0,1,1032,2,-1544
1940,22.40047,0,0,0,1035,-4,-1546
1941,22.412143,0,0,1,1031,-2,-1539
1942,22.423798,0,0,1,1034,2,-1546
1943,22.435441,1,0,1,1035,-1,-1548
1944,22.447087,1,1,1,1034,0,-1545
1945,22.458754,0,0,1,1034,2,-1551
1946,22.470411,1,1,1,1034,3,-1544
1947,22.482076,1,0,1,1035,0,-1543
1948,22.493649,0,0,2,1030,-2,-1544
1949,22.505234,0,0,1,1032,2,-1542
1950,22.516822,0,1,0,1034,1,-1546
1951,22.528342,0,-1,2,1031,-1,-1538
1952,22.539917,0,0,1,1029,-2,-1543
1953,22.551488,0,0,1,1034,-2,-1552
1954,22.563084,0,0,1,1033,0,-1540
1955,22.574648,0,1,1,1033,-1,-1541
1956,22.58626,0,0,1,1038,1,-1551
1957,22.597916,1,0,1,1030,-1,-1549
1958,22.609561,0,0,1,1032,3,-1543
1959,22.621239,1,0,1,1033,-1,-1542
1960,22.632918,0,0,2,1035,0,-1543
1961,22.644608,0,0,1,1031,3,-1550
1962,22.656275,0,0,2,1034,-1,-1550
1963,22.667934,0,0,1,1031,0,-1545
1964,22.679638,0,1,0,1033,-1,-1547
1965,22.691287,0,0,1,1028,0,-1544
1966,22.702839,1,0,0,1029,1,-1547
1967,22.714383,1,0,1,1032,0,-1544
1968,22.725929,1,0,0,1033,0,-1543
1969,22.737474,1,0,1,1035,-3,-1543
1970,22.749058,1,-1,1,1032,0,-1545
1971,22.760575,0,0,1,1034,3,-1547
1972,22.772158,0,0,0,1034,1,-1546
1973,22.783735,0,0,0,1031,1,-1549
1974,22.795363,0,0,1,1035,0,-1542
1975,22.807054,1,1,1,1032,1,-1539
1976,22.818713,0,0,1,1034,-3,-1546
1977,22.830368,1,0,1,1036,1,-1548
1978,22.842018,0,0,1,1030,-2,-1540
1979,22.853665,1,0,1,1029,0,-1552
1980,22.865313,0,0,1,1031,-2,-1546
1981,22.877015,0,0,1,1030,-2,-1554
1982,22.888667,0,0,1,1035,2,-1543
1983,22.900375,0,0,1,1032,0,-1549
1984,22.911938,1,0,0,1033,0,-1541
1985,22.923499,1,0,1,1030,0,-1543
1986,22.935051,0,0,1,1034,-1,-1544
1987,22.946595,0,0,1,1030,0,-1543
1988,22.95814,0,0,1,1035,0,-1546
1989,22.969691,0,0,1,1032,0,-1545
1990,22.981288,0,-1,1,1033,1,-1539
1991,22.992838,0,1,1,1032,2,-1548
1992,23.004485,1,-1,1,1033,0,-1536
1993,23.016148,0,0,1,1034,0,-1542
1994,23.027805,0,0,1,1030,-4,-1547
1995,23.039482,0,0,1,1030,5,-1542
1996,23.051143,0,1,1,1030,0,-1543
1997,23.062794,1,0,1,1030,1,-1545
1998,23.074458,1,0,0,1034,4,-1544
1999,23.086126,0,0,0,1034,2,-1545
