sample,t_s,gyro_x,gyro_y,gyro_z,accel_x,accel_y,accel_z
0,1.1e-05,1,7,8,10,25,-1024
1,0.011346,2,8,9,13,29,-1021
2,0.022554,2,5,9,12,37,-1020
3,0.033753,2,6,10,13,25,-1022
4,0.044941,2,5,10,12,31,-1018
5,0.056128,2,6,9,13,31,-1024
6,0.067308,2,7,9,12,31,-1024
7,0.078489,2,6,9,10,34,-1021
8,0.089673,2,7,9,15,31,-1023
9,0.100858,2,6,10,15,31,-1020
10,0.112044,2,7,10,15,33,-1025
11,0.123231,2,6,9,12,29,-1025
12,0.134414,2,6,9,12,32,-1024
13,0.145598,2,5,9,8,31,-1023
14,0.156785,2,5,10,14,30,-1023
15,0.167988,3,6,9,8,30,-1018
16,0.179171,2,7,9,9,30,-1025
17,0.190353,3,7,9,13,26,-1022
18,0.20154,3,7,8,11,31,-1024
19,0.212723,3,7,9,6,31,-1027
20,0.223908,2,6,9,11,30,-1018
21,0.235093,2,7,10,9,32,-1019
22,0.246275,3,7,8,9,33,-1012
23,0.257474,2,6,10,7,32,-1022
24,0.268659,2,6,9,11,33,-1020
25,0.27984,2,6,9,8,25,-1021
26,0.291022,3,7,10,14,29,-1019
27,0.302207,2,7,9,9,30,-1018
28,0.313387,3,7,9,14,32,-1024
29,0.324534,2,7,9,11,32,-1021
30,0.335715,2,7,8,12,30,-1019
31,0.346897,3,6,10,11,27,-1022
32,0.358077,2,7,9,10,28,-1028
33,0.369266,2,6,9,6,33,-1023
34,0.380457,2,6,8,10,30,-1022
35,0.391636,2,6,8,10,31,-1015
36,0.402827,2,7,9,10,30,-1027
37,0.414008,2,7,10,8,28,-1018
38,0.425189,3,7,9,14,29,-1026
39,0.436349,3,6,9,11,33,-1016
40,0.447528,2,6,9,10,31,-1021
41,0.458708,2,7,8,9,30,-1024
42,0.469891,3,7,9,8,32,-1019
43,0.481082,3,6,10,11,30,-1022
44,0.492275,2,5,10,8,32,-1025
45,0.503457,2,6,9,11,32,-1033
46,0.514638,2,6,9,9,30,-1021
47,0.525819,1,6,10,9,30,-1024
48,0.537,2,6,10,10,31,-1017
49,0.548166,3,6,9,11,31,-1025
50,0.559355,3,5,8,13,30,-1024
51,0.570537,2,6,8,12,28,-1017
52,0.581723,2,6,9,11,31,-1021
53,0.592906,3,6,8,9,31,-1026
54,0.6041,2,6,9,13,26,-1014
55,0.615287,3,8,8,10,31,-1029
56,0.626467,3,7,9,12,33,-1018
57,0.637653,3,7,10,6,31,-1017
58,0.648843,3,6,9,9,29,-1021
59,0.660028,2,5,9,8,33,-1024
60,0.671216,2,6,9,18,29,-1025
61,0.682396,2,7,9,11,29,-1026
62,0.693584,2,7,9,16,27,-1019
63,0.704769,3,5,9,7,31,-1024
64,0.715956,2,6,9,10,30,-1020
65,0.727144,2,6,9,12,30,-1026
66,0.738326,2,5,8,10,27,-1025
67,0.74951,2,5,9,8,29,-1012
68,0.760757,2,5,9,5,34,-1019
69,0.77195,2,6,10,15,28,-1020
70,0.783139,2,5,10,9,32,-1018
71,0.79432,2,5,9,11,28,-1020
72,0.805501,2,5,9,7,25,-1022
73,0.816688,2,6,9,11,30,-1022
74,0.827872,2,5,9,9,31,-1020
75,0.839052,2,6,9,12,27,-1018
76,0.850234,2,6,9,10,32,-1020
77,0.861421,2,6,10,9,32,-1024
78,0.872609,3,6,9,11,30,-1021
79,0.883795,2,5,10,6,31,-1016
80,0.894981,2,5,9,7,32,-1017
81,0.906164,2,5,8,8,31,-1020
82,0.91736,2,6,8,10,34,-1025
83,0.928534,3,5,8,11,31,-1018
84,0.939726,3,6,8,6,31,-1022
85,0.950911,2,5,9,11,32,-1019
86,0.962092,2,5,8,8,34,-1022
87,0.973289,2,6,9,9,29,-1021
88,0.984479,2,6,10,10,28,-1020
89,0.99566,3,7,10,11,30,-1022
90,1.006851,2,7,10,10,33,-1022
91,1.018033,2,6,10,9,33,-1029
92,1.02926,2,6,9,11,31,-1017
93,1.040589,2,6,9,8,29,-1019
94,1.051794,2,6,9,9,28,-1024
95,1.06298,3,6,8,4,31,-1025
96,1.074165,3,7,9,12,30,-1025
97,1.085348,2,5,8,8,32,-1021
98,1.096536,2,6,9,14,29,-1018
99,1.107718,2,7,9,10,32,-1019
100,1.118926,3,7,9,12,30,-1015
101,1.130106,2,6,9,10,32,-1013
102,1.14129,2,6,9,16,31,-1017
103,1.152476,2,5,9,11,34,-1017
104,1.163657,2,4,9,12,33,-1018
105,1.174836,2,5,10,12,31,-1021
106,1.186015,2,6,10,14,33,-1026
107,1.197194,2,7,8,11,28,-1021
108,1.208349,3,7,9,9,32,-1024
109,1.21953,2,8,10,12,31,-1022
110,1.23071,2,7,9,11,32,-1028
111,1.241889,3,7,9,11,28,-1017
112,1.25307,3,6,8,11,29,-1024
113,1.264254,2,5,8,10,28,-1027
114,1.275435,2,6,8,7,32,-1023
115,1.286613,2,5,10,12,29,-1021
116,1.297801,2,5,10,11,29,-1019
117,1.308987,2,4,9,10,30,-1024
118,1.320165,1,4,9,12,31,-1021
119,1.331346,2,5,10,12,33,-1020
120,1.342529,2,6,9,10,32,-1027
121,1.353729,2,5,9,10,32,-1026
122,1.364913,2,6,9,12,27,-1022
123,1.376101,3,6,9,8,32,-1024
124,1.387287,3,7,9,10,31,-1030
125,1.398471,3,7,8,9,28,-1024
126,1.409663,2,6,8,11,29,-1014
127,1.420852,2,6,10,12,33,-1019
128,1.432037,2,6,9,7,33,-1024
129,1.443223,3,6,10,11,28,-1026
130,1.454403,2,6,8,12,29,-1018
131,1.465587,2,7,10,11,33,-1023
132,1.476787,3,7,9,9,31,-1023
133,1.487981,2,5,9,5,29,-1022
134,1.499167,2,6,9,8,30,-1022
135,1.510349,3,6,8,9,32,-1021
136,1.521528,2,6,9,11,30,-1027
137,1.532715,2,6,8,10,29,-1022
138,1.543905,3,6,9,7,31,-1022
139,1.555083,2,6,9,11,31,-1013
140,1.566262,2,6,8,9,35,-1021
141,1.577446,3,5,9,14,31,-1024
142,1.588647,3,7,9,9,31,-1028
143,1.599796,2,7,9,13,32,-1017
144,1.610975,3,7,9,13,32,-1019
145,1.622153,3,7,9,13,31,-1024
146,1.633332,3,5,9,11,31,-1026
147,1.644522,3,7,8,10,32,-1020
148,1.655702,3,6,9,13,34,-1018
149,1.666886,3,5,9,12,28,-1024
150,1.678079,2,5,9,6,30,-1022
151,1.689259,3,6,8,9,32,-1021
152,1.700451,3,7,8,12,28,-1019
153,1.711631,2,7,9,9,35,-1021
154,1.722812,2,6,9,11,33,-1019
155,1.733993,2,6,9,14,30,-1020
156,1.745176,2,5,9,8,29,-1021
157,1.756354,2,5,9,12,28,-1022
158,1.767537,2,6,9,11,33,-1019
159,1.778719,2,6,10,9,32,-1025
160,1.789905,2,5,10,13,31,-1020
161,1.801084,1,5,10,12,32,-1020
162,1.812275,2,6,10,12,32,-1021
163,1.823466,3,6,9,12,30,-1022
164,1.83466,2,6,8,13,18,-1015
165,1.845844,2,6,9,7,24,-1018
166,1.85703,3,7,9,10,31,-1024
167,1.868215,2,6,10,9,34,-1025
168,1.879402,2,6,9,9,33,-1019
169,1.890582,3,7,9,12,32,-1021
170,1.901733,3,7,9,12,30,-1015
171,1.91292,3,7,9,10,29,-1022
172,1.924114,2,6,10,9,32,-1019
173,1.935328,1,6,9,14,33,-1025
174,1.946513,3,6,10,10,33,-1023
175,1.957697,2,5,10,11,29,-1024
176,1.968905,2,7,10,12,30,-1021
177,1.980095,2,7,8,11,27,-1017
178,1.991277,2,6,9,12,33,-1023
179,2.002463,3,7,9,13,28,-1020
180,2.013646,3,8,8,11,28,-1020
181,2.024831,2,8,8,9,31,-1022
182,2.035981,3,8,8,14,33,-1019
183,2.047162,3,7,9,11,32,-1023
184,2.058342,3,8,8,10,29,-1020
185,2.069524,2,7,9,10,26,-1026
186,2.080716,2,7,9,11,29,-1025
187,2.091905,2,7,9,12,31,-1030
188,2.103084,1,6,8,9,33,-1024
189,2.114262,3,8,8,8,33,-1022
190,2.125441,2,6,8,6,35,-1023
191,2.136623,2,5,8,10,31,-1018
192,2.147795,2,6,9,8,32,-1025
193,2.15898,2,6,9,12,34,-1022
194,2.170161,1,6,8,12,32,-1016
195,2.181357,1,6,9,8,32,-1022
196,2.19256,1,5,10,12,33,-1025
197,2.203741,2,6,9,12,31,-1018
198,2.214924,3,7,9,13,32,-1025
199,2.226107,3,7,8,11,33,-1019
200,2.237289,2,8,9,10,29,-1017
201,2.248486,3,7,9,9,31,-1018
202,2.259668,3,7,9,8,33,-1020
203,2.270857,3,7,10,13,32,-1017
204,2.282042,2,6,9,11,27,-1024
205,2.293225,2,6,10,9,32,-1021
206,2.304416,2,6,10,9,31,-1024
207,2.315596,2,6,9,9,30,-1025
208,2.326779,2,6,10,13,29,-1018
209,2.337961,3,7,10,10,28,-1021
210,2.349151,3,6,10,9,34,-1027
211,2.360344,2,5,9,9,28,-1020
212,2.371523,2,6,9,8,29,-1024
213,2.382704,2,5,9,10,29,-1022
214,2.393896,2,5,10,13,32,-1024
215,2.405077,2,5,10,11,33,-1019
216,2.41627,2,6,9,8,34,-1025
217,2.427454,2,6,9,13,32,-1026
218,2.438638,2,6,9,11,32,-1016
219,2.449821,3,6,9,10,31,-1018
220,2.461004,2,6,8,11,31,-1012
221,2.472164,2,6,9,9,26,-1021
222,2.483342,2,6,9,11,33,-1020
223,2.494522,3,6,8,11,29,-1025
224,2.505703,2,5,9,10,30,-1023
225,2.516898,3,7,9,11,29,-1019
226,2.528097,2,5,8,8,31,-1019
227,2.53928,2,5,10,12,27,-1019
228,2.550475,2,6,9,11,31,-1018
229,2.561659,2,5,9,9,29,-1016
230,2.572847,2,6,9,8,32,-1021
231,2.584034,2,6,9,9,30,-1023
232,2.595213,2,6,8,11,28,-1022
233,2.606394,3,4,9,8,30,-1020
234,2.617574,3,6,8,7,32,-1023
235,2.628718,3,6,8,6,28,-1024
236,2.639909,2,6,9,6,33,-1020
237,2.651096,1,4,9,9,32,-1022
238,2.662282,2,4,10,13,27,-1024
239,2.673469,2,5,8,9,29,-1019
240,2.684698,2,6,8,11,30,-1015
241,2.695918,2,6,8,12,31,-1024
242,2.707106,3,8,9,11,32,-1014
243,2.71829,2,7,8,14,31,-1019
244,2.729473,3,7,9,11,30,-1027
245,2.740661,3,7,9,11,34,-1020
246,2.751845,3,8,9,9,32,-1020
247,2.763027,3,8,9,10,31,-1025
248,2.774211,2,7,9,8,30,-1019
249,2.785394,3,7,9,11,29,-1019
250,2.79659,2,7,9,9,31,-1021
251,2.807773,2,7,8,13,31,-1017
252,2.818964,2,6,10,11,31,-1020
253,2.830145,2,6,10,11,30,-1021
254,2.841333,3,6,9,12,29,-1026
255,2.852528,3,6,9,10,31,-1022
256,2.863708,2,5,8,10,30,-1022
257,2.874892,2,6,9,11,33,-1023
258,2.886072,3,5,9,12,32,-1017
259,2.897259,2,6,9,10,30,-1021
260,2.908462,2,6,9,6,29,-1022
261,2.919641,2,7,9,12,31,-1021
262,2.93083,3,6,9,12,29,-1024
263,2.942044,3,6,9,13,33,-1027
264,2.953229,2,5,9,7,29,-1014
265,2.964413,3,6,8,15,30,-1024
266,2.975597,2,6,9,7,31,-1016
267,2.986779,2,6,8,10,30,-1024
268,2.997959,2,6,9,10,29,-1022
269,3.009144,2,6,9,12,28,-1012
270,3.020349,2,6,9,8,31,-1021
271,3.031568,3,7,9,11,33,-1021
272,3.042753,3,8,9,9,32,-1019
273,3.053936,2,6,9,8,29,-1022
274,3.065117,2,6,9,10,32,-1023
275,3.076302,3,7,8,8,26,-1025
276,3.087482,3,8,8,13,32,-1020
277,3.098667,2,7,9,5,32,-1020
278,3.109853,2,6,8,13,30,-1019
279,3.121035,3,7,8,7,32,-1022
280,3.132221,3,6,9,10,30,-1022
281,3.143403,3,7,9,12,31,-1018
282,3.154589,3,6,9,9,26,-1025
283,3.165771,2,6,8,11,28,-1019
284,3.176959,3,7,8,13,32,-1019
285,3.188158,3,7,9,13,31,-1025
286,3.199341,2,6,9,9,31,-1030
287,3.210531,2,6,8,12,34,-1015
288,3.221727,2,6,9,9,32,-1020
289,3.23291,3,6,9,11,28,-1021
290,3.244099,2,5,9,12,34,-1019
291,3.255293,3,6,9,14,31,-1026
292,3.266473,2,7,9,13,30,-1024
293,3.277652,2,7,9,9,31,-1016
294,3.288835,3,6,9,10,32,-1020
295,3.299981,3,6,9,12,29,-1018
296,3.311161,2,6,9,11,30,-1025
297,3.322342,2,6,9,12,31,-1022
298,3.333522,2,5,8,9,32,-1015
299,3.344714,1,6,8,11,29,-1018
300,3.355907,2,6,8,10,33,-1018
301,3.367087,2,6,9,14,31,-1026
302,3.378265,3,6,9,10,34,-1020
303,3.389447,2,6,9,13,30,-1021
304,3.40064,3,5,8,8,33,-1024
305,3.411795,3,6,9,12,31,-1020
306,3.422991,3,6,10,10,31,-1020
307,3.434171,3,6,9,8,30,-1023
308,3.445358,2,6,10,9,33,-1022
309,3.456542,2,7,9,9,31,-1023
310,3.467726,2,6,10,9,28,-1028
311,3.478906,3,6,10,12,30,-1021
312,3.490091,2,6,10,9,27,-1022
313,3.501272,3,8,10,11,29,-1017
314,3.512471,2,6,10,10,29,-1026
315,3.523657,2,5,9,11,29,-1020
316,3.53484,2,5,8,9,27,-1016
317,3.546032,2,5,9,14,33,-1018
318,3.557215,2,6,8,13,29,-1023
319,3.568406,2,6,8,13,31,-1026
320,3.579587,2,6,8,10,34,-1022
321,3.590772,2,6,9,5,31,-1024
322,3.601956,2,5,9,9,32,-1011
323,3.613148,2,4,9,11,30,-1020
324,3.624346,2,6,9,8,31,-1023
325,3.635527,2,6,9,6,32,-1024
326,3.646712,2,6,9,9,29,-1015
327,3.657895,2,6,9,13,32,-1017
328,3.669087,2,7,9,11,30,-1021
329,3.680274,3,6,9,10,31,-1016
330,3.691455,2,5,10,10,35,-1021
331,3.702635,3,6,9,9,32,-1019
332,3.713819,2,6,9,12,28,-1022
333,3.725003,2,6,9,12,30,-1027
334,3.736163,2,6,8,7,31,-1023
335,3.747344,2,7,9,10,32,-1017
336,3.758522,2,6,9,11,35,-1023
337,3.769701,2,6,10,11,34,-1024
338,3.780894,2,4,10,10,31,-1021
339,3.792084,2,5,9,11,27,-1025
340,3.803265,2,7,9,11,31,-1021
341,3.814449,2,4,10,12,30,-1021
342,3.825626,1,5,9,11,28,-1022
343,3.836813,1,5,9,14,31,-1021
344,3.847981,2,5,9,14,31,-1018
345,3.859161,3,6,8,11,30,-1025
346,3.870339,2,4,8,10,32,-1018
347,3.881518,1,5,10,12,30,-1026
348,3.89271,2,5,8,11,29,-1020
349,3.9039,2,5,9,10,29,-1022
350,3.915078,2,6,10,11,35,-1018
351,3.926256,1,5,9,13,31,-1020
352,3.937434,2,5,9,12,30,-1021
353,3.948621,2,6,9,10,29,-1022
354,3.959796,2,7,9,9,29,-1019
355,3.970996,2,7,9,12,29,-1021
356,3.982184,3,6,9,8,34,-1026
357,3.993365,2,5,8,11,34,-1022
358,4.004536,3,5,9,16,26,-1020
359,4.015718,2,6,8,8,30,-1017
360,4.026904,3,6,9,8,35,-1015
361,4.038088,3,6,9,10,30,-1024
362,4.049276,3,6,9,8,33,-1021
363,4.060468,2,6,9,14,33,-1020
364,4.071651,2,6,9,12,31,-1025
365,4.082831,2,6,9,10,32,-1019
366,4.094012,3,7,9,11,32,-1023
367,4.105189,3,7,9,9,33,-1017
368,4.116348,3,5,9,14,36,-1017
369,4.127531,2,6,9,10,30,-1025
370,4.138712,2,6,10,11,29,-1027
371,4.149893,2,6,10,9,34,-1021
372,4.161077,2,7,10,10,31,-1021
373,4.172275,3,6,9,10,31,-1021
374,4.183454,2,6,9,10,33,-1028
375,4.194639,2,6,8,8,29,-1024
376,4.205821,2,5,8,7,32,-1024
377,4.217009,2,5,9,15,28,-1020
378,4.228516,3,6,10,11,30,-1023
379,4.240067,3,6,8,8,30,-1021
380,4.251613,2,6,9,10,29,-1024
381,4.263155,2,6,8,7,28,-1019
382,4.274709,2,6,9,3,32,-1015
383,4.286253,2,6,9,10,31,-1023
384,4.297796,2,6,8,12,32,-1025
385,4.309337,2,6,9,8,28,-1020
386,4.320938,2,7,9,11,26,-1022
387,4.332638,2,7,9,11,33,-1021
388,4.344301,2,6,9,9,30,-1017
389,4.355969,2,7,9,14,30,-1026
390,4.36763,2,7,9,13,30,-1023
391,4.379284,3,6,9,9,29,-1021
392,4.390936,2,6,9,8,31,-1026
393,4.402609,2,6,9,13,31,-1021
394,4.41426,2,6,9,11,30,-1028
395,4.425919,1,6,9,8,31,-1019
396,4.437587,2,6,9,11,34,-1024
397,4.449271,2,6,9,11,31,-1020
398,4.460954,3,6,9,10,28,-1023
399,4.472628,2,6,9,10,27,-1024
400,4.484287,3,6,9,9,32,-1024
401,4.495977,2,6,10,15,29,-1017
402,4.507622,2,6,9,15,29,-1017
403,4.519272,2,5,9,14,30,-1025
404,4.53096,2,6,9,9,25,-1022
405,4.542618,2,6,9,9,34,-1024
406,4.554269,2,6,9,9,29,-1025
407,4.565933,2,6,9,9,30,-1019
408,4.5776,2,6,8,9,31,-1024
409,4.589266,2,6,9,8,26,-1022
410,4.600941,2,6,9,10,34,-1027
411,4.612614,2,7,8,9,29,-1025
412,4.624266,2,6,9,12,31,-1020
413,4.636,3,5,8,12,30,-1017
414,4.647662,3,6,9,9,29,-1016
415,4.659209,2,6,9,14,30,-1010
416,4.670752,2,5,9,10,29,-1017
417,4.682298,2,6,9,11,27,-1020
418,4.693842,2,6,8,14,31,-1021
419,4.705415,2,6,10,14,31,-1022
420,4.716987,3,6,9,13,33,-1020
421,4.72856,2,6,9,10,30,-1016
422,4.740146,2,6,9,10,30,-1020
423,4.751756,2,6,8,15,30,-1021
424,4.763426,2,6,10,15,28,-1021
425,4.775085,2,6,9,13,31,-1026
426,4.786731,2,6,9,12,28,-1021
427,4.798383,2,6,9,9,30,-1022
428,4.81002,2,6,9,9,31,-1017
429,4.821664,2,6,9,10,33,-1032
430,4.833336,3,5,10,9,33,-1018
431,4.845018,3,5,8,10,29,-1021
432,4.856726,2,6,10,10,33,-1022
433,4.868311,3,6,9,8,30,-1019
434,4.879831,2,5,10,13,30,-1015
435,4.891379,2,6,9,9,31,-1020
436,4.902923,2,6,9,10,33,-1018
437,4.914465,2,6,9,10,29,-1021
438,4.926007,3,6,9,15,30,-1027
439,4.937558,2,6,10,14,28,-1019
440,4.94914,2,7,10,6,28,-1017
441,4.960803,3,6,9,11,32,-1020
442,4.972481,2,5,9,9,31,-1020
443,4.984102,2,7,9,8,27,-1019
444,4.995745,2,7,9,8,32,-1018
445,5.007413,2,6,9,10,32,-1019
446,5.019057,2,6,8,9,29,-1019
447,5.030702,2,6,9,12,32,-1021
448,5.042361,3,7,9,11,27,-1021
449,5.054039,2,6,8,11,29,-1020
450,5.065689,2,6,9,12,30,-1023
451,5.077298,3,6,8,13,32,-1024
452,5.088868,2,6,9,11,31,-1021
453,5.100428,2,6,8,11,30,-1023
454,5.111982,2,6,8,10,30,-1023
455,5.123525,2,6,9,10,33,-1021
456,5.135102,2,5,9,10,28,-1016
457,5.146669,2,7,9,8,32,-1017
458,5.158228,2,6,9,12,33,-1026
459,5.169895,2,6,9,6,29,-1018
460,5.181547,2,6,9,14,29,-1017
461,5.19321,2,6,9,12,32,-1026
462,5.204886,3,6,8,6,29,-1021
463,5.216538,2,6,9,12,30,-1024
464,5.22824,2,5,9,14,35,-1027
465,5.239892,2,6,9,9,27,-1022
466,5.251535,2,7,8,11,28,-1020
467,5.263195,2,6,9,9,29,-1022
468,5.274845,2,6,9,12,36,-1025
469,5.286502,2,6,9,10,28,-1018
470,5.29815,3,6,9,9,30,-1017
471,5.309788,2,5,9,9,35,-1022
472,5.321431,3,6,8,10,32,-1020
473,5.333126,2,6,9,7,30,-1019
474,5.344781,2,6,10,10,31,-1023
475,5.356438,2,5,9,7,33,-1025
476,5.368116,2,6,9,9,32,-1025
477,5.379762,2,5,9,12,30,-1021
478,5.391401,2,6,9,11,30,-1016
479,5.403053,2,6,9,8,30,-1021
480,5.414745,3,7,9,11,30,-1027
481,5.42639,3,7,9,11,31,-1025
482,5.438038,2,6,9,12,30,-1025
483,5.449734,2,6,9,11,30,-1023
484,5.461389,2,6,9,12,31,-1023
485,5.473111,3,5,9,9,31,-1024
486,5.484778,2,6,8,15,32,-1031
487,5.496326,2,6,9,10,30,-1019
488,5.507878,3,5,9,10,28,-1030
489,5.519424,2,6,9,14,30,-1024
490,5.53097,3,6,9,12,36,-1028
491,5.542543,3,6,9,7,27,-1023
492,5.554095,2,6,9,13,29,-1020
493,5.565658,2,6,9,9,30,-1026
494,5.577211,2,6,9,11,32,-1016
495,5.588876,1,6,9,11,31,-1019
496,5.600556,3,7,9,10,32,-1016
497,5.612227,2,6,9,11,33,-1022
498,5.623885,2,6,9,12,32,-1021
499,5.635526,3,6,9,8,29,-1023
500,5.647192,2,6,9,13,28,-1020
501,5.658844,2,7,9,14,30,-1020
502,5.670489,2,7,9,11,30,-1024
503,5.682151,3,7,9,10,28,-1020
504,5.693781,2,7,9,14,31,-1022
505,5.705329,1,6,10,13,32,-1019
506,5.716899,2,6,9,8,29,-1017
507,5.728439,2,6,8,8,30,-1015
508,5.739979,2,6,9,14,27,-1021
509,5.751524,3,7,9,12,28,-1026
510,5.763066,2,6,9,13,30,-1021
511,5.774603,2,6,9,12,28,-1023
512,5.786159,2,6,8,11,29,-1019
513,5.797802,3,6,9,10,30,-1023
514,5.809463,2,6,9,6,31,-1023
515,5.821182,2,7,9,12,30,-1016
516,5.832864,2,5,10,10,31,-1022
517,5.844542,3,6,9,10,26,-1021
518,5.856209,2,6,9,11,30,-1024
519,5.867844,2,7,9,9,29,-1025
520,5.879496,3,6,9,11,32,-1025
521,5.891183,2,6,9,12,29,-1022
522,5.902848,2,6,9,12,33,-1017
523,5.914407,3,6,8,11,31,-1021
524,5.925984,3,6,9,12,30,-1016
525,5.937523,2,6,9,9,27,-1023
526,5.949099,2,7,9,15,31,-1019
527,5.960673,2,6,9,11,28,-1022
528,5.972249,3,6,8,11,30,-1024
529,5.983824,2,7,9,10,30,-1024
530,5.995386,2,7,9,11,29,-1017
531,6.007037,2,5,9,14,32,-1027
532,6.0187,2,6,9,9,29,-1020
533,6.030338,2,6,8,9,28,-1023
534,6.041998,3,6,9,10,31,-1016
535,6.053663,2,7,9,10,31,-1024
536,6.065304,2,7,10,10,31,-1022
537,6.076983,1,6,9,9,31,-1022
538,6.088663,2,6,9,11,28,-1011
539,6.100341,2,6,10,10,29,-1021
540,6.112021,3,6,9,11,27,-1017
541,6.123594,2,6,9,9,28,-1023
542,6.135133,2,6,9,11,27,-1021
543,6.146675,2,6,9,10,32,-1026
544,6.158227,2,6,9,5,28,-1026
545,6.169771,2,6,9,10,33,-1027
546,6.181356,2,6,9,11,33,-1018
547,6.192929,2,5,9,10,36,-1023
548,6.204494,3,6,9,11,31,-1014
549,6.21611,2,6,9,13,28,-1012
550,6.227761,2,6,10,9,33,-1022
551,6.239409,2,7,10,13,30,-1019
552,6.25106,2,6,10,9,31,-1018
553,6.262701,3,6,9,12,25,-1024
554,6.274361,2,6,9,10,29,-1022
555,6.286016,2,6,9,9,33,-1024
556,6.297653,2,6,9,10,29,-1022
557,6.309316,2,5,9,9,29,-1024
558,6.320981,2,6,9,12,34,-1020
559,6.332582,2,7,8,10,32,-1024
560,6.34414,2,6,9,7,32,-1020
561,6.355695,3,7,9,12,24,-1020
562,6.367233,2,6,9,12,32,-1020
563,6.378778,3,6,8,10,33,-1023
564,6.390327,2,7,8,14,26,-1026
565,6.401871,2,6,9,9,30,-1025
566,6.413442,2,6,9,13,27,-1018
567,6.425139,3,6,9,8,31,-1024
568,6.436821,3,7,8,8,32,-1022
569,6.448494,2,6,9,12,28,-1019
570,6.46016,3,6,9,10,31,-1025
571,6.471824,3,6,10,7,33,-1026
572,6.483491,3,6,9,13,28,-1025
573,6.495146,3,6,9,12,33,-1020
574,6.50679,2,6,9,6,31,-1022
575,6.518478,3,7,9,13,34,-1027
576,6.530136,2,7,9,12,31,-1023
577,6.541693,2,6,9,11,27,-1021
578,6.553293,3,7,9,9,29,-1022
579,6.564872,2,6,9,9,30,-1020
580,6.576444,2,6,9,11,30,-1023
581,6.588029,3,6,9,10,27,-1023
582,6.599565,3,6,9,7,29,-1023
583,6.611117,2,6,9,8,32,-1023
584,6.622692,2,6,9,14,34,-1017
585,6.634334,3,6,9,7,30,-1027
586,6.645989,2,6,9,10,30,-1023
587,6.65764,3,6,9,10,35,-1025
588,6.669325,1,6,9,11,29,-1023
589,6.680994,1,6,9,11,27,-1025
590,6.692618,2,6,9,8,33,-1021
591,6.704309,3,6,9,14,27,-1026
592,6.715973,2,6,8,10,35,-1014
593,6.72763,2,5,8,6,30,-1022
594,6.739298,2,5,9,9,33,-1023
595,6.750884,2,6,8,13,30,-1016
596,6.762432,2,6,9,10,29,-1019
597,6.774007,2,5,10,12,27,-1019
598,6.78554,2,6,9,10,30,-1023
599,6.797095,3,6,9,12,32,-1022
600,6.808668,3,6,9,11,29,-1021
601,6.820218,2,6,9,9,28,-1027
602,6.831771,2,6,10,12,32,-1029
603,6.843418,2,6,9,11,31,-1027
604,6.855072,3,6,9,8,29,-1023
605,6.866722,2,7,8,9,31,-1022
606,6.878364,2,6,8,13,30,-1024
607,6.890013,2,6,8,11,25,-1019
608,6.901671,2,6,9,12,27,-1023
609,6.913318,2,7,9,9,29,-1024
610,6.925029,2,6,8,8,28,-1019
611,6.936732,2,6,9,8,29,-1026
612,6.948393,2,6,9,12,30,-1025
613,6.959974,2,5,8,9,28,-1024
614,6.971522,2,6,9,10,29,-1018
615,6.983084,2,6,9,10,30,-1023
616,6.99463,3,6,9,9,32,-1020
617,7.006203,2,6,8,11,30,-1021
618,7.018008,2,6,9,15,25,-1025
619,7.029684,2,6,9,7,28,-1026
620,7.041453,3,6,9,12,30,-1019
621,7.053038,3,6,8,12,33,-1025
622,7.064593,2,6,9,8,30,-1025
623,7.076149,2,6,9,10,30,-1022
624,7.087695,2,5,9,12,30,-1021
625,7.099238,2,6,8,11,33,-1017
626,7.11082,2,7,8,12,29,-1022
627,7.122373,2,6,9,14,31,-1026
628,7.133959,2,6,9,15,35,-1023
629,7.145512,2,6,9,12,32,-1021
630,7.157177,2,5,9,12,30,-1016
631,7.168879,2,6,9,13,35,-1021
632,7.180532,2,5,8,12,33,-1023
633,7.19218,2,7,9,16,30,-1020
634,7.203852,2,6,9,8,31,-1029
635,7.215507,2,6,9,13,28,-1022
636,7.227155,2,6,9,11,28,-1028
637,7.238815,2,6,9,12,32,-1020
638,7.250493,3,6,8,8,29,-1017
639,7.262144,1,6,9,8,31,-1027
640,7.273785,2,7,9,10,28,-1023
641,7.285432,2,6,9,15,30,-1022
642,7.297165,2,6,9,12,33,-1016
643,7.308857,2,6,9,11,29,-1015
644,7.320514,3,6,9,8,30,-1022
645,7.332168,2,6,9,8,36,-1024
646,7.343856,2,6,9,10,29,-1026
647,7.355502,3,6,8,10,32,-1022
648,7.367148,2,6,9,15,31,-1023
649,7.378798,2,6,8,12,32,-1021
650,7.390442,3,6,9,10,33,-1027
651,7.402108,3,6,9,12,31,-1021
652,7.413755,2,7,9,13,30,-1020
653,7.425389,3,7,8,10,28,-1024
654,7.437081,3,7,9,13,29,-1019
655,7.448781,2,6,9,11,30,-1020
656,7.460499,2,6,9,9,32,-1020
657,7.472145,2,6,9,11,33,-1020
658,7.483829,3,6,9,9,36,-1024
659,7.495495,2,6,8,13,29,-1019
660,7.507135,3,6,9,8,34,-1022
661,7.518785,2,6,9,12,28,-1024
662,7.530472,4,6,9,10,33,-1018
663,7.54211,2,6,9,11,27,-1021
664,7.553822,3,5,9,8,33,-1020
665,7.565519,3,7,9,12,31,-1019
666,7.577083,3,6,9,9,31,-1024
667,7.588639,2,6,9,6,31,-1023
668,7.600213,2,6,9,8,30,-1025
669,7.611782,3,6,8,10,32,-1021
670,7.623328,3,6,8,9,30,-1026
671,7.634902,2,6,9,9,32,-1022
672,7.64646,2,6,9,10,33,-1024
673,7.658047,2,6,10,9,33,-1023
674,7.669691,2,6,10,11,29,-1030
675,7.681373,2,7,9,12,25,-1018
676,7.69305,2,7,8,8,31,-1019
677,7.704733,2,6,9,9,27,-1024
678,7.716367,2,6,9,11,30,-1016
679,7.728047,2,6,9,9,30,-1024
680,7.739709,2,6,9,15,33,-1023
681,7.75136,2,6,9,8,31,-1025
682,7.763039,2,6,9,12,31,-1031
683,7.774698,2,6,9,8,32,-1022
684,7.78626,3,6,9,10,37,-1020
685,7.797806,1,6,10,12,31,-1025
686,7.80935,2,6,10,10,31,-1017
687,7.820915,2,6,9,12,30,-1016
688,7.832495,2,6,9,11,27,-1022
689,7.844068,2,6,9,10,32,-1021
690,7.855621,3,6,9,13,28,-1017
691,7.867168,2,6,9,7,32,-1020
692,7.878802,2,6,9,10,30,-1017
693,7.890444,2,6,9,7,29,-1016
694,7.902089,3,6,8,9,33,-1023
695,7.913758,2,6,8,11,30,-1021
696,7.925427,2,6,9,11,34,-1014
697,7.93711,2,6,9,12,32,-1028
698,7.948772,2,7,9,9,29,-1024
699,7.960427,2,6,9,10,29,-1023
700,7.972109,2,6,8,7,27,-1018
701,7.983761,3,7,9,8,31,-1020
702,7.995359,3,6,9,10,32,-1021
703,8.006914,3,6,9,13,33,-1023
704,8.018486,2,6,9,10,34,-1028
705,8.030026,2,6,9,11,34,-1025
706,8.041588,2,7,9,12,32,-1022
707,8.053163,2,6,9,12,34,-1020
708,8.064731,2,5,8,11,29,-1028
709,8.076332,3,6,9,11,28,-1022
710,8.087972,3,5,9,15,31,-1022
711,8.099651,2,7,8,12,29,-1026
712,8.111293,3,6,9,10,33,-1025
713,8.122945,3,6,9,9,28,-1019
714,8.134614,2,6,9,14,31,-1018
715,8.146262,2,5,9,10,33,-1021
716,8.157913,2,7,9,13,30,-1020
717,8.169558,3,5,9,12,31,-1028
718,8.181232,2,6,9,14,31,-1023
719,8.192883,2,6,9,13,30,-1022
720,8.204469,2,6,9,13,32,-1023
721,8.216023,2,6,9,14,28,-1027
722,8.227581,2,6,10,14,28,-1019
723,8.239123,3,6,9,13,31,-1021
724,8.250675,2,6,9,10,30,-1026
725,8.262223,3,6,9,15,28,-1024
726,8.273762,2,6,9,10,31,-1020
727,8.285314,2,6,9,11,28,-1032
728,8.296949,2,6,10,14,30,-1025
729,8.308622,2,7,9,10,32,-1026
730,8.32028,2,6,8,14,34,-1023
731,8.331926,2,6,9,10,32,-1017
732,8.343571,2,6,9,10,34,-1022
733,8.355239,2,6,8,12,34,-1019
734,8.366882,2,7,9,9,30,-1024
735,8.378528,2,6,8,12,30,-1020
736,8.390206,2,6,9,10,35,-1023
737,8.401864,2,6,9,12,33,-1031
738,8.413453,2,5,9,10,30,-1026
739,8.425063,2,7,9,10,32,-1028
740,8.436618,2,6,8,10,32,-1020
741,8.448203,2,7,9,10,31,-1026
742,8.459778,2,6,9,5,31,-1028
743,8.471329,2,6,9,7,36,-1019
744,8.482912,2,7,10,13,34,-1027
745,8.49446,3,6,9,13,29,-1020
746,8.506077,2,6,8,12,27,-1022
747,8.517749,2,6,9,13,33,-1026
748,8.529393,3,6,10,13,28,-1025
749,8.541074,2,5,9,9,28,-1020
750,8.552739,2,6,9,11,32,-1019
751,8.564398,3,6,9,11,32,-1023
752,8.576105,2,7,10,12,33,-1025
753,8.587742,2,6,9,12,32,-1015
754,8.599397,3,6,9,10,32,-1022
755,8.611054,2,6,9,12,30,-1021
756,8.622646,2,5,9,11,32,-1019
757,8.634193,2,7,9,9,29,-1024
758,8.645778,3,6,9,14,33,-1022
759,8.657316,3,7,9,10,32,-1023
760,8.668916,2,5,10,12,28,-1022
761,8.680615,2,7,10,14,30,-1018
762,8.692189,2,6,8,8,29,-1019
763,8.703783,2,6,9,11,29,-1025
764,8.715423,2,6,9,8,29,-1022
765,8.72708,2,6,9,6,29,-1024
766,8.738725,1,7,9,14,29,-1023
767,8.750363,2,5,9,10,29,-1024
768,8.762008,2,6,9,9,32,-1017
769,8.77368,3,7,9,9,32,-1026
770,8.785346,2,6,9,9,32,-1018
771,8.796996,2,6,9,10,26,-1026
772,8.808681,2,6,9,11,28,-1019
773,8.820337,3,6,9,8,31,-1027
774,8.831912,2,6,9,12,33,-1025
775,8.843492,2,6,9,9,32,-1013
776,8.855043,3,6,8,12,31,-1020
777,8.866625,2,6,9,10,32,-1023
778,8.878158,2,6,9,9,35,-1017
779,8.889695,2,5,9,10,29,-1026
780,8.90127,3,6,9,7,32,-1024
781,8.912869,2,6,8,5,30,-1026
782,8.924519,2,5,9,9,30,-1023
783,8.936181,3,5,9,9,29,-1022
784,8.947853,2,6,9,7,31,-1020
785,8.959501,2,6,9,11,28,-1019
786,8.971173,3,6,9,10,29,-1023
787,8.982822,3,7,9,10,34,-1023
788,8.994485,3,6,9,9,32,-1020
789,9.006154,3,5,9,12,30,-1030
790,9.017812,2,6,9,10,33,-1021
791,9.029467,2,6,9,12,32,-1021
792,9.041038,3,6,9,14,30,-1018
793,9.052578,2,6,9,10,32,-1026
794,9.064135,2,6,9,7,32,-1018
795,9.075702,3,6,9,14,31,-1031
796,9.087241,3,6,9,12,26,-1011
797,9.098784,2,5,9,12,27,-1020
798,9.110341,2,6,8,9,30,-1030
799,9.121895,2,5,9,13,32,-1022
800,9.133519,2,6,9,12,27,-1021
801,9.145229,2,6,9,8,32,-1022
802,9.156887,2,6,10,14,30,-1022
803,9.168541,3,6,9,14,31,-1022
804,9.180215,3,6,9,11,34,-1021
805,9.191887,2,6,10,9,30,-1020
806,9.203532,3,7,9,10,31,-1020
807,9.215181,2,6,9,7,36,-1023
808,9.226863,2,6,8,10,30,-1014
809,9.238531,2,6,8,14,30,-1026
810,9.250093,2,6,8,8,26,-1020
811,9.261637,3,6,9,13,31,-1023
812,9.273189,3,6,9,11,31,-1027
813,9.28474,2,7,8,10,28,-1016
814,9.296317,3,6,9,11,33,-1021
815,9.307832,3,6,9,11,32,-1020
816,9.319391,2,6,9,10,32,-1019
817,9.330961,2,6,9,11,33,-1025
818,9.342606,3,6,9,8,30,-1016
819,9.354266,3,7,9,18,35,-1023
820,9.365908,3,6,9,9,28,-1025
821,9.377585,2,6,9,14,29,-1021
822,9.389262,2,6,9,10,30,-1023
823,9.400921,2,7,9,8,29,-1021
824,9.412623,1,6,9,10,28,-1031
825,9.42427,2,6,9,10,32,-1022
826,9.435912,2,6,9,12,32,-1017
827,9.447451,3,6,8,11,32,-1027
828,9.459,2,6,9,12,29,-1025
829,9.470545,2,7,9,11,28,-1019
830,9.482089,1,7,9,9,30,-1022
831,9.493669,3,6,9,12,30,-1023
832,9.505212,2,6,9,10,33,-1026
833,9.516811,3,7,9,10,30,-1024
834,9.528362,2,7,9,13,29,-1025
835,9.539921,2,6,9,12,35,-1021
836,9.551573,3,5,10,7,31,-1023
837,9.563224,3,6,9,9,30,-1025
838,9.574871,2,6,9,16,30,-1023
839,9.586517,2,6,8,10,36,-1022
840,9.598164,2,7,9,11,30,-1016
841,9.609836,2,6,9,10,32,-1027
842,9.621482,2,6,9,7,31,-1025
843,9.63313,2,6,9,11,33,-1016
844,9.644804,3,6,9,10,29,-1023
845,9.656486,1,6,9,7,29,-1026
846,9.668103,2,6,9,12,32,-1020
847,9.679757,3,6,9,11,29,-1019
848,9.691414,3,6,8,12,31,-1016
849,9.703079,2,6,9,10,31,-1018
850,9.714721,2,6,9,8,31,-1017
851,9.726371,2,6,8,11,25,-1023
852,9.738048,3,6,9,8,31,-1023
853,9.749744,3,6,9,12,32,-1019
854,9.761298,2,6,9,8,27,-1028
855,9.772858,3,6,9,12,30,-1025
856,9.784438,2,7,9,6,33,-1021
857,9.796015,2,6,9,13,33,-1017
858,9.807571,1,6,8,11,29,-1020
859,9.819138,2,6,9,9,31,-1022
860,9.83069,3,6,8,7,31,-1023
861,9.842282,2,7,9,13,28,-1021
862,9.853906,2,6,9,12,30,-1028
863,9.865568,2,6,9,12,31,-1018
864,9.877243,2,6,10,12,27,-1024
865,9.888918,3,6,8,9,29,-1023
866,9.900603,2,5,8,10,30,-1025
867,9.912267,3,6,8,6,28,-1024
868,9.92396,1,7,9,10,33,-1019
869,9.935608,2,6,9,12,18,-1017
870,9.947266,2,7,9,12,31,-1024
871,9.958824,3,5,8,10,32,-1027
872,9.970375,3,7,9,12,28,-1018
873,9.981939,2,5,9,14,29,-1023
874,9.993499,2,5,9,9,30,-1024
875,10.005038,2,6,9,10,30,-1010
876,10.016555,2,6,9,10,32,-1015
877,10.028073,2,6,9,15,26,-1023
878,10.039618,2,6,10,10,31,-1027
879,10.051185,2,6,9,15,31,-1018
880,10.062804,2,6,9,12,28,-1021
881,10.074452,2,7,9,12,32,-1020
882,10.086107,2,5,9,12,32,-1019
883,10.097762,2,7,10,9,33,-1020
884,10.109415,1,7,9,6,30,-1021
885,10.121074,2,6,9,10,30,-1016
886,10.132742,2,5,9,9,32,-1022
887,10.144411,2,5,10,12,32,-1024
888,10.15611,2,6,8,8,31,-1019
889,10.167771,2,6,10,5,30,-1019
890,10.179352,3,6,9,7,32,-1025
891,10.190907,3,6,9,9,25,-1021
892,10.202473,2,5,10,7,33,-1024
893,10.214015,3,7,9,10,30,-1022
894,10.225561,2,6,9,11,28,-1022
895,10.237111,2,6,9,8,30,-1014
896,10.248682,2,6,9,11,28,-1023
897,10.260292,2,6,9,13,32,-1022
898,10.271919,2,6,9,9,29,-1024
899,10.283567,2,7,9,9,32,-1018
900,10.295214,2,6,10,13,32,-1022
901,10.306905,2,7,9,9,33,-1019
902,10.31855,2,5,9,9,27,-1020
903,10.330202,2,7,9,13,33,-1022
904,10.341875,3,6,9,14,27,-1022
905,10.353517,3,7,9,11,32,-1024
906,10.365183,3,7,9,15,30,-1019
907,10.376854,2,6,9,13,34,-1018
908,10.388475,3,6,8,9,32,-1016
909,10.400081,2,6,9,13,26,-1019
910,10.411625,2,6,10,9,31,-1022
911,10.42317,2,6,9,10,28,-1026
912,10.434716,2,6,9,13,27,-1017
913,10.446259,2,7,9,5,27,-1028
914,10.45781,2,6,9,10,28,-1023
915,10.469371,3,7,9,10,25,-1027
916,10.481058,2,6,10,10,29,-1019
917,10.492743,2,6,9,9,30,-1019
918,10.504398,3,6,8,10,27,-1021
919,10.516083,2,6,9,10,30,-1019
920,10.527734,2,6,8,8,35,-1017
921,10.539385,2,6,9,14,33,-1014
922,10.551035,3,6,9,6,32,-1019
923,10.562679,3,6,9,6,33,-1021
924,10.574353,2,5,9,11,29,-1026
925,10.58601,2,7,8,11,29,-1020
926,10.597568,2,7,8,14,30,-1020
927,10.609121,2,6,9,11,29,-1021
928,10.620683,3,6,9,8,25,-1015
929,10.632323,2,6,9,8,35,-1020
930,10.643902,3,6,9,11,31,-1021
931,10.655447,3,6,8,10,29,-1023
932,10.666989,3,6,9,9,32,-1019
933,10.678548,2,6,9,8,29,-1021
934,10.690166,2,6,9,14,32,-1025
935,10.701842,3,5,9,14,27,-1022
936,10.713595,3,6,9,16,30,-1020
937,10.725276,3,6,8,8,29,-1026
938,10.736937,2,6,9,12,29,-1023
939,10.748615,3,7,9,12,31,-1022
940,10.760275,2,6,9,11,33,-1016
941,10.771972,3,6,8,10,30,-1025
942,10.78363,2,6,9,7,29,-1025
943,10.795324,2,6,10,10,30,-1029
944,10.806889,2,6,9,10,29,-1021
945,10.818449,2,6,8,11,31,-1024
946,10.830035,2,6,8,9,33,-1018
947,10.841599,2,5,9,7,30,-1019
948,10.853167,2,6,9,10,30,-1025
949,10.86472,3,6,9,9,31,-1016
950,10.876314,3,6,9,12,29,-1023
951,10.887915,4,6,8,11,30,-1022
952,10.89961,3,7,9,10,32,-1024
953,10.911282,2,6,9,11,31,-1020
954,10.92294,2,5,9,8,27,-1022
955,10.934587,2,5,9,10,31,-1022
956,10.94625,2,6,9,9,31,-1029
957,10.957924,3,7,9,9,28,-1026
958,10.969572,2,6,10,13,34,-1025
959,10.981266,2,6,9,15,33,-1026
960,10.992933,3,6,9,11,31,-1022
961,11.00457,3,6,8,13,27,-1024
962,11.016145,2,6,9,11,32,-1024
963,11.027754,2,6,9,10,29,-1019
964,11.039334,2,5,9,13,32,-1023
965,11.050877,2,6,9,8,30,-1021
966,11.062412,2,6,8,9,31,-1022
967,11.073944,2,7,9,11,29,-1019
968,11.085489,2,6,9,11,31,-1020
969,11.097052,2,7,9,16,25,-1027
970,11.10875,2,7,8,10,33,-1022
971,11.120423,2,6,9,11,34,-1027
972,11.132092,1,6,9,11,29,-1016
973,11.143773,2,7,8,10,33,-1022
974,11.155429,2,6,8,11,29,-1021
975,11.167079,2,6,9,9,28,-1021
976,11.178742,2,5,9,8,30,-1016
977,11.190401,3,6,9,8,30,-1018
978,11.202063,2,6,9,13,31,-1026
979,11.21375,3,6,10,9,30,-1025
980,11.225403,2,5,9,14,32,-1021
981,11.237057,2,6,9,10,29,-1026
982,11.248753,2,6,8,13,30,-1028
983,11.26042,3,6,9,8,35,-1028
984,11.272103,2,6,8,11,31,-1024
985,11.283764,2,6,9,9,29,-1025
986,11.295415,2,5,8,13,31,-1023
987,11.307087,2,6,9,9,26,-1023
988,11.31874,2,7,9,14,29,-1025
989,11.330401,2,7,8,12,30,-1020
990,11.342047,3,6,8,8,25,-1018
991,11.353692,2,6,9,13,30,-1023
992,11.36539,3,6,9,6,28,-1017
993,11.377065,3,5,9,12,30,-1020
994,11.388785,2,7,9,13,31,-1028
995,11.400435,2,6,8,10,31,-1024
996,11.412127,2,6,9,14,31,-1014
997,11.423784,2,6,9,12,28,-1025
998,11.435341,2,6,9,7,28,-1019
999,11.446902,2,6,10,11,31,-1022
1000,11.458452,2,7,9,11,32,-1026
1001,11.46999,2,5,9,10,30,-1017
1002,11.481525,2,7,9,8,31,-1019
1003,11.493033,2,7,9,10,32,-1025
1004,11.504554,2,6,9,10,29,-1020
1005,11.516086,2,6,9,6,29,-1017
1006,11.5277,2,6,8,10,32,-1029
1007,11.539372,2,6,8,9,32,-1020
1008,11.551012,3,5,9,12,31,-1023
1009,11.562663,3,7,8,9,32,-1026
1010,11.57433,2,6,9,14,33,-1019
1011,11.585987,2,6,9,13,31,-1021
1012,11.597636,2,6,8,9,31,-1024
1013,11.609306,2,5,9,7,31,-1023
1014,11.620997,2,5,9,9,33,-1023
1015,11.632647,2,6,9,9,29,-1023
1016,11.644216,2,7,9,10,32,-1018
1017,11.655824,2,6,9,13,31,-1023
1018,11.667369,2,6,9,10,29,-1022
1019,11.678913,2,6,9,11,31,-1018
1020,11.690459,2,6,9,11,32,-1019
1021,11.702025,2,6,8,16,26,-1021
1022,11.713577,2,6,9,11,30,-1020
1023,11.725183,2,6,9,13,27,-1021
1024,11.736935,2,6,9,8,32,-1019
1025,11.748647,2,5,9,11,32,-1022
1026,11.760335,1,6,9,11,28,-1020
1027,11.771998,2,6,9,11,32,-1021
1028,11.783659,2,6,9,13,37,-1022
1029,11.795335,2,6,10,9,30,-1022
1030,11.806994,2,6,9,9,31,-1024
1031,11.818637,2,5,9,9,32,-1015
1032,11.830306,3,7,9,10,28,-1025
1033,11.841974,2,6,9,12,32,-1021
1034,11.853543,2,6,9,7,31,-1017
1035,11.865095,2,6,9,12,29,-1021
1036,11.876684,1,6,9,11,33,-1025
1037,11.888267,2,6,8,10,31,-1026
1038,11.899832,2,7,8,11,29,-1024
1039,11.9114,2,6,9,13,33,-1024
1040,11.922939,3,6,9,8,26,-1022
1041,11.934506,2,6,10,10,29,-1027
1042,11.946127,2,6,9,10,34,-1024
1043,11.95779,2,7,9,9,28,-1024
1044,11.969442,2,6,9,14,27,-1028
1045,11.98113,2,6,9,9,35,-1021
1046,11.992785,3,7,9,8,31,-1019
1047,12.004469,2,6,9,12,27,-1020
1048,12.016104,2,6,10,11,33,-1025
1049,12.027757,2,5,9,12,33,-1026
1050,12.03942,2,7,9,10,30,-1022
1051,12.051078,2,6,9,9,29,-1025
1052,12.062639,2,6,9,8,29,-1028
1053,12.074188,2,6,9,10,31,-1024
1054,12.085756,2,6,9,10,27,-1026
1055,12.097324,2,5,9,5,32,-1021
1056,12.108907,2,6,8,11,30,-1019
1057,12.120507,2,6,9,12,31,-1015
1058,12.132083,2,6,9,9,30,-1018
1059,12.143648,2,6,10,12,28,-1022
1060,12.155313,2,6,8,9,28,-1021
1061,12.166957,2,5,9,8,31,-1025
1062,12.178602,2,6,8,11,26,-1020
1063,12.190272,2,6,9,10,34,-1025
1064,12.201918,2,7,8,10,31,-1022
1065,12.213563,2,7,8,11,27,-1021
1066,12.225266,2,6,10,11,26,-1024
1067,12.236921,2,6,9,10,31,-1020
1068,12.248595,3,5,8,12,33,-1027
1069,12.260151,2,7,9,13,34,-1023
1070,12.271691,2,6,9,9,30,-1024
1071,12.283245,2,6,8,9,30,-1023
1072,12.294788,2,6,9,9,31,-1024
1073,12.30635,2,6,9,9,35,-1017
1074,12.317886,2,7,9,14,29,-1023
1075,12.329427,3,6,9,8,29,-1017
1076,12.340989,3,7,9,11,30,-1018
1077,12.35261,2,6,9,7,33,-1021
1078,12.364315,2,5,9,7,27,-1017
1079,12.376005,2,6,9,8,30,-1020
1080,12.387656,3,7,9,11,25,-1025
1081,12.399308,2,5,9,11,30,-1026
1082,12.410967,2,6,8,9,34,-1026
1083,12.422614,3,6,8,14,27,-1021
1084,12.434281,2,7,8,8,29,-1022
1085,12.445949,2,6,9,12,29,-1021
1086,12.457613,2,6,10,13,28,-1024
1087,12.469213,2,6,9,7,30,-1023
1088,12.480817,2,6,9,13,29,-1021
1089,12.492367,3,6,9,8,31,-1018
1090,12.503909,3,7,9,8,34,-1018
1091,12.515467,2,7,9,12,34,-1016
1092,12.527006,3,7,8,10,32,-1021
1093,12.538581,3,6,9,11,29,-1029
1094,12.550149,2,6,9,13,26,-1025
1095,12.561768,2,6,9,12,33,-1030
1096,12.573423,2,6,9,14,30,-1027
1097,12.585111,3,6,8,13,35,-1028
1098,12.596778,2,6,9,13,29,-1023
1099,12.608445,2,6,9,10,32,-1020
1100,12.620103,3,6,9,14,29,-1024
1101,12.63176,2,7,9,9,28,-1017
1102,12.643409,2,6,9,9,32,-1016
1103,12.655075,3,6,9,10,30,-1020
1104,12.666738,2,6,9,14,27,-1018
1105,12.678299,3,6,9,6,29,-1020
1106,12.689845,2,6,9,10,32,-1023
1107,12.701392,2,6,9,10,31,-1024
1108,12.712943,2,6,10,8,30,-1021
1109,12.72456,2,5,9,11,32,-1024
1110,12.73612,3,7,9,10,29,-1018
1111,12.747691,2,7,10,12,32,-1023
1112,12.75928,3,6,9,9,31,-1019
1113,12.770912,2,6,9,9,30,-1023
1114,12.782566,2,6,9,10,32,-1019
1115,12.794228,2,6,9,15,30,-1027
1116,12.805871,3,7,9,11,31,-1022
1117,12.817522,2,6,9,9,30,-1021
1118,12.829169,2,7,9,12,31,-1019
1119,12.840858,3,6,9,10,33,-1023
1120,12.852549,2,7,9,10,27,-1024
1121,12.864258,2,6,10,10,32,-1023
1122,12.875937,2,6,10,12,29,-1021
1123,12.887495,3,6,9,11,31,-1029
1124,12.899048,3,6,8,10,31,-1026
1125,12.910614,2,7,9,11,28,-1021
1126,12.922197,2,6,9,11,32,-1028
1127,12.933815,2,6,9,12,34,-1017
1128,12.945361,3,6,8,8,26,-1015
1129,12.95692,2,6,9,12,31,-1024
1130,12.968524,2,6,9,12,29,-1023
1131,12.980183,3,6,9,11,35,-1023
1132,12.991845,2,6,9,10,31,-1022
1133,13.003496,1,6,9,13,28,-1020
1134,13.015163,3,6,9,11,32,-1028
1135,13.026836,2,6,9,13,30,-1018
1136,13.038591,3,6,9,8,30,-1022
1137,13.050239,3,6,9,13,31,-1020
1138,13.061896,2,5,9,12,32,-1029
1139,13.073585,2,7,9,12,27,-1018
1140,13.085282,2,6,9,11,30,-1022
1141,13.096878,2,5,9,11,33,-1029
1142,13.108448,2,6,9,9,31,-1019
1143,13.120005,3,6,9,8,32,-1025
1144,13.131557,3,6,9,10,29,-1028
1145,13.143104,2,6,9,9,33,-1023
1146,13.154653,2,7,9,9,28,-1021
1147,13.166256,2,6,9,9,26,-1014
1148,13.177828,2,6,8,10,32,-1020
1149,13.189445,2,6,8,8,28,-1030
1150,13.201131,2,5,9,12,26,-1024
1151,13.212793,3,6,8,7,30,-1021
1152,13.224522,2,6,9,11,31,-1017
1153,13.236223,3,6,9,13,29,-1025
1154,13.247848,2,6,9,11,32,-1024
1155,13.259544,3,7,9,8,31,-1023
1156,13.271189,2,6,9,11,31,-1023
1157,13.282848,3,6,9,8,29,-1019
1158,13.294512,2,6,9,9,33,-1018
1159,13.306098,2,6,9,10,31,-1028
1160,13.317647,2,6,9,11,29,-1025
1161,13.329199,2,6,9,10,28,-1022
1162,13.340775,2,6,9,12,30,-1025
1163,13.352315,3,6,9,10,30,-1025
1164,13.36389,1,6,9,8,27,-1019
1165,13.375458,2,6,8,7,31,-1021
1166,13.387012,3,6,9,10,29,-1016
1167,13.398644,3,6,9,10,33,-1022
1168,13.410305,3,6,9,9,30,-1023
1169,13.42196,2,6,9,10,29,-1023
1170,13.433612,2,6,9,11,30,-1023
1171,13.445266,3,6,9,9,30,-1019
1172,13.456916,2,6,9,10,33,-1025
1173,13.46861,2,6,9,10,32,-1026
1174,13.480275,3,6,10,12,32,-1020
1175,13.491963,2,6,8,11,32,-1020
1176,13.503616,3,7,9,7,32,-1021
1177,13.515173,2,6,9,12,31,-1027
1178,13.526723,3,6,9,7,31,-1022
1179,13.538278,2,5,9,13,29,-1026
1180,13.549841,2,6,8,11,28,-1021
1181,13.561388,2,6,9,10,33,-1025
1182,13.572963,3,6,9,10,31,-1021
1183,13.584536,2,6,10,9,29,-1024
1184,13.596111,2,6,9,11,31,-1021
1185,13.60777,2,6,9,12,34,-1022
1186,13.619419,3,6,9,12,30,-1023
1187,13.631058,3,6,8,8,28,-1026
1188,13.642704,2,6,9,15,33,-1017
1189,13.654372,2,7,9,7,31,-1026
1190,13.666018,2,6,9,12,30,-1015
1191,13.677667,2,6,9,11,31,-1020
1192,13.689331,3,6,8,13,30,-1017
1193,13.701024,2,6,9,7,31,-1027
1194,13.712685,2,6,8,11,28,-1021
1195,13.724368,3,6,9,8,28,-1019
1196,13.736023,2,6,9,12,32,-1024
1197,13.747669,2,6,9,13,35,-1018
1198,13.759332,2,6,9,10,32,-1022
1199,13.770996,3,6,9,13,27,-1026
1200,13.78265,2,6,9,12,32,-1020
1201,13.794332,2,6,9,14,29,-1023
1202,13.80606,2,6,8,11,34,-1022
1203,13.817751,2,6,9,12,31,-1022
1204,13.829321,2,5,9,10,29,-1027
1205,13.840873,2,6,9,10,32,-1024
1206,13.852472,3,6,9,9,32,-1021
1207,13.86407,3,6,9,9,30,-1022
1208,13.875645,3,6,8,13,36,-1016
1209,13.88721,2,6,9,14,27,-1018
1210,13.898777,3,6,9,11,29,-1020
1211,13.91033,2,6,9,11,28,-1020
1212,13.921946,2,6,9,10,30,-1025
1213,13.933601,2,7,9,11,30,-1023
1214,13.945263,2,6,9,11,32,-1022
1215,13.956939,2,5,8,12,30,-1024
1216,13.968639,2,6,9,7,32,-1021
1217,13.98029,2,5,8,10,31,-1024
1218,13.99199,2,6,8,14,31,-1014
1219,14.003633,2,5,9,9,29,-1025
1220,14.015292,3,6,9,14,34,-1020
1221,14.026965,2,6,9,10,30,-1016
1222,14.038537,3,6,9,13,32,-1023
1223,14.050085,3,6,9,13,30,-1022
1224,14.061659,3,5,10,12,30,-1018
1225,14.07321,3,6,9,10,29,-1021
1226,14.084782,2,6,9,15,30,-1028
1227,14.096314,1,6,10,8,32,-1023
1228,14.107895,2,6,9,10,26,-1018
1229,14.119449,2,6,9,13,32,-1024
1230,14.131073,3,7,8,8,29,-1023
1231,14.142714,2,6,9,9,30,-1018
1232,14.154362,2,6,9,7,29,-1023
1233,14.166012,2,6,9,9,33,-1019
1234,14.177699,2,5,9,12,29,-1024
1235,14.189454,2,6,10,13,29,-1025
1236,14.201131,2,6,9,7,32,-1017
1237,14.212812,2,6,9,9,31,-1025
1238,14.224581,2,6,9,8,29,-1022
1239,14.236264,2,6,9,9,32,-1022
1240,14.247835,3,6,9,7,29,-1024
1241,14.259393,3,6,9,12,30,-1022
1242,14.270958,3,6,9,13,25,-1022
1243,14.282507,2,5,9,10,28,-1021
1244,14.294066,2,6,9,11,35,-1024
1245,14.305656,2,7,9,11,29,-1021
1246,14.317236,3,7,9,12,26,-1018
1247,14.328809,2,6,9,11,29,-1026
1248,14.340543,2,6,9,8,30,-1022
1249,14.352237,2,6,9,12,31,-1023
1250,14.363893,2,6,9,14,33,-1018
1251,14.375562,3,6,10,10,29,-1021
1252,14.387219,3,5,9,10,29,-1024
1253,14.398862,2,7,9,8,31,-1023
1254,14.410519,2,5,8,6,30,-1017
1255,14.422199,3,6,9,13,30,-1022
1256,14.433861,3,6,9,12,28,-1021
1257,14.445552,2,6,9,11,31,-1022
1258,14.457129,2,5,8,8,27,-1019
1259,14.468691,2,6,9,10,26,-1019
1260,14.480248,2,6,9,11,28,-1021
1261,14.491816,2,7,10,11,30,-1022
1262,14.503363,2,6,10,7,28,-1027
1263,14.514908,2,6,9,8,30,-1025
1264,14.526481,2,6,9,9,33,-1025
1265,14.538038,2,6,10,8,29,-1022
1266,14.549662,2,6,9,9,31,-1023
1267,14.56132,3,6,9,10,31,-1024
1268,14.572991,3,6,9,11,31,-1023
1269,14.584613,2,6,9,12,28,-1023
1270,14.596285,2,6,9,8,31,-1018
1271,14.607956,3,6,9,8,29,-1028
1272,14.619625,3,6,9,14,28,-1020
1273,14.631274,2,6,9,8,31,-1025
1274,14.64292,3,6,9,13,28,-1024
1275,14.654474,2,7,9,9,35,-1016
1276,14.666014,3,6,9,12,33,-1019
1277,14.677558,2,6,8,12,27,-1023
1278,14.689111,3,5,9,8,33,-1024
1279,14.700697,3,6,8,10,30,-1021
1280,14.712275,2,6,9,15,33,-1029
1281,14.72383,2,7,9,9,31,-1027
1282,14.735369,2,6,8,9,30,-1022
1283,14.74692,2,5,10,14,30,-1025
1284,14.758544,2,6,8,13,29,-1023
1285,14.770187,2,6,9,10,31,-1024
1286,14.781829,2,6,9,11,30,-1021
1287,14.793499,2,6,9,8,29,-1020
1288,14.805143,3,6,9,13,31,-1016
1289,14.816805,2,6,9,9,29,-1026
1290,14.828481,2,6,9,9,31,-1028
1291,14.84016,3,6,9,10,30,-1023
1292,14.85185,3,7,9,13,31,-1020
1293,14.863532,2,6,10,10,28,-1020
1294,14.875096,2,6,9,12,31,-1027
1295,14.886644,2,7,9,9,31,-1025
1296,14.898193,2,6,10,15,27,-1021
1297,14.909746,2,5,9,11,28,-1022
1298,14.921289,2,5,9,11,34,-1022
1299,14.932846,3,7,8,14,31,-1017
1300,14.944452,2,7,8,9,30,-1017
1301,14.956013,3,5,8,7,27,-1021
1302,14.967635,3,6,9,13,30,-1020
1303,14.979285,2,6,10,13,34,-1017
1304,14.990924,2,5,9,9,34,-1016
1305,15.002567,2,6,8,11,32,-1024
1306,15.014235,2,6,9,12,31,-1016
1307,15.025891,2,5,9,10,30,-1021
1308,15.03757,3,6,9,10,29,-1020
1309,15.049256,2,6,9,11,35,-1019
1310,15.060902,2,6,9,7,27,-1032
1311,15.072483,3,6,9,11,34,-1026
1312,15.084066,3,6,9,14,32,-1019
1313,15.095605,2,6,9,7,30,-1026
1314,15.107148,2,6,9,12,30,-1020
1315,15.118693,3,5,8,3,32,-1022
1316,15.130244,2,6,9,9,34,-1019
1317,15.141804,2,6,10,10,31,-1022
1318,15.153343,3,5,8,9,30,-1018
1319,15.164931,3,6,10,8,35,-1029
1320,15.176612,2,6,9,11,34,-1025
1321,15.188271,2,5,9,10,29,-1025
1322,15.19996,2,6,9,12,26,-1020
1323,15.211608,2,6,9,13,28,-1019
1324,15.223259,2,6,9,13,30,-1018
1325,15.234926,1,6,9,11,28,-1019
1326,15.246585,2,6,9,10,35,-1024
1327,15.258252,2,6,9,10,31,-1023
1328,15.269916,2,6,9,9,30,-1022
1329,15.281578,2,5,9,7,29,-1022
1330,15.293251,2,6,9,12,30,-1021
1331,15.304873,2,6,9,10,31,-1017
1332,15.316523,2,7,9,11,30,-1019
1333,15.328173,3,6,8,10,30,-1023
1334,15.339846,3,6,9,10,32,-1026
1335,15.351542,3,6,10,10,30,-1023
1336,15.363195,2,6,9,12,36,-1021
1337,15.374776,2,6,9,12,27,-1019
1338,15.386326,2,6,9,12,30,-1028
1339,15.397896,2,7,9,9,34,-1024
1340,15.409441,2,6,8,11,32,-1016
1341,15.420987,2,6,9,10,28,-1019
1342,15.432556,2,6,9,11,29,-1021
1343,15.444151,2,7,9,12,31,-1023
1344,15.455716,1,6,9,13,30,-1019
1345,15.467301,2,5,9,11,29,-1022
1346,15.478959,3,6,9,11,29,-1021
1347,15.490619,2,6,9,8,31,-1024
1348,15.502262,3,6,9,12,31,-1016
1349,15.51394,2,6,9,12,28,-1020
1350,15.525592,2,6,9,9,32,-1025
1351,15.537264,2,6,9,10,34,-1022
1352,15.548936,2,7,9,8,28,-1026
1353,15.56061,2,6,8,10,27,-1023
1354,15.572274,3,6,9,9,34,-1027
1355,15.58395,3,6,9,11,30,-1023
1356,15.595523,2,5,10,10,28,-1028
1357,15.607089,2,6,8,11,31,-1019
1358,15.618638,2,6,8,8,31,-1020
1359,15.630227,2,5,8,12,26,-1024
1360,15.641776,2,6,9,11,30,-1027
1361,15.653337,2,5,9,11,33,-1023
1362,15.6649,2,6,8,10,31,-1018
1363,15.676456,2,6,9,13,29,-1028
1364,15.688095,2,6,9,12,30,-1021
1365,15.699737,2,6,9,11,29,-1021
1366,15.711411,2,5,9,6,26,-1022
1367,15.723061,3,6,9,8,30,-1024
1368,15.734702,2,6,9,11,30,-1016
1369,15.746351,2,7,9,8,31,-1020
1370,15.758018,2,7,8,10,31,-1023
1371,15.769665,2,6,9,10,30,-1022
1372,15.78133,2,6,9,11,31,-1020
1373,15.793009,3,7,9,10,31,-1029
1374,15.804561,2,7,8,12,28,-1020
1375,15.816142,2,7,9,12,28,-1026
1376,15.827706,2,6,9,11,29,-1020
1377,15.83926,3,6,9,12,31,-1026
1378,15.8508,2,6,9,10,34,-1020
1379,15.862347,3,6,9,10,32,-1021
1380,15.873893,3,6,9,9,31,-1023
1381,15.885482,3,6,10,10,31,-1022
1382,15.897147,3,7,9,12,29,-1020
1383,15.908802,2,7,9,12,32,-1023
1384,15.920483,2,6,10,14,29,-1022
1385,15.932154,3,6,9,10,29,-1020
1386,15.943822,2,6,10,9,32,-1023
1387,15.955465,3,5,9,10,35,-1020
1388,15.967131,2,5,9,15,27,-1019
1389,15.978777,2,6,8,11,28,-1025
1390,15.990422,1,6,9,11,34,-1019
1391,16.001977,2,6,9,10,32,-1026
1392,16.013518,3,6,8,10,31,-1017
1393,16.025035,2,5,8,11,32,-1025
1394,16.036552,3,6,9,12,29,-1018
1395,16.048076,2,6,9,10,31,-1020
1396,16.05962,3,6,10,8,32,-1023
1397,16.071165,3,6,9,8,34,-1018
1398,16.082718,2,6,9,11,32,-1017
1399,16.094417,2,5,9,10,29,-1023
1400,16.106078,2,6,9,8,33,-1025
1401,16.117746,3,5,9,13,35,-1024
1402,16.129398,3,6,8,10,32,-1021
1403,16.141046,2,6,9,16,32,-1022
1404,16.152732,3,6,9,11,28,-1020
1405,16.164375,3,6,9,11,33,-1024
1406,16.176028,2,6,9,10,29,-1029
1407,16.187712,3,7,9,6,32,-1020
1408,16.199386,2,6,8,7,30,-1020
1409,16.210955,3,6,8,10,29,-1019
1410,16.222493,3,6,9,12,32,-1027
1411,16.234043,2,6,9,7,33,-1016
1412,16.245585,2,6,9,9,30,-1025
1413,16.257154,3,6,9,10,33,-1025
1414,16.268705,3,6,9,8,33,-1020
1415,16.280305,2,6,9,11,35,-1024
1416,16.291891,3,6,9,11,31,-1019
1417,16.303513,2,6,9,8,27,-1022
1418,16.315189,2,7,9,12,32,-1022
1419,16.326864,2,7,10,9,27,-1016
1420,16.338509,2,6,9,13,30,-1019
1421,16.350159,2,6,9,5,30,-1027
1422,16.361836,2,6,10,8,32,-1020
1423,16.373486,2,5,10,10,30,-1026
1424,16.385128,2,6,8,16,31,-1021
1425,16.396787,2,6,9,10,30,-1024
1426,16.408471,2,6,9,10,28,-1027
1427,16.420103,2,7,9,11,29,-1023
1428,16.431746,3,6,9,9,28,-1033
1429,16.443394,2,6,9,8,30,-1021
1430,16.455064,2,7,9,17,28,-1025
1431,16.46672,3,6,8,9,31,-1022
1432,16.478369,3,7,9,8,27,-1015
1433,16.490008,2,6,8,14,28,-1019
1434,16.501689,3,5,9,12,33,-1021
1435,16.513368,2,7,9,10,33,-1024
1436,16.525037,2,6,9,8,33,-1025
1437,16.536729,3,5,9,10,30,-1016
1438,16.54836,3,6,9,11,30,-1017
1439,16.560036,2,6,9,8,32,-1021
1440,16.5717,1,6,8,10,35,-1019
1441,16.583349,2,6,10,11,34,-1023
1442,16.594991,2,6,10,12,32,-1022
1443,16.606669,2,6,9,8,31,-1024
1444,16.618336,2,6,8,8,32,-1027
1445,16.629977,2,6,8,11,27,-1025
1446,16.641626,2,6,9,10,30,-1022
1447,16.653305,2,6,10,15,32,-1021
1448,16.664981,3,6,9,11,30,-1018
1449,16.676612,3,6,9,9,33,-1026
1450,16.688272,2,6,9,9,27,-1019
1451,16.699958,2,6,9,14,24,-1023
1452,16.711617,2,5,9,9,29,-1027
1453,16.723291,2,6,10,8,30,-1028
1454,16.734943,2,6,9,11,29,-1023
1455,16.746591,2,7,9,8,25,-1021
1456,16.758235,2,6,9,12,31,-1016
1457,16.769898,2,6,9,11,31,-1024
1458,16.781554,2,6,8,8,26,-1015
1459,16.793199,3,5,9,11,29,-1017
1460,16.804866,1,6,9,11,31,-1022
1461,16.816554,2,6,9,10,28,-1024
1462,16.828231,2,7,9,7,32,-1021
1463,16.839897,3,7,9,9,27,-1018
1464,16.85156,2,5,8,12,30,-1026
1465,16.863226,3,5,9,12,31,-1026
1466,16.874871,3,6,9,14,33,-1017
1467,16.886515,2,5,9,14,35,-1021
1468,16.898204,2,6,9,11,31,-1021
1469,16.909867,2,6,8,8,35,-1020
1470,16.921557,2,5,9,7,28,-1020
1471,16.933298,2,6,9,10,28,-1020
1472,16.944897,2,6,9,10,29,-1023
1473,16.956469,3,6,9,10,27,-1023
1474,16.96801,2,6,9,10,30,-1019
1475,16.979548,3,6,9,8,26,-1019
1476,16.991098,3,5,9,12,31,-1026
1477,17.00264,3,5,9,11,27,-1028
1478,17.014203,2,6,9,11,32,-1029
1479,17.025764,2,7,9,14,28,-1020
1480,17.037464,3,6,10,11,28,-1027
1481,17.049161,2,6,9,11,32,-1025
1482,17.060808,2,6,9,12,30,-1018
1483,17.072478,2,6,8,12,31,-1025
1484,17.084158,2,6,9,11,28,-1021
1485,17.095815,3,6,7,7,30,-1025
1486,17.107458,2,6,9,9,29,-1020
1487,17.119144,2,7,9,13,31,-1017
1488,17.130799,2,7,9,16,32,-1024
1489,17.142447,2,5,9,8,29,-1021
1490,17.154005,2,6,9,9,29,-1021
1491,17.16555,2,7,9,9,28,-1021
1492,17.177108,3,5,9,10,29,-1025
1493,17.188674,2,6,9,10,31,-1028
1494,17.200228,2,6,10,11,33,-1023
1495,17.211817,2,6,9,13,34,-1022
1496,17.223369,3,7,9,9,31,-1024
1497,17.234943,2,6,9,11,32,-1023
1498,17.246557,2,7,9,11,30,-1022
1499,17.258222,2,7,9,13,29,-1025
1500,17.269875,2,6,9,9,32,-1022
1501,17.281528,3,7,8,8,30,-1018
1502,17.293187,2,7,9,7,31,-1025
1503,17.304883,2,6,8,9,32,-1020
1504,17.316552,2,6,9,11,31,-1017
1505,17.328234,3,6,9,14,30,-1017
1506,17.339902,2,6,9,9,30,-1017
1507,17.35155,1,6,9,8,30,-1023
1508,17.363104,2,7,9,10,31,-1018
1509,17.37467,3,6,9,10,30,-1022
1510,17.38621,2,6,9,13,30,-1023
1511,17.397745,2,6,8,17,30,-1020
1512,17.409286,2,6,9,10,27,-1022
1513,17.420852,2,7,10,11,27,-1029
1514,17.432437,3,6,9,12,28,-1023
1515,17.443996,2,6,8,13,32,-1018
1516,17.455633,2,6,9,8,29,-1025
1517,17.467281,2,5,9,11,28,-1027
1518,17.478924,2,6,8,10,31,-1024
1519,17.490591,2,6,9,7,29,-1019
1520,17.502252,3,6,8,15,27,-1021
1521,17.513894,3,6,8,7,29,-1021
1522,17.525544,2,6,9,14,30,-1024
1523,17.537188,1,6,9,12,33,-1025
1524,17.548873,2,6,8,14,29,-1020
1525,17.560533,2,6,9,11,32,-1019
1526,17.572171,2,6,9,9,31,-1024
1527,17.58383,2,6,10,10,28,-1029
1528,17.595492,2,5,9,14,33,-1022
1529,17.607131,2,6,9,11,30,-1023
1530,17.618777,3,6,9,13,30,-1025
1531,17.630441,3,6,9,7,28,-1021
1532,17.642096,2,5,10,11,30,-1019
1533,17.653779,3,6,9,12,34,-1027
1534,17.665448,2,5,8,7,28,-1019
1535,17.677136,3,5,9,11,31,-1022
1536,17.688805,2,6,9,10,27,-1025
1537,17.700476,2,7,10,11,29,-1021
1538,17.712107,2,7,8,10,31,-1024
1539,17.723753,3,6,9,9,32,-1021
1540,17.73539,2,6,10,12,31,-1031
1541,17.74703,3,6,9,7,30,-1025
1542,17.758731,2,6,9,4,32,-1025
1543,17.770372,2,6,9,8,30,-1024
1544,17.782018,3,7,9,11,32,-1021
1545,17.793683,2,6,8,11,28,-1020
1546,17.80537,3,6,10,6,31,-1031
1547,17.817024,3,7,9,11,31,-1021
1548,17.828702,3,6,9,11,32,-1024
1549,17.840351,3,6,9,9,29,-1018
1550,17.852006,2,6,9,12,30,-1019
1551,17.86368,2,6,9,10,29,-1021
1552,17.87534,2,6,10,14,31,-1027
1553,17.886919,2,5,9,12,31,-1025
1554,17.898467,2,6,9,11,32,-1025
1555,17.910016,3,5,8,9,33,-1025
1556,17.921558,2,6,9,8,29,-1021
1557,17.933107,2,6,8,13,29,-1021
1558,17.944678,2,6,8,9,31,-1023
1559,17.956226,3,6,9,10,31,-1022
1560,17.96778,2,6,9,9,29,-1022
1561,17.979431,3,6,9,9,32,-1022
1562,17.991083,3,7,9,13,25,-1016
1563,18.002735,3,6,9,12,31,-1023
1564,18.014375,3,5,10,9,31,-1017
1565,18.026022,2,6,9,8,32,-1023
1566,18.037746,3,6,8,9,28,-1020
1567,18.049398,3,5,9,13,31,-1019
1568,18.061068,3,5,9,11,29,-1023
1569,18.072757,3,6,9,13,36,-1017
1570,18.084419,2,7,9,10,33,-1017
1571,18.095984,2,6,9,12,32,-1020
1572,18.107529,2,5,9,10,29,-1015
1573,18.119108,2,6,9,15,33,-1027
1574,18.130654,2,6,9,14,32,-1025
1575,18.142216,2,6,9,11,32,-1019
1576,18.153763,2,6,9,12,28,-1023
1577,18.165297,2,5,9,8,30,-1025
1578,18.176852,2,6,9,10,28,-1019
1579,18.188467,2,6,8,12,34,-1019
1580,18.200103,2,6,9,12,31,-1025
1581,18.21176,2,6,8,12,29,-1022
1582,18.223414,3,5,9,14,28,-1017
1583,18.23506,2,5,9,10,30,-1025
1584,18.246706,3,5,9,10,30,-1026
1585,18.258351,3,6,9,9,30,-1018
1586,18.269997,2,7,9,11,28,-1025
1587,18.281673,2,6,9,9,29,-1028
1588,18.293342,2,7,9,15,30,-1022
1589,18.305001,3,6,9,12,29,-1023
1590,18.316678,2,6,9,8,24,-1015
1591,18.328346,3,6,9,10,35,-1022
1592,18.339998,3,6,9,11,32,-1018
1593,18.351663,2,6,9,7,28,-1022
1594,18.363305,3,6,10,12,32,-1021
1595,18.374953,2,6,9,13,31,-1027
1596,18.386615,2,6,9,10,28,-1023
1597,18.398158,2,5,9,6,32,-1025
1598,18.409741,2,6,9,11,27,-1020
1599,18.421306,2,6,9,12,32,-1024
1600,18.432861,2,6,9,13,30,-1019
1601,18.444427,3,5,9,14,29,-1012
1602,18.45597,3,6,9,12,28,-1032
1603,18.467514,3,6,9,11,28,-1019
1604,18.479087,2,7,9,9,30,-1020
1605,18.490639,2,5,10,11,27,-1026
1606,18.502286,2,6,9,12,28,-1018
1607,18.513939,3,6,9,13,27,-1020
1608,18.525578,2,7,9,7,31,-1021
1609,18.537259,2,6,8,9,27,-1021
1610,18.548918,3,6,8,11,31,-1023
1611,18.560584,2,6,9,12,30,-1024
1612,18.572249,2,6,8,7,33,-1024
1613,18.586673,2,5,9,11,31,-1027
1614,18.598404,2,6,9,12,31,-1027
1615,18.609971,2,5,9,8,30,-1022
1616,18.621518,2,6,10,9,35,-1023
1617,18.63304,2,6,9,16,31,-1017
1618,18.644554,2,6,9,10,31,-1023
1619,18.656074,3,6,10,8,32,-1025
1620,18.667618,2,7,9,14,30,-1022
1621,18.679163,2,6,9,10,31,-1023
1622,18.690723,1,6,9,3,26,-1020
1623,18.702333,3,6,9,11,29,-1022
1624,18.713999,3,6,10,11,26,-1020
1625,18.725652,2,6,9,14,27,-1024
1626,18.737302,3,5,9,12,29,-1017
1627,18.749005,2,5,9,14,29,-1023
1628,18.760662,2,6,9,12,31,-1024
1629,18.772352,3,6,9,12,35,-1022
1630,18.784011,2,7,9,8,30,-1024
1631,18.795713,3,6,9,9,28,-1031
1632,18.807409,3,6,9,10,32,-1024
1633,18.818979,3,6,9,10,32,-1021
1634,18.830528,2,6,8,10,27,-1025
1635,18.842081,2,6,9,9,33,-1022
1636,18.85369,2,6,9,13,29,-1022
1637,18.865311,3,7,9,7,33,-1019
1638,18.876858,2,7,9,7,27,-1022
1639,18.888425,2,7,9,6,31,-1020
1640,18.899995,2,6,9,8,28,-1026
1641,18.91163,2,6,9,8,28,-1024
1642,18.923292,3,6,9,8,32,-1026
1643,18.934967,2,7,9,12,32,-1028
1644,18.946623,3,5,9,10,29,-1017
1645,18.958265,2,6,9,7,31,-1024
1646,18.969909,3,6,9,11,30,-1021
1647,18.981576,3,6,8,10,30,-1018
1648,18.993254,2,6,8,11,28,-1027
1649,19.004888,2,6,8,10,32,-1023
1650,19.016571,2,7,9,8,28,-1021
1651,19.028271,2,5,9,12,31,-1020
1652,19.040037,3,6,9,9,32,-1019
1653,19.051617,2,6,9,13,29,-1023
1654,19.063181,3,6,9,8,27,-1023
1655,19.074743,3,6,9,8,32,-1024
1656,19.0863,3,6,9,10,28,-1025
1657,19.097844,2,6,8,15,29,-1026
1658,19.109406,2,7,9,9,28,-1026
1659,19.121086,3,6,8,12,27,-1025
1660,19.132751,3,6,9,12,28,-1025
1661,19.144433,3,6,9,12,31,-1031
1662,19.156105,2,6,9,10,32,-1021
1663,19.167753,2,6,9,9,34,-1023
1664,19.179469,3,7,8,12,32,-1020
1665,19.191111,3,6,10,11,31,-1019
1666,19.202767,3,6,9,10,29,-1024
1667,19.214412,3,6,9,10,28,-1026
1668,19.225964,3,7,9,11,28,-1027
1669,19.237534,2,7,8,7,27,-1023
1670,19.24908,1,6,8,11,28,-1022
1671,19.260626,2,6,8,8,33,-1022
1672,19.272192,2,6,9,12,33,-1022
1673,19.283751,2,6,9,12,32,-1026
1674,19.295328,2,7,9,12,32,-1020
1675,19.306924,2,6,9,8,32,-1023
1676,19.318621,3,6,9,15,31,-1019
1677,19.330303,3,6,9,9,30,-1021
1678,19.341959,2,6,9,11,32,-1020
1679,19.353612,2,6,9,8,29,-1026
1680,19.365284,2,6,8,11,33,-1021
1681,19.376947,3,6,9,8,29,-1018
1682,19.388617,2,6,9,11,27,-1023
1683,19.400295,2,5,9,12,25,-1023
1684,19.411988,1,6,9,13,28,-1017
1685,19.423656,2,6,9,9,29,-1023
1686,19.435248,2,6,9,11,29,-1019
1687,19.446795,2,6,9,8,29,-1023
1688,19.458336,2,6,8,10,29,-1020
1689,19.469892,2,5,9,13,32,-1016
1690,19.481442,2,6,9,15,32,-1030
1691,19.493016,2,6,10,9,31,-1015
1692,19.504558,2,6,10,12,35,-1022
1693,19.516086,2,6,9,11,31,-1022
1694,19.527701,3,5,9,12,29,-1025
1695,19.539347,2,7,10,11,31,-1021
1696,19.551054,2,7,9,12,29,-1020
1697,19.562708,2,6,8,10,28,-1017
1698,19.574349,2,6,9,9,32,-1024
1699,19.585996,3,6,9,14,31,-1022
1700,19.597688,3,6,9,11,29,-1024
1701,19.609356,2,6,9,10,29,-1024
1702,19.621056,3,7,9,11,33,-1024
1703,19.632707,2,7,9,9,30,-1019
1704,19.644267,2,6,9,13,30,-1025
1705,19.655826,2,6,9,11,32,-1026
1706,19.66737,2,6,10,8,32,-1022
1707,19.678926,3,5,9,6,31,-1018
1708,19.69049,2,6,8,10,31,-1021
1709,19.702033,3,5,9,11,31,-1015
1710,19.713603,2,6,10,12,36,-1019
1711,19.72518,3,6,9,12,32,-1023
1712,19.736806,2,6,10,11,30,-1018
1713,19.748501,2,6,9,11,30,-1021
1714,19.760165,2,6,9,8,30,-1023
1715,19.771837,2,7,10,15,28,-1023
1716,19.783529,2,7,9,12,34,-1028
1717,19.795174,2,6,9,10,29,-1025
1718,19.806818,2,6,8,12,33,-1018
1719,19.818477,2,6,9,11,28,-1025
1720,19.83015,2,6,8,9,31,-1025
1721,19.841807,2,6,9,11,26,-1021
1722,19.853359,2,7,8,9,30,-1028
1723,19.864958,2,6,9,10,29,-1025
1724,19.876541,3,6,8,13,33,-1022
1725,19.888085,3,5,8,9,29,-1021
1726,19.899634,3,6,9,11,31,-1027
1727,19.911217,2,5,8,11,32,-1018
1728,19.922779,4,7,9,11,30,-1024
1729,19.934344,3,6,9,14,30,-1020
1730,19.945969,2,6,8,12,35,-1029
1731,19.957625,2,6,9,15,32,-1023
1732,19.969288,2,5,9,10,31,-1033
1733,19.980948,2,6,9,12,33,-1021
1734,19.992632,2,7,9,11,31,-1024
1735,20.004286,2,6,9,13,27,-1019
1736,20.015964,2,7,9,11,31,-1018
1737,20.02765,3,6,9,10,30,-1026
1738,20.039303,3,6,9,12,31,-1016
1739,20.050984,2,5,9,11,30,-1024
1740,20.062575,2,6,9,13,28,-1017
1741,20.074118,2,5,8,10,30,-1024
1742,20.08567,3,5,9,10,31,-1012
1743,20.097218,3,5,9,12,30,-1025
1744,20.10879,2,5,9,10,30,-1017
1745,20.120315,2,7,9,6,30,-1023
1746,20.131832,2,6,10,11,28,-1025
1747,20.143404,2,6,9,10,30,-1019
1748,20.155025,2,6,9,14,30,-1019
1749,20.166685,2,6,8,12,28,-1030
1750,20.178354,2,5,9,12,31,-1020
1751,20.19001,2,6,9,11,32,-1017
1752,20.201657,2,6,9,9,33,-1024
1753,20.213315,2,6,10,13,30,-1022
1754,20.224994,2,7,9,12,29,-1022
1755,20.236616,1,6,9,9,33,-1026
1756,20.24828,2,7,9,15,30,-1022
1757,20.259958,3,6,9,14,30,-1023
1758,20.271592,2,6,9,13,30,-1024
1759,20.283185,3,6,8,10,29,-1024
1760,20.294743,2,6,9,10,33,-1022
1761,20.306288,2,6,10,7,31,-1021
1762,20.31784,2,6,9,9,27,-1021
1763,20.329407,2,6,9,12,30,-1028
1764,20.340964,2,6,8,11,27,-1025
1765,20.352592,2,7,8,10,32,-1019
1766,20.364243,3,6,8,12,28,-1024
1767,20.375905,2,6,8,7,31,-1030
1768,20.387547,3,6,9,11,32,-1020
1769,20.399219,3,5,9,11,31,-1023
1770,20.410871,2,6,9,13,31,-1024
1771,20.422514,2,6,9,16,29,-1021
1772,20.434162,3,6,9,14,31,-1018
1773,20.445834,2,7,10,11,33,-1029
1774,20.457485,2,6,10,11,29,-1027
1775,20.469136,3,6,9,12,29,-1011
1776,20.480704,3,6,9,10,32,-1023
1777,20.492254,3,6,9,10,29,-1019
1778,20.503829,2,7,8,15,31,-1020
1779,20.515407,2,6,9,10,30,-1018
1780,20.526958,2,6,9,11,32,-1024
1781,20.538533,2,5,9,11,31,-1022
1782,20.550071,2,6,9,14,28,-1026
1783,20.561638,2,6,9,7,28,-1025
1784,20.573303,2,6,9,7,32,-1021
1785,20.584984,2,6,9,10,32,-1025
1786,20.596623,2,6,9,11,30,-1024
1787,20.608279,3,6,9,12,30,-1028
1788,20.619965,2,7,8,11,30,-1018
1789,20.631653,3,6,8,13,27,-1022
1790,20.643308,3,7,9,11,31,-1012
1791,20.654958,2,6,9,12,45,-1017
1792,20.666646,2,6,9,9,33,-1021
1793,20.678297,2,6,9,10,32,-1018
1794,20.689888,2,6,8,13,33,-1017
1795,20.701442,2,6,8,14,28,-1022
1796,20.713027,2,6,9,11,30,-1025
1797,20.724558,2,5,9,8,29,-1022
1798,20.736077,2,6,9,9,27,-1021
1799,20.747645,3,5,8,12,30,-1026
1800,20.759196,2,6,9,10,33,-1023
1801,20.770788,2,6,9,11,28,-1025
1802,20.782411,2,6,9,10,30,-1022
1803,20.79407,2,6,9,9,32,-1022
1804,20.805749,2,6,9,8,30,-1026
1805,20.817426,3,5,9,9,30,-1021
1806,20.829097,3,5,8,7,30,-1020
1807,20.840745,3,6,9,13,30,-1026
1808,20.852427,3,6,9,10,31,-1026
1809,20.864091,2,6,9,11,34,-1023
1810,20.875752,3,6,9,10,27,-1022
1811,20.887415,2,5,10,7,27,-1024
1812,20.899017,2,6,9,9,27,-1021
1813,20.910576,2,6,9,8,31,-1023
1814,20.922133,2,6,9,11,32,-1022
1815,20.933677,2,7,9,11,30,-1019
1816,20.945234,2,7,10,9,32,-1018
1817,20.956793,2,6,9,11,27,-1015
1818,20.968372,2,6,9,9,31,-1020
1819,20.979962,2,6,9,11,34,-1015
1820,20.991572,3,6,10,7,36,-1014
1821,21.003226,2,6,10,11,29,-1027
1822,21.014901,2,6,9,8,31,-1026
1823,21.026575,2,6,9,13,26,-1027
1824,21.038223,3,6,9,13,29,-1025
1825,21.049887,2,6,9,11,31,-1028
1826,21.061541,2,6,9,8,31,-1014
1827,21.073197,3,6,9,12,33,-1024
1828,21.084899,2,5,8,12,29,-1024
1829,21.096556,2,6,9,8,30,-1023
1830,21.108117,3,6,9,11,28,-1016
1831,21.119719,3,5,9,12,30,-1021
1832,21.13127,3,6,9,9,27,-1028
1833,21.142841,3,6,9,8,32,-1020
1834,21.154391,2,6,9,12,30,-1021
1835,21.165932,3,6,9,10,35,-1021
1836,21.177478,2,6,9,13,28,-1020
1837,21.189054,2,6,10,12,27,-1027
1838,21.200682,3,6,9,13,30,-1018
1839,21.21237,2,6,9,5,26,-1018
1840,21.22406,2,6,9,12,30,-1024
1841,21.235708,2,6,9,12,29,-1018
1842,21.247392,2,6,9,11,25,-1021
1843,21.259044,2,5,9,13,31,-1020
1844,21.270768,3,7,9,10,34,-1015
1845,21.282415,2,6,9,10,34,-1024
1846,21.294077,2,7,9,11,33,-1021
1847,21.305742,2,6,9,7,32,-1027
1848,21.31733,2,5,10,9,28,-1020
1849,21.328907,3,6,9,8,33,-1027
1850,21.340475,2,6,9,9,32,-1025
1851,21.352013,2,6,9,8,29,-1025
1852,21.363566,2,6,9,11,32,-1021
1853,21.375117,2,6,8,10,32,-1026
1854,21.38666,3,6,10,13,33,-1022
1855,21.398236,2,6,10,12,30,-1023
1856,21.40988,3,6,9,6,31,-1022
1857,21.421527,2,6,8,8,30,-1017
1858,21.433187,2,6,8,10,30,-1019
1859,21.444869,3,6,9,11,29,-1017
1860,21.456522,2,6,8,14,31,-1018
1861,21.468171,3,6,9,9,28,-1021
1862,21.479846,2,6,9,10,31,-1021
1863,21.491521,2,6,9,5,32,-1017
1864,21.503172,3,6,9,10,31,-1023
1865,21.514837,3,5,8,11,28,-1023
1866,21.526392,3,7,8,13,31,-1022
1867,21.53794,2,6,8,6,30,-1021
1868,21.54949,3,6,10,6,31,-1023
1869,21.561069,3,6,9,9,32,-1023
1870,21.572629,2,5,9,11,29,-1023
1871,21.584203,2,6,9,15,29,-1025
1872,21.595744,3,6,8,11,29,-1023
1873,21.607314,2,6,9,11,30,-1023
1874,21.618931,2,7,9,14,30,-1029
1875,21.630592,3,7,9,13,29,-1023
1876,21.642245,2,6,9,12,33,-1019
1877,21.653897,2,6,9,15,34,-1018
1878,21.665543,2,6,9,13,32,-1018
1879,21.677193,2,7,9,9,35,-1026
1880,21.688877,2,7,8,11,34,-1024
1881,21.700528,2,6,8,11,25,-1026
1882,21.712191,2,7,10,12,31,-1024
1883,21.723854,3,6,9,12,30,-1021
1884,21.735439,2,6,9,13,30,-1017
1885,21.746994,3,7,8,9,30,-1026
1886,21.758576,2,7,9,14,27,-1026
1887,21.77014,3,6,8,12,31,-1022
1888,21.781691,2,6,9,12,32,-1021
1889,21.793301,3,6,10,10,31,-1023
1890,21.804843,3,6,9,12,28,-1020
1891,21.8164,3,6,9,13,29,-1027
1892,21.828019,3,6,9,14,28,-1016
1893,21.839665,1,7,8,9,31,-1018
1894,21.851348,2,6,9,10,31,-1019
1895,21.863009,2,6,9,12,30,-1021
1896,21.874663,2,6,9,9,30,-1021
1897,21.886344,2,5,9,11,29,-1018
1898,21.898002,2,6,9,12,33,-1020
1899,21.909645,3,6,9,10,30,-1024
1900,21.921342,2,6,9,14,31,-1018
1901,21.933005,2,6,9,9,29,-1028
1902,21.944565,2,6,10,10,33,-1027
1903,21.956123,3,6,9,6,28,-1020
1904,21.967672,2,6,9,9,30,-1023
1905,21.979228,3,7,8,14,28,-1024
1906,21.990792,3,6,9,11,30,-1024
1907,22.002367,2,6,9,11,30,-1024
1908,22.013919,2,6,9,10,32,-1025
1909,22.025485,2,6,9,6,33,-1025
1910,22.037125,2,7,9,9,26,-1018
1911,22.048816,2,6,9,11,25,-1020
1912,22.060487,2,7,9,11,36,-1019
1913,22.07216,2,6,8,10,29,-1020
1914,22.083838,3,6,9,9,29,-1025
1915,22.095488,3,6,9,14,30,-1018
1916,22.107163,2,6,9,9,32,-1026
1917,22.118816,3,6,8,10,27,-1019
1918,22.130477,2,6,10,13,29,-1022
1919,22.142168,2,6,10,11,30,-1019
1920,22.153829,2,6,9,15,32,-1018
1921,22.165505,2,7,9,4,27,-1022
1922,22.17713,3,6,9,7,29,-1021
1923,22.188814,3,6,9,9,28,-1021
1924,22.20048,2,6,9,10,33,-1023
1925,22.212102,2,6,9,8,30,-1017
1926,22.223737,2,6,9,10,28,-1021
1927,22.235467,3,6,10,12,31,-1021
1928,22.247185,2,6,8,8,27,-1020
1929,22.258767,2,5,9,9,32,-1020
1930,22.270345,2,5,9,15,32,-1025
1931,22.281893,2,6,9,12,26,-1018
1932,22.293441,2,6,9,8,30,-1020
1933,22.305021,3,6,9,12,33,-1030
1934,22.316561,2,6,9,11,31,-1023
1935,22.328135,2,5,9,13,33,-1022
1936,22.339696,2,6,9,13,32,-1027
1937,22.351319,2,6,8,6,29,-1026
1938,22.36298,2,5,8,15,31,-1019
1939,22.374635,2,6,8,9,31,-1021
1940,22.386299,3,6,9,14,28,-1027
1941,22.397958,2,6,8,9,29,-1028
1942,22.4096,2,6,9,8,32,-1020
1943,22.421291,2,5,9,10,27,-1021
1944,22.432947,2,6,9,9,30,-1027
1945,22.444626,2,6,9,13,32,-1024
1946,22.456328,2,6,10,12,34,-1021
1947,22.467884,3,6,9,7,31,-1018
1948,22.479431,2,5,9,11,31,-1026
1949,22.490986,2,5,8,9,34,-1022
1950,22.502532,3,6,8,13,30,-1024
1951,22.514101,2,6,8,15,31,-1025
1952,22.52565,2,6,9,11,33,-1021
1953,22.53723,2,6,9,10,28,-1019
1954,22.548806,2,6,9,9,33,-1018
1955,22.560421,1,5,9,11,35,-1022
1956,22.572097,2,6,9,12,28,-1027
1957,22.583771,2,6,9,9,32,-1025
1958,22.595423,2,6,9,12,31,-1021
1959,22.607069,2,6,9,11,29,-1021
1960,22.618729,3,6,10,10,30,-1017
1961,22.630396,3,6,9,14,32,-1017
1962,22.642046,2,6,9,7,34,-1023
1963,22.653706,2,5,9,10,33,-1019
1964,22.665388,2,6,9,8,29,-1021
1965,22.676958,2,6,9,16,34,-1024
1966,22.688525,2,6,9,7,33,-1022
1967,22.700073,2,7,9,11,31,-1030
1968,22.711614,3,6,9,8,30,-1023
1969,22.723184,2,6,9,6,33,-1021
1970,22.734735,2,5,9,12,29,-1031
1971,22.746312,2,6,8,12,32,-1022
1972,22.757862,3,7,9,11,25,-1024
1973,22.769474,2,6,8,12,29,-1031
1974,22.781137,3,7,8,13,30,-1022
1975,22.792796,2,6,9,9,31,-1023
1976,22.804481,2,6,9,9,29,-1023
1977,22.816101,2,6,9,8,30,-1023
1978,22.827765,2,6,9,10,29,-1019
1979,22.839407,2,6,9,10,31,-1023
1980,22.851052,2,5,10,11,30,-1024
1981,22.862721,2,5,8,12,33,-1024
1982,22.874383,2,7,9,8,31,-1022
1983,22.885981,3,5,9,8,30,-1024
1984,22.89753,3,6,10,10,29,-1021
1985,22.909084,2,5,8,14,33,-1020
1986,22.920682,2,7,9,9,31,-1015
1987,22.932245,2,5,9,12,33,-1015
1988,22.943832,2,5,10,10,30,-1019
1989,22.955376,2,6,10,10,30,-1017
1990,22.966941,2,7,9,11,29,-1016
1991,22.978555,2,6,9,10,30,-1021
1992,22.990216,2,6,8,10,28,-1027
1993,23.001962,2,6,9,11,29,-1023
1994,23.013656,2,5,9,14,29,-1024
1995,23.025322,2,6,9,10,36,-1022
1996,23.037014,2,6,9,11,29,-1018
1997,23.048682,3,5,9,11,30,-1016
1998,23.06037,2,6,9,9,29,-1019
1999,23.072043,3,6,8,10,30,-1021
