sample,t_s,gyro_x,gyro_y,gyro_z,accel_x,accel_y,accel_z
0,1e-05,4,7,10,14,24,-1023
1,0.011493,3,8,9,19,25,-1023
2,0.02271,3,4,8,15,25,-1021
3,0.033918,3,7,9,15,25,-1022
4,0.045112,2,4,9,14,25,-1024
5,0.0563,1,6,9,13,28,-1028
6,0.067492,2,6,9,15,27,-1028
7,0.078681,3,7,8,16,25,-1020
8,0.089867,3,8,8,13,24,-1025
9,0.101055,2,7,9,11,25,-1018
10,0.112244,2,7,9,14,25,-1018
11,0.123438,2,7,9,14,26,-1018
12,0.134627,2,6,9,13,27,-1020
13,0.145815,3,6,10,12,26,-1018
14,0.157001,2,6,9,15,30,-1025
15,0.168185,3,6,9,14,29,-1022
16,0.179371,2,6,9,16,24,-1022
17,0.190557,1,6,9,17,30,-1016
18,0.201744,2,5,9,14,23,-1023
19,0.212931,2,6,9,14,25,-1024
20,0.224118,2,6,9,16,24,-1018
21,0.235312,3,5,9,11,28,-1020
22,0.246497,2,6,8,11,26,-1030
23,0.257706,2,5,9,16,25,-1019
24,0.26889,1,6,8,16,28,-1020
25,0.28008,2,6,9,18,26,-1020
26,0.291252,2,5,8,18,24,-1023
27,0.302436,2,8,9,14,23,-1025
28,0.313618,2,7,8,13,24,-1030
29,0.3248,2,7,9,14,25,-1024
30,0.335992,2,7,10,15,29,-1029
31,0.347185,3,7,9,16,26,-1026
32,0.358367,2,7,9,13,29,-1013
33,0.369552,2,7,9,18,28,-1020
34,0.380734,2,6,9,14,26,-1025
35,0.391927,3,6,10,15,26,-1023
36,0.403127,2,5,9,19,28,-1018
37,0.414311,2,6,8,13,24,-1024
38,0.425492,2,6,9,16,27,-1017
39,0.436676,2,6,8,14,20,-1020
40,0.447862,3,5,9,15,28,-1027
41,0.459066,2,4,9,14,27,-1019
42,0.470247,3,7,9,16,26,-1023
43,0.481433,2,6,9,16,26,-1023
44,0.492617,2,6,10,14,27,-1022
45,0.503806,2,7,9,10,25,-1023
46,0.514988,3,8,9,17,27,-1024
47,0.526173,3,6,9,11,26,-1023
48,0.537358,3,6,8,14,22,-1022
49,0.548542,2,7,8,15,23,-1018
50,0.559736,3,7,10,14,25,-1026
51,0.57092,3,7,10,13,24,-1022
52,0.582106,3,6,9,11,26,-1019
53,0.593294,2,6,9,13,28,-1029
54,0.60448,2,7,9,18,30,-1021
55,0.615668,2,7,9,9,22,-1020
56,0.626854,2,7,10,17,27,-1024
57,0.638041,3,6,9,14,25,-1024
58,0.649227,3,7,8,11,26,-1014
59,0.660415,2,6,10,14,25,-1016
60,0.671613,2,5,9,14,24,-1025
61,0.682795,2,5,8,17,25,-1021
62,0.693979,2,4,8,15,26,-1018
63,0.705163,2,5,8,12,24,-1019
64,0.716348,2,4,9,15,29,-1021
65,0.727547,2,5,8,18,25,-1022
66,0.738731,3,7,8,16,23,-1025
67,0.749914,3,7,9,15,23,-1023
68,0.761115,3,7,8,13,26,-1026
69,0.772297,3,7,10,11,26,-1022
70,0.783483,3,8,9,15,21,-1022
71,0.794667,2,7,9,14,27,-1025
72,0.805857,3,7,8,16,27,-1025
73,0.817043,3,7,9,16,24,-1017
74,0.828231,2,7,10,14,23,-1024
75,0.839431,2,6,9,13,27,-1021
76,0.850616,2,6,9,18,25,-1022
77,0.861809,3,7,9,18,28,-1023
78,0.872993,3,7,9,18,28,-1021
79,0.884175,4,6,9,15,25,-1025
80,0.895365,1,5,10,14,25,-1017
81,0.906548,2,7,9,13,30,-1021
82,0.917735,2,6,9,13,27,-1023
83,0.928918,2,6,9,15,24,-1022
84,0.940108,3,6,8,14,25,-1019
85,0.951251,2,6,8,14,29,-1026
86,0.962433,2,6,8,15,23,-1019
87,0.973631,3,6,9,13,26,-1027
88,0.984813,3,6,10,16,26,-1029
89,0.995995,2,5,8,11,21,-1021
90,1.007193,2,4,9,14,28,-1020
91,1.018383,2,5,9,11,25,-1026
92,1.029571,2,6,9,11,26,-1027
93,1.040762,3,6,10,14,26,-1023
94,1.051961,2,6,9,11,24,-1025
95,1.063151,2,7,9,16,27,-1020
96,1.074342,3,7,8,13,22,-1021
97,1.085526,2,8,9,10,29,-1025
98,1.09671,3,8,10,15,26,-1020
99,1.107896,3,7,8,14,25,-1021
100,1.119081,3,7,9,15,30,-1026
101,1.130266,2,7,9,15,27,-1021
102,1.141454,3,7,9,16,25,-1025
103,1.152639,3,7,9,11,26,-1018
104,1.163808,2,6,9,16,28,-1022
105,1.174997,2,5,9,15,24,-1018
106,1.186182,2,5,9,14,25,-1029
107,1.197363,2,5,9,14,22,-1028
108,1.208547,1,5,9,12,27,-1026
109,1.219736,2,5,10,14,28,-1020
110,1.230919,2,5,9,15,26,-1024
111,1.242103,2,6,8,12,28,-1018
112,1.253289,2,6,9,10,24,-1019
113,1.26447,2,5,10,13,24,-1023
114,1.275619,2,6,9,11,24,-1016
115,1.2868,2,6,9,12,24,-1020
116,1.297982,2,6,9,14,27,-1021
117,1.309171,2,7,9,15,23,-1021
118,1.320354,2,6,10,15,26,-1023
119,1.331549,3,5,10,14,27,-1025
120,1.342732,2,7,9,18,29,-1023
121,1.353917,2,6,9,15,23,-1022
122,1.365108,2,4,9,13,27,-1021
123,1.376294,1,5,9,18,25,-1013
124,1.387479,2,6,9,7,27,-1025
125,1.398665,2,6,9,13,26,-1019
126,1.409848,2,5,8,15,27,-1020
127,1.421034,2,5,9,12,26,-1022
128,1.432222,2,4,8,16,29,-1019
129,1.443413,2,5,9,16,30,-1025
130,1.454595,2,5,8,11,25,-1027
131,1.46578,2,4,9,16,27,-1021
132,1.476979,2,5,8,16,27,-1022
133,1.48818,2,5,9,15,26,-1025
134,1.49937,2,6,9,16,26,-1018
135,1.510551,2,5,9,17,23,-1020
136,1.521732,2,5,10,11,26,-1011
137,1.532915,2,7,9,11,26,-1018
138,1.544102,2,7,9,12,26,-1032
139,1.555252,2,6,10,13,28,-1023
140,1.566435,3,6,10,15,28,-1029
141,1.577619,3,7,10,13,22,-1028
142,1.588802,2,7,9,11,22,-1023
143,1.599991,2,7,9,14,26,-1020
144,1.61118,2,6,9,15,27,-1018
145,1.622364,2,6,10,11,25,-1028
146,1.633548,2,6,9,14,28,-1028
147,1.644732,2,5,9,11,27,-1025
148,1.655926,2,6,9,14,22,-1020
149,1.667112,2,6,10,16,26,-1024
150,1.678311,2,6,9,17,27,-1022
151,1.689495,3,7,8,13,28,-1024
152,1.700679,2,6,9,16,27,-1025
153,1.711862,2,6,9,14,24,-1025
154,1.723058,2,5,9,15,25,-1021
155,1.73424,3,6,9,11,25,-1028
156,1.745422,3,6,8,11,22,-1019
157,1.756603,3,6,9,14,29,-1027
158,1.767797,2,6,9,14,27,-1029
159,1.778978,3,6,8,15,24,-1017
160,1.79016,3,5,8,16,27,-1026
161,1.801345,2,4,9,10,22,-1018
162,1.812528,2,4,9,14,24,-1018
163,1.82372,2,6,9,12,24,-1019
164,1.834918,3,5,8,10,30,-1022
165,1.846103,3,7,8,16,29,-1013
166,1.857297,2,7,9,17,24,-1023
167,1.868483,1,7,9,14,26,-1018
168,1.87967,2,6,9,15,27,-1022
169,1.890854,2,6,10,15,24,-1022
170,1.902038,2,6,9,15,28,-1019
171,1.91323,2,7,10,14,22,-1025
172,1.924414,2,6,9,17,25,-1014
173,1.935612,2,6,9,15,27,-1019
174,1.946794,2,5,9,15,26,-1021
175,1.957976,2,5,9,11,25,-1022
176,1.969164,1,6,9,16,24,-1018
177,1.98035,2,6,9,14,22,-1023
178,1.991543,2,6,8,11,27,-1022
179,2.002726,2,6,8,10,25,-1022
180,2.013912,2,6,9,14,26,-1024
181,2.025097,3,6,9,17,21,-1019
182,2.036281,2,6,9,12,24,-1012
183,2.047437,3,6,9,14,26,-1026
184,2.05862,3,7,9,16,23,-1023
185,2.069802,3,6,9,10,24,-1018
186,2.080999,2,7,9,15,26,-1021
187,2.092184,2,6,8,14,27,-1020
188,2.103371,3,6,9,17,25,-1017
189,2.114554,3,7,9,11,29,-1023
190,2.125738,3,8,8,17,26,-1023
191,2.136922,3,7,9,15,27,-1018
192,2.14811,3,7,9,14,26,-1022
193,2.159253,3,7,9,17,27,-1024
194,2.170435,2,7,8,15,20,-1024
195,2.181623,2,6,8,12,25,-1016
196,2.192851,2,6,9,13,26,-1020
197,2.204038,2,6,10,16,22,-1023
198,2.215225,2,7,9,13,25,-1024
199,2.226409,3,7,9,13,28,-1021
200,2.237592,2,8,9,12,24,-1025
201,2.248778,2,7,8,15,25,-1023
202,2.259967,2,8,8,10,28,-1023
203,2.271152,3,7,9,14,26,-1024
204,2.282336,3,7,9,14,28,-1015
205,2.293519,3,7,9,15,28,-1022
206,2.304701,2,7,9,11,24,-1019
207,2.315893,3,8,9,12,25,-1020
208,2.327066,3,7,9,13,24,-1019
209,2.338251,2,6,8,10,22,-1021
210,2.349433,2,6,8,9,25,-1027
211,2.360618,3,5,9,9,26,-1019
212,2.371805,2,6,9,14,25,-1025
213,2.382988,2,5,8,13,21,-1019
214,2.394185,2,6,8,12,24,-1018
215,2.405368,3,6,9,13,25,-1014
216,2.416557,2,6,8,13,26,-1024
217,2.427746,3,7,9,15,26,-1023
218,2.438928,3,8,10,12,27,-1023
219,2.45011,2,7,9,10,24,-1023
220,2.461291,3,6,9,14,24,-1026
221,2.472471,2,4,9,15,30,-1027
222,2.48362,2,5,9,15,25,-1023
223,2.494801,2,5,9,16,28,-1016
224,2.50598,2,6,10,13,25,-1021
225,2.517165,2,6,10,13,26,-1020
226,2.528347,2,7,9,13,25,-1015
227,2.539542,2,6,9,13,24,-1022
228,2.550735,2,6,9,11,24,-1024
229,2.561918,3,5,9,11,26,-1028
230,2.573102,3,6,8,14,27,-1021
231,2.584285,2,5,10,13,24,-1025
232,2.595435,2,5,10,15,25,-1017
233,2.606618,3,6,10,15,25,-1023
234,2.6178,2,6,9,9,27,-1025
235,2.628994,3,6,9,12,26,-1016
236,2.640178,2,5,10,15,23,-1019
237,2.65137,2,5,9,16,27,-1023
238,2.662553,1,5,9,12,29,-1022
239,2.67374,2,5,9,16,27,-1027
240,2.684922,2,5,9,12,28,-1017
241,2.696107,2,5,9,9,28,-1023
242,2.707247,1,6,10,11,27,-1020
243,2.718428,2,6,10,11,26,-1025
244,2.729611,2,7,9,15,29,-1019
245,2.74079,3,6,10,17,22,-1021
246,2.751984,3,7,8,16,30,-1019
247,2.763177,3,7,9,14,21,-1018
248,2.774361,3,6,9,16,22,-1016
249,2.785543,3,7,9,12,25,-1019
250,2.796726,3,7,10,13,29,-1020
251,2.807916,2,7,10,11,28,-1022
252,2.819066,2,7,9,16,29,-1019
253,2.830253,2,6,9,11,29,-1023
254,2.841436,1,6,9,15,26,-1024
255,2.852624,2,4,9,17,26,-1028
256,2.863806,1,5,9,16,24,-1017
257,2.874989,2,7,10,13,27,-1018
258,2.886171,2,6,10,12,25,-1019
259,2.897353,2,6,9,16,27,-1012
260,2.908553,3,7,8,14,26,-1024
261,2.919742,2,5,10,11,27,-1022
262,2.930923,2,5,9,19,24,-1017
263,2.942106,2,6,10,15,29,-1023
264,2.953291,2,6,10,11,29,-1020
265,2.964473,2,6,10,11,30,-1019
266,2.97562,3,7,9,12,21,-1021
267,2.986801,3,7,9,13,28,-1024
268,2.997982,2,7,9,14,26,-1022
269,3.009165,3,7,9,13,25,-1017
270,3.020347,2,6,8,12,25,-1027
271,3.031548,3,7,9,12,23,-1022
272,3.042731,3,6,8,16,26,-1020
273,3.05391,3,6,10,15,26,-1024
274,3.065093,2,6,8,15,28,-1025
275,3.076275,2,5,9,15,25,-1023
276,3.087437,3,7,9,15,28,-1026
277,3.098622,2,6,9,12,27,-1020
278,3.109805,2,7,9,13,27,-1022
279,3.120989,3,6,8,17,23,-1021
280,3.13217,2,7,8,14,28,-1019
281,3.143361,1,5,9,11,28,-1022
282,3.154542,2,6,8,15,25,-1021
283,3.165723,2,6,9,14,23,-1027
284,3.176905,2,5,9,14,25,-1022
285,3.188111,2,7,9,10,25,-1024
286,3.199296,3,7,9,15,24,-1023
287,3.210481,3,6,9,13,25,-1020
288,3.22167,2,6,9,11,28,-1023
289,3.232853,2,6,10,13,25,-1020
290,3.244038,3,7,10,12,28,-1028
291,3.255233,2,7,10,16,26,-1022
292,3.266414,3,7,10,14,28,-1021
293,3.277594,1,6,9,15,23,-1021
294,3.288778,2,7,9,12,23,-1022
295,3.299964,2,7,9,16,25,-1019
296,3.311148,2,7,9,16,23,-1019
297,3.322332,3,7,9,13,22,-1024
298,3.333518,3,7,9,13,27,-1014
299,3.344702,3,8,9,14,25,-1019
300,3.355887,2,7,9,16,27,-1026
301,3.367066,3,7,10,16,30,-1025
302,3.378251,2,7,9,14,27,-1023
303,3.389433,2,6,8,15,20,-1026
304,3.400615,2,6,8,14,26,-1016
305,3.411808,2,5,8,10,30,-1027
306,3.42299,2,7,8,13,26,-1019
307,3.434173,3,6,9,12,23,-1027
308,3.445354,3,6,9,14,29,-1021
309,3.456551,2,5,9,13,26,-1019
310,3.467739,2,6,8,14,25,-1020
311,3.478921,2,7,9,15,26,-1022
312,3.490104,3,7,9,13,21,-1015
313,3.501288,3,5,8,16,26,-1021
314,3.512481,2,6,9,14,27,-1028
315,3.523668,2,7,9,13,29,-1024
316,3.53485,3,6,9,16,25,-1025
317,3.546032,3,6,8,12,24,-1014
318,3.557214,2,6,8,11,28,-1026
319,3.568395,2,5,9,13,30,-1024
320,3.57958,2,6,8,17,27,-1021
321,3.590764,2,5,8,14,24,-1018
322,3.601953,1,5,9,14,27,-1018
323,3.613152,2,6,9,15,22,-1021
324,3.624337,3,8,8,14,23,-1020
325,3.635527,2,7,8,15,29,-1018
326,3.646709,2,7,9,12,25,-1021
327,3.657896,3,8,9,11,25,-1013
328,3.669082,3,8,9,19,25,-1017
329,3.680267,3,8,9,15,28,-1024
330,3.691439,3,7,8,14,25,-1016
331,3.702628,2,6,9,16,27,-1025
332,3.713814,2,6,9,15,26,-1020
333,3.725007,2,7,8,14,27,-1020
334,3.736202,2,7,9,10,28,-1017
335,3.747391,2,7,9,14,26,-1022
336,3.758573,2,6,10,11,24,-1023
337,3.769759,2,7,9,13,26,-1018
338,3.780939,3,7,9,11,23,-1018
339,3.79213,2,7,10,12,27,-1027
340,3.803326,2,6,9,14,23,-1013
341,3.814511,1,4,9,14,23,-1023
342,3.825703,2,4,9,11,24,-1024
343,3.836888,2,5,9,12,23,-1016
344,3.848081,3,6,8,17,28,-1019
345,3.859252,2,7,8,14,26,-1018
346,3.870433,2,6,10,19,29,-1024
347,3.881613,2,6,9,18,23,-1017
348,3.892794,2,6,8,15,27,-1012
349,3.903986,1,7,9,14,29,-1023
350,3.915176,2,7,9,11,24,-1021
351,3.926358,2,6,10,11,25,-1021
352,3.937539,3,7,9,12,23,-1022
353,3.948725,3,6,9,13,27,-1019
354,3.959915,2,6,9,17,30,-1023
355,3.971078,2,7,9,11,24,-1021
356,3.982268,2,6,9,14,27,-1023
357,3.993459,3,6,8,16,24,-1021
358,4.00464,2,7,8,13,30,-1021
359,4.015813,3,7,8,17,27,-1017
360,4.026995,2,5,9,15,22,-1020
361,4.038189,2,5,9,10,27,-1024
362,4.049374,2,5,9,16,27,-1023
363,4.060554,2,6,9,12,27,-1024
364,4.071744,2,5,9,29,25,-1027
365,4.082927,3,5,8,16,25,-1022
366,4.094111,2,4,9,12,24,-1019
367,4.105292,2,6,8,19,24,-1025
368,4.116474,2,6,9,16,25,-1025
369,4.127637,3,7,9,8,22,-1026
370,4.138819,1,5,9,10,29,-1020
371,4.150008,2,5,9,13,28,-1017
372,4.161193,2,5,10,15,26,-1019
373,4.172383,2,6,9,13,24,-1021
374,4.183572,2,5,8,17,25,-1023
375,4.194754,2,6,9,13,24,-1019
376,4.20594,3,6,10,12,25,-1023
377,4.217128,2,6,9,12,28,-1022
378,4.228312,2,5,8,18,25,-1019
379,4.239527,2,6,9,16,27,-1031
380,4.250714,2,6,8,14,26,-1026
381,4.2619,2,6,8,13,24,-1022
382,4.273088,2,5,9,16,28,-1025
383,4.284271,3,6,8,12,26,-1027
384,4.295436,2,6,8,11,27,-1014
385,4.306622,3,7,9,14,25,-1024
386,4.317806,2,7,10,14,25,-1020
387,4.329006,3,7,9,14,28,-1019
388,4.340196,3,6,9,12,28,-1018
389,4.35139,2,5,8,18,28,-1028
390,4.362577,3,6,8,13,28,-1019
391,4.373762,2,6,8,9,23,-1019
392,4.38495,2,6,9,17,21,-1017
393,4.396135,2,7,8,15,26,-1021
394,4.407331,3,7,8,13,28,-1017
395,4.418514,2,7,9,15,22,-1019
396,4.429704,2,7,9,11,27,-1026
397,4.440888,2,7,9,12,28,-1023
398,4.452105,2,6,9,14,29,-1014
399,4.463253,3,8,9,10,26,-1022
400,4.47444,2,7,9,15,25,-1022
401,4.485631,2,8,9,15,29,-1023
402,4.496814,3,6,9,10,28,-1026
403,4.507998,2,8,9,14,25,-1018
404,4.519185,3,8,9,13,27,-1025
405,4.530371,2,7,10,13,29,-1018
406,4.541576,3,7,9,7,27,-1019
407,4.553233,2,7,9,12,27,-1021
408,4.564882,2,7,9,15,28,-1018
409,4.576559,2,6,9,11,27,-1023
410,4.588224,2,5,9,11,23,-1023
411,4.599886,2,6,9,8,21,-1019
412,4.611557,2,6,8,11,24,-1018
413,4.623237,2,5,9,12,28,-1028
414,4.634898,2,7,9,12,26,-1019
415,4.646564,2,6,9,8,28,-1023
416,4.658219,3,6,9,11,27,-1017
417,4.669866,2,5,9,15,26,-1023
418,4.681516,2,6,9,12,27,-1027
419,4.693186,3,5,8,13,29,-1024
420,4.704839,2,6,9,12,25,-1017
421,4.716514,2,6,9,9,24,-1023
422,4.728141,3,6,9,8,26,-1027
423,4.739824,2,7,9,13,26,-1021
424,4.751502,2,6,8,15,29,-1023
425,4.76318,2,6,9,14,27,-1025
426,4.774838,3,7,10,13,25,-1025
427,4.786492,2,5,9,11,24,-1022
428,4.79814,2,7,9,9,27,-1023
429,4.809811,2,6,9,13,25,-1025
430,4.821463,2,6,9,17,26,-1023
431,4.833112,2,7,8,12,24,-1021
432,4.84477,2,6,9,13,25,-1021
433,4.856404,2,7,8,14,24,-1022
434,4.868078,3,5,9,14,23,-1026
435,4.879761,2,6,9,14,26,-1021
436,4.891427,2,6,9,17,25,-1026
437,4.903108,2,7,9,15,24,-1024
438,4.914755,2,7,9,14,28,-1019
439,4.926398,2,6,10,18,23,-1024
440,4.938042,3,6,9,19,22,-1023
441,4.949765,3,7,9,10,28,-1024
442,4.961424,2,6,9,14,24,-1019
443,4.973083,2,6,9,15,25,-1029
444,4.984739,2,6,10,15,29,-1019
445,4.996397,2,6,9,14,26,-1018
446,5.008289,2,6,8,14,27,-1022
447,5.020133,2,6,9,15,26,-1021
448,5.031825,3,6,8,10,24,-1019
449,5.043512,2,6,9,13,24,-1022
450,5.055316,1,6,9,16,24,-1017
451,5.067024,2,6,9,16,29,-1019
452,5.078594,2,6,9,14,24,-1024
453,5.090165,3,6,9,16,31,-1023
454,5.101715,3,6,9,13,25,-1021
455,5.113286,3,6,9,16,26,-1021
456,5.124828,2,7,9,14,21,-1024
457,5.136389,2,6,9,12,24,-1024
458,5.147952,3,6,8,15,22,-1014
459,5.159508,2,6,9,17,25,-1021
460,5.171166,2,6,10,16,27,-1014
461,5.182823,2,6,9,15,24,-1015
462,5.194476,2,6,9,15,27,-1024
463,5.20612,3,5,9,12,25,-1026
464,5.217768,2,6,8,15,24,-1024
465,5.229446,2,6,8,12,24,-1020
466,5.241098,3,6,9,11,25,-1023
467,5.252745,2,6,9,13,25,-1019
468,5.264577,2,6,8,16,23,-1018
469,5.276277,2,6,9,12,23,-1020
470,5.287835,1,6,9,12,19,-1020
471,5.299421,2,5,10,12,22,-1020
472,5.310965,2,6,8,15,27,-1021
473,5.322515,2,6,10,11,25,-1021
474,5.334071,2,6,10,12,24,-1023
475,5.345641,2,6,9,15,25,-1021
476,5.357204,2,6,9,18,25,-1031
477,5.368791,2,7,9,17,28,-1022
478,5.380385,2,7,9,11,25,-1015
479,5.392089,2,7,9,12,28,-1016
480,5.403757,2,6,9,15,29,-1019
481,5.415429,2,7,9,12,26,-1022
482,5.427109,2,7,9,13,25,-1022
483,5.438786,2,6,8,15,27,-1018
484,5.450476,2,7,10,12,25,-1013
485,5.46213,2,6,9,11,28,-1020
486,5.473793,1,6,9,15,25,-1024
487,5.485465,2,6,10,10,24,-1021
488,5.497045,3,6,9,16,22,-1022
489,5.508603,2,6,8,12,27,-1023
490,5.520191,2,6,9,14,28,-1019
491,5.531794,2,6,9,13,25,-1019
492,5.543349,2,6,9,13,21,-1021
493,5.554906,2,6,9,17,27,-1022
494,5.566451,3,6,9,12,27,-1020
495,5.578015,2,6,8,15,26,-1017
496,5.589636,3,7,9,15,26,-1023
497,5.601291,2,6,9,8,29,-1028
498,5.612943,2,7,10,11,28,-1025
499,5.62461,2,7,9,16,27,-1022
500,5.636279,2,6,8,16,26,-1021
501,5.647959,2,6,8,15,24,-1019
502,5.659634,2,7,10,11,26,-1024
503,5.671289,2,6,9,12,25,-1022
504,5.682959,2,6,10,11,28,-1024
505,5.694626,2,6,9,18,26,-1028
506,5.706175,3,6,9,13,25,-1022
507,5.717714,3,6,10,15,28,-1018
508,5.729254,2,6,9,13,27,-1028
509,5.740798,2,6,9,12,29,-1019
510,5.752374,2,6,9,13,24,-1026
511,5.763945,2,6,10,13,22,-1028
512,5.775543,2,6,9,13,29,-1027
513,5.787114,2,6,9,10,26,-1019
514,5.798733,2,7,9,11,26,-1025
515,5.810429,2,7,9,14,27,-1014
516,5.822092,2,6,9,15,25,-1018
517,5.833746,3,5,9,12,28,-1018
518,5.845439,2,6,9,14,26,-1019
519,5.857103,2,6,8,12,27,-1016
520,5.868757,3,7,9,13,24,-1023
521,5.88042,3,7,9,16,24,-1028
522,5.892071,3,6,9,17,28,-1024
523,5.903657,2,7,8,16,28,-1020
524,5.915224,3,6,9,11,27,-1019
525,5.92677,2,6,9,15,26,-1018
526,5.938353,2,6,9,17,24,-1025
527,5.949905,2,6,9,14,24,-1024
528,5.961462,2,7,9,15,26,-1027
529,5.973026,2,7,8,12,27,-1024
530,5.984571,3,6,8,12,31,-1020
531,5.996163,2,7,9,10,27,-1023
532,6.007795,2,7,10,17,25,-1017
533,6.019486,2,7,9,12,31,-1023
534,6.031155,2,6,9,16,29,-1024
535,6.042811,3,6,9,12,26,-1017
536,6.054469,2,5,9,16,27,-1021
537,6.066122,2,7,9,12,27,-1023
538,6.077758,2,7,9,13,25,-1018
539,6.089421,2,7,9,13,25,-1011
540,6.101099,2,7,9,14,22,-1025
541,6.112784,2,6,9,13,28,-1021
542,6.124318,3,6,9,15,27,-1016
543,6.135887,2,7,9,15,24,-1020
544,6.147463,3,7,8,14,24,-1024
545,6.159028,2,7,9,13,24,-1021
546,6.170598,2,7,9,16,27,-1017
547,6.182155,2,5,9,14,27,-1022
548,6.193691,2,6,9,15,25,-1021
549,6.205242,2,6,9,13,26,-1020
550,6.216861,2,6,9,16,23,-1021
551,6.228542,2,6,9,12,24,-1021
552,6.240224,2,6,9,17,22,-1020
553,6.251897,2,6,9,14,23,-1024
554,6.263555,2,6,9,12,23,-1023
555,6.27523,2,6,9,14,27,-1022
556,6.28688,2,6,9,12,29,-1024
557,6.298541,2,6,9,13,25,-1020
558,6.310225,3,6,9,13,27,-1024
559,6.321876,2,7,9,11,24,-1017
560,6.333438,2,7,9,13,26,-1021
561,6.345008,2,6,9,11,29,-1023
562,6.356565,2,6,9,14,23,-1027
563,6.368149,1,6,8,10,26,-1027
564,6.379711,2,6,9,12,29,-1017
565,6.391271,2,6,9,14,29,-1024
566,6.402815,2,7,10,15,28,-1025
567,6.414389,2,6,9,19,25,-1023
568,6.426051,2,5,9,13,27,-1020
569,6.437715,3,6,9,14,27,-1021
570,6.449375,3,6,9,15,28,-1022
571,6.461024,3,6,9,12,27,-1023
572,6.472701,2,6,8,18,24,-1021
573,6.484388,2,7,9,12,21,-1026
574,6.496053,3,6,9,12,23,-1017
575,6.507712,2,6,8,15,28,-1024
576,6.519389,2,6,9,17,25,-1018
577,6.531037,2,5,9,13,24,-1016
578,6.542613,2,6,8,16,28,-1022
579,6.554157,2,7,9,14,21,-1022
580,6.565695,2,7,8,13,25,-1020
581,6.577236,2,6,8,14,31,-1023
582,6.588785,2,5,10,12,30,-1020
583,6.600312,2,6,9,12,23,-1022
584,6.611829,3,7,9,12,24,-1021
585,6.623344,3,6,9,16,26,-1020
586,6.634991,2,6,9,16,26,-1020
587,6.646645,2,7,8,19,29,-1012
588,6.65834,2,5,9,16,27,-1019
589,6.669985,2,6,8,15,27,-1020
590,6.681641,3,6,9,13,27,-1022
591,6.693319,2,6,8,13,26,-1022
592,6.704965,2,6,8,13,25,-1023
593,6.716657,2,6,9,12,25,-1019
594,6.728361,2,5,10,13,25,-1023
595,6.740012,3,6,9,13,25,-1022
596,6.751588,2,6,9,12,28,-1019
597,6.763152,2,6,9,15,25,-1021
598,6.77471,3,5,9,13,25,-1020
599,6.786277,3,6,8,11,23,-1026
600,6.797825,2,6,8,15,23,-1020
601,6.809394,2,6,9,19,28,-1021
602,6.820944,3,6,9,14,26,-1025
603,6.832534,3,5,8,15,30,-1020
604,6.844137,2,6,9,12,24,-1024
605,6.855831,3,6,9,17,25,-1019
606,6.8675,3,6,9,10,25,-1023
607,6.879178,2,6,9,12,24,-1020
608,6.890849,3,6,9,15,27,-1019
609,6.902498,2,6,9,16,26,-1028
610,6.914182,1,6,8,14,30,-1028
611,6.925866,2,6,10,13,26,-1024
612,6.937529,2,6,9,13,22,-1022
613,6.949169,2,6,9,15,28,-1017
614,6.960716,2,6,9,11,27,-1020
615,6.972336,2,6,9,16,26,-1018
616,6.984039,2,6,9,13,24,-1023
617,6.995576,3,5,9,11,26,-1020
618,7.007111,2,6,10,15,30,-1021
619,7.01866,1,5,9,14,26,-1020
620,7.030309,1,6,9,11,28,-1023
621,7.041946,2,6,9,10,28,-1018
622,7.05354,3,6,10,13,28,-1019
623,7.065127,3,6,9,19,25,-1025
624,7.07668,3,7,9,14,29,-1022
625,7.088264,3,7,8,15,23,-1018
626,7.099824,2,7,8,12,26,-1021
627,7.111345,2,7,9,14,27,-1024
628,7.122888,2,7,8,10,27,-1030
629,7.134428,2,6,9,14,27,-1022
630,7.146061,2,6,9,12,27,-1019
631,7.157706,2,6,10,10,24,-1018
632,7.169382,2,7,9,11,26,-1021
633,7.18104,2,6,9,15,28,-1020
634,7.192706,2,7,9,12,28,-1024
635,7.204394,2,7,9,12,27,-1020
636,7.216064,2,6,9,14,27,-1022
637,7.227747,2,6,9,11,29,-1018
638,7.239376,3,6,8,15,27,-1020
639,7.25104,3,6,9,13,22,-1026
640,7.262708,3,6,8,11,26,-1016
641,7.274356,2,7,9,14,23,-1017
642,7.286051,2,7,9,17,23,-1024
643,7.297706,2,6,10,15,25,-1025
644,7.309359,2,5,9,13,26,-1020
645,7.321017,2,6,10,12,30,-1020
646,7.3327,2,7,9,16,23,-1021
647,7.344402,2,6,8,15,26,-1018
648,7.356056,2,7,9,14,27,-1021
649,7.367649,2,7,9,16,31,-1026
650,7.379216,2,6,9,13,29,-1015
651,7.390763,3,5,9,12,26,-1021
652,7.40231,3,6,8,16,28,-1026
653,7.413873,2,6,8,12,27,-1023
654,7.425483,2,7,9,11,25,-1027
655,7.437036,2,6,9,14,24,-1022
656,7.448584,1,7,8,18,29,-1026
657,7.460155,2,7,9,16,26,-1022
658,7.47178,2,6,9,13,25,-1026
659,7.483445,2,7,9,16,28,-1018
660,7.495117,2,7,9,15,26,-1023
661,7.506796,2,6,9,11,26,-1025
662,7.518452,2,6,9,13,26,-1027
663,7.530106,1,6,9,15,23,-1023
664,7.541777,2,6,9,16,22,-1019
665,7.553433,2,6,9,17,25,-1017
666,7.565101,3,6,9,14,26,-1014
667,7.576753,3,6,9,16,31,-1024
668,7.588313,2,7,8,12,24,-1019
669,7.599893,2,6,9,9,26,-1018
670,7.611469,2,6,9,10,23,-1019
671,7.62302,3,6,8,14,25,-1019
672,7.634569,1,6,10,13,24,-1021
673,7.646138,2,7,9,13,27,-1022
674,7.657698,2,7,10,13,29,-1027
675,7.669265,2,6,9,12,23,-1022
676,7.680883,2,5,9,16,25,-1024
677,7.692555,3,6,9,15,25,-1020
678,7.704217,3,6,9,13,21,-1025
679,7.715901,2,6,9,17,25,-1020
680,7.727562,2,6,8,17,23,-1017
681,7.739252,2,6,8,14,23,-1025
682,7.750918,2,6,9,14,26,-1025
683,7.762572,2,6,9,15,27,-1019
684,7.774236,2,6,9,15,26,-1025
685,7.7859,2,6,9,13,28,-1019
686,7.797456,3,7,9,12,25,-1024
687,7.809018,3,6,9,15,22,-1025
688,7.820593,2,6,9,13,27,-1018
689,7.832146,2,7,9,13,25,-1022
690,7.84371,2,6,9,13,23,-1025
691,7.855267,2,6,9,15,28,-1017
692,7.866811,2,6,9,10,24,-1021
693,7.878373,3,6,9,15,26,-1022
694,7.890036,3,6,9,15,25,-1026
695,7.901694,2,6,8,8,26,-1025
696,7.913405,3,6,9,15,24,-1021
697,7.925075,2,6,9,12,21,-1027
698,7.936732,2,6,9,10,29,-1020
699,7.948416,3,7,9,15,28,-1018
700,7.960078,2,7,9,12,28,-1016
701,7.971776,3,5,9,13,24,-1022
702,7.983451,2,6,9,13,27,-1029
703,7.995121,2,5,8,15,27,-1022
704,8.006688,2,6,9,17,25,-1023
705,8.01826,2,6,8,13,29,-1019
706,8.029833,2,7,9,11,24,-1016
707,8.041394,2,6,8,15,26,-1022
708,8.05294,2,6,9,17,24,-1021
709,8.064489,1,6,9,12,27,-1022
710,8.076064,1,7,9,17,23,-1021
711,8.087597,2,6,9,10,27,-1018
712,8.099231,2,6,8,13,28,-1022
713,8.110901,2,6,9,16,25,-1021
714,8.122564,2,6,10,15,25,-1028
715,8.134216,2,6,10,10,25,-1025
716,8.145879,2,6,9,17,27,-1015
717,8.157534,2,7,9,12,27,-1022
718,8.169199,2,6,9,13,26,-1020
719,8.180854,2,6,9,15,25,-1016
720,8.192545,3,6,10,12,27,-1025
721,8.20421,3,6,10,15,26,-1020
722,8.215777,2,6,9,15,25,-1019
723,8.227351,2,6,9,12,27,-1025
724,8.238899,2,6,10,14,25,-1023
725,8.25045,2,7,9,14,27,-1020
726,8.262003,2,7,9,14,27,-1028
727,8.273553,2,7,8,15,28,-1020
728,8.285102,2,6,9,15,26,-1017
729,8.296668,2,6,9,11,28,-1020
730,8.30836,2,6,9,14,27,-1018
731,8.320065,2,6,9,16,27,-1013
732,8.331749,2,6,9,15,27,-1019
733,8.343436,2,6,8,12,23,-1023
734,8.355106,2,6,9,15,25,-1016
735,8.366758,2,7,9,14,25,-1024
736,8.378427,2,6,9,15,32,-1029
737,8.39007,3,6,9,14,27,-1023
738,8.401776,2,6,9,12,21,-1024
739,8.41338,2,7,8,17,27,-1020
740,8.424949,2,7,9,11,27,-1020
741,8.436508,3,6,9,14,28,-1022
742,8.448067,2,7,9,14,27,-1020
743,8.459587,3,6,9,19,26,-1021
744,8.471092,2,6,9,13,25,-1021
745,8.482628,3,6,9,14,24,-1023
746,8.494165,3,7,9,15,26,-1016
747,8.505719,3,7,9,13,25,-1013
748,8.517339,2,7,9,13,25,-1027
749,8.529012,2,6,9,12,26,-1021
750,8.540685,2,7,9,13,27,-1016
751,8.552359,2,6,9,14,28,-1022
752,8.564105,2,6,10,13,26,-1032
753,8.575818,2,6,9,13,23,-1017
754,8.587519,3,6,9,15,25,-1027
755,8.599192,2,6,9,12,27,-1022
756,8.610874,2,7,9,11,24,-1022
757,8.622607,2,6,8,10,28,-1023
758,8.634175,2,7,9,19,30,-1031
759,8.645755,2,6,9,11,23,-1022
760,8.657307,2,6,9,10,29,-1018
761,8.669022,2,6,9,17,27,-1020
762,8.680593,3,6,9,15,28,-1021
763,8.692149,3,6,8,15,24,-1026
764,8.703755,2,7,9,12,26,-1016
765,8.715357,2,6,9,14,22,-1024
766,8.72698,2,6,9,18,27,-1028
767,8.738647,2,6,9,14,30,-1026
768,8.750298,2,6,9,14,27,-1017
769,8.761943,2,5,9,13,21,-1024
770,8.77362,1,6,9,13,26,-1022
771,8.785262,2,7,10,13,26,-1013
772,8.796913,2,6,9,14,27,-1024
773,8.808572,2,6,9,9,25,-1016
774,8.820266,2,6,8,16,23,-1021
775,8.831989,2,6,9,14,26,-1016
776,8.843568,3,6,9,11,21,-1022
777,8.85511,2,6,9,12,26,-1020
778,8.866663,1,6,9,14,29,-1023
779,8.878234,1,6,8,13,28,-1024
780,8.889779,2,6,10,14,22,-1022
781,8.901359,2,7,9,11,22,-1021
782,8.912909,2,6,9,16,23,-1022
783,8.924479,2,6,9,16,25,-1021
784,8.93616,3,6,8,13,27,-1025
785,8.94781,2,5,10,13,28,-1016
786,8.959509,2,6,10,13,24,-1026
787,8.971163,2,6,9,16,23,-1027
788,8.982824,2,6,9,15,26,-1023
789,8.994489,2,6,9,15,29,-1018
790,9.006185,1,5,9,16,25,-1019
791,9.017882,2,6,9,15,29,-1018
792,9.029548,2,6,9,12,22,-1022
793,9.041118,2,6,9,16,25,-1019
794,9.052673,2,7,9,11,28,-1024
795,9.064242,2,6,9,14,27,-1014
796,9.075816,2,6,9,14,25,-1017
797,9.087356,3,6,10,16,29,-1022
798,9.098903,3,7,9,16,27,-1019
799,9.110478,2,6,9,15,26,-1025
800,9.12202,2,6,9,15,21,-1021
801,9.133601,3,6,9,14,28,-1020
802,9.145273,2,6,9,14,27,-1026
803,9.156931,2,7,9,14,28,-1016
804,9.168585,2,6,8,13,25,-1027
805,9.180275,2,6,10,14,29,-1026
806,9.191939,2,6,9,16,28,-1019
807,9.203648,2,6,9,16,28,-1027
808,9.21531,2,6,9,14,27,-1023
809,9.226965,2,7,9,13,27,-1027
810,9.238524,3,7,9,14,29,-1022
811,9.25009,2,6,9,15,26,-1024
812,9.261647,2,6,9,11,24,-1016
813,9.27325,2,7,9,13,24,-1022
814,9.284808,2,6,9,13,29,-1018
815,9.296364,2,6,9,14,26,-1021
816,9.307941,3,6,9,14,22,-1025
817,9.319496,3,6,10,13,24,-1024
818,9.331063,2,6,9,16,28,-1015
819,9.342746,2,6,9,14,24,-1025
820,9.354428,2,6,9,15,23,-1021
821,9.366108,3,7,9,12,29,-1018
822,9.377773,2,6,9,12,28,-1012
823,9.389426,3,6,9,17,23,-1019
824,9.401138,2,5,9,15,28,-1023
825,9.412793,2,7,9,10,25,-1019
826,9.424449,2,6,9,14,27,-1025
827,9.436161,2,5,9,12,27,-1015
828,9.447839,2,6,9,16,28,-1015
829,9.459404,1,6,9,14,27,-1021
830,9.470962,2,7,9,16,28,-1023
831,9.482515,2,6,9,13,24,-1023
832,9.494085,2,6,9,14,28,-1025
833,9.505665,2,6,9,16,25,-1016
834,9.517256,2,6,9,17,29,-1025
835,9.528821,3,7,10,12,24,-1018
836,9.540383,3,6,9,18,28,-1021
837,9.552033,2,6,10,14,24,-1019
838,9.563688,2,6,10,13,22,-1018
839,9.57538,2,6,9,12,23,-1017
840,9.587043,3,5,9,10,27,-1018
841,9.598685,2,6,10,14,24,-1018
842,9.610338,2,6,9,14,25,-1023
843,9.621991,2,6,9,11,29,-1016
844,9.633661,2,6,9,18,24,-1021
845,9.645311,2,6,9,14,31,-1023
846,9.656862,2,6,9,11,27,-1024
847,9.668476,2,7,10,16,25,-1024
848,9.680054,2,7,9,14,24,-1019
849,9.691603,2,6,10,12,24,-1029
850,9.70315,3,6,10,12,29,-1018
851,9.714695,2,6,9,12,28,-1012
852,9.72624,3,6,9,11,27,-1022
853,9.737787,2,6,9,15,26,-1021
854,9.749359,2,6,9,14,23,-1023
855,9.761036,2,6,9,18,31,-1023
856,9.772694,2,6,9,14,25,-1025
857,9.784387,3,7,9,11,23,-1015
858,9.796052,2,7,9,11,24,-1023
859,9.807728,3,6,10,10,27,-1019
860,9.819387,3,7,9,13,27,-1017
861,9.831046,3,7,9,15,26,-1019
862,9.842718,2,6,9,14,24,-1020
863,9.854375,3,7,9,13,27,-1023
864,9.865931,2,6,9,12,28,-1021
865,9.877511,2,6,9,10,24,-1017
866,9.889077,3,6,9,13,25,-1021
867,9.900626,2,6,9,14,27,-1019
868,9.912192,2,6,10,16,30,-1024
869,9.923756,2,6,8,16,26,-1025
870,9.935353,2,6,9,12,27,-1019
871,9.946915,2,6,9,12,29,-1023
872,9.958578,2,6,9,14,26,-1030
873,9.970236,2,6,9,12,19,-1017
874,9.98191,2,6,9,13,28,-1024
875,9.993559,3,7,9,11,24,-1020
876,10.005207,1,6,8,21,27,-1020
877,10.016881,2,6,8,11,29,-1024
878,10.028539,2,7,9,11,23,-1029
879,10.040194,2,6,8,15,26,-1020
880,10.051899,2,6,9,12,27,-1019
881,10.063556,2,6,8,11,25,-1016
882,10.075237,2,6,10,12,25,-1021
883,10.086905,2,6,8,13,29,-1022
884,10.098548,3,6,9,14,28,-1022
885,10.110195,2,6,9,15,25,-1025
886,10.121866,2,5,9,17,27,-1019
887,10.133525,2,6,9,16,26,-1023
888,10.145179,2,6,9,15,31,-1022
889,10.156851,2,7,9,15,25,-1019
890,10.168533,3,6,9,15,26,-1020
891,10.180195,2,7,10,16,29,-1020
892,10.191887,2,6,9,13,27,-1016
893,10.203544,2,7,9,14,25,-1020
894,10.215242,2,6,9,16,26,-1017
895,10.226894,2,7,9,10,25,-1025
896,10.238545,2,5,10,14,21,-1025
897,10.250222,2,6,9,14,23,-1024
898,10.261913,2,6,9,13,26,-1025
899,10.273562,3,7,9,13,25,-1024
900,10.285232,2,6,9,14,24,-1019
901,10.296881,2,6,10,12,27,-1026
902,10.30855,2,6,9,13,24,-1027
903,10.320217,2,7,9,13,23,-1022
904,10.331893,2,6,9,14,26,-1018
905,10.343546,2,7,9,11,26,-1019
906,10.355236,3,6,9,16,25,-1018
907,10.366895,2,7,8,14,25,-1021
908,10.378572,2,6,9,14,28,-1023
909,10.390236,2,7,8,15,30,-1026
910,10.401904,2,6,9,12,21,-1019
911,10.413558,2,6,9,19,24,-1022
912,10.425213,2,7,8,10,24,-1020
913,10.436885,2,6,9,15,25,-1023
914,10.448556,2,6,9,11,25,-1019
915,10.460211,3,6,9,21,28,-1021
916,10.471904,2,6,8,16,25,-1019
917,10.483562,2,6,9,9,28,-1022
918,10.495121,3,6,9,14,23,-1026
919,10.506714,2,6,9,16,25,-1024
920,10.518277,2,6,10,16,23,-1021
921,10.529847,2,7,10,12,25,-1021
922,10.541394,2,6,9,16,26,-1021
923,10.552945,2,6,9,11,24,-1019
924,10.564497,2,6,10,14,23,-1021
925,10.576093,3,6,9,13,30,-1021
926,10.587797,2,7,9,13,24,-1028
927,10.5995,2,7,9,14,26,-1018
928,10.611165,2,6,9,14,25,-1022
929,10.622849,2,6,8,15,22,-1020
930,10.634515,3,7,8,12,19,-1019
931,10.64617,2,7,8,12,26,-1020
932,10.657817,2,7,9,13,22,-1022
933,10.669466,2,5,9,11,25,-1020
934,10.681156,2,6,9,17,29,-1018
935,10.692802,2,5,10,7,26,-1022
936,10.704457,3,6,10,10,26,-1024
937,10.716145,3,6,9,11,24,-1011
938,10.7278,2,7,9,13,23,-1020
939,10.739452,2,6,9,15,26,-1024
940,10.751125,2,6,8,12,27,-1022
941,10.762772,2,6,9,15,27,-1019
942,10.774422,2,6,9,18,25,-1024
943,10.786096,2,6,9,14,26,-1027
944,10.797761,3,7,9,18,22,-1021
945,10.809408,3,6,9,14,26,-1022
946,10.821054,3,6,9,11,21,-1017
947,10.832719,2,5,9,14,27,-1022
948,10.844397,2,6,9,14,25,-1024
949,10.856053,2,5,8,14,26,-1025
950,10.867746,2,6,8,17,24,-1016
951,10.879432,3,6,8,15,24,-1024
952,10.891125,1,7,9,15,23,-1016
953,10.902703,2,7,9,16,27,-1020
954,10.914247,2,6,8,15,25,-1022
955,10.925808,3,6,10,12,24,-1023
956,10.93736,2,6,9,13,27,-1022
957,10.9489,2,6,8,12,26,-1019
958,10.960461,2,7,9,13,32,-1022
959,10.972074,2,5,9,16,27,-1016
960,10.983631,2,6,9,14,25,-1023
961,10.995268,2,6,9,13,22,-1028
962,11.007076,3,6,9,13,30,-1025
963,11.018901,2,7,9,14,32,-1014
964,11.030562,2,6,9,17,25,-1022
965,11.042223,3,6,9,12,27,-1022
966,11.053894,2,6,9,16,28,-1025
967,11.06555,2,6,9,16,25,-1021
968,11.077203,2,6,9,11,22,-1018
969,11.088852,2,6,9,12,27,-1023
970,11.100695,3,6,9,15,24,-1020
971,11.112316,3,6,10,14,22,-1024
972,11.123886,2,7,10,15,29,-1023
973,11.135485,2,6,9,18,24,-1020
974,11.14709,2,6,8,14,24,-1025
975,11.158682,2,6,10,13,29,-1019
976,11.170234,2,6,9,13,28,-1013
977,11.181802,2,6,8,8,28,-1016
978,11.193368,2,7,8,17,26,-1024
979,11.205025,2,6,10,13,26,-1021
980,11.216675,3,6,9,10,28,-1026
981,11.22833,2,6,9,13,30,-1025
982,11.240035,2,7,9,12,25,-1022
983,11.251685,2,6,9,12,27,-1015
984,11.263382,2,6,9,11,23,-1020
985,11.275035,2,6,9,13,25,-1015
986,11.286676,2,6,9,15,25,-1026
987,11.298344,2,6,9,12,27,-1019
988,11.310009,2,5,9,13,21,-1023
989,11.321582,3,6,10,14,28,-1023
990,11.333124,3,6,9,15,21,-1012
991,11.344664,2,6,9,16,27,-1024
992,11.356216,3,6,9,15,25,-1024
993,11.367804,2,6,8,11,24,-1017
994,11.379365,2,7,9,16,28,-1021
995,11.390941,2,6,9,14,23,-1016
996,11.40249,2,6,9,13,27,-1021
997,11.414182,2,6,9,12,25,-1027
998,11.425873,2,6,9,13,24,-1018
999,11.437533,2,6,9,16,24,-1025
1000,11.449176,3,7,9,15,26,-1013
1001,11.460825,2,6,9,16,25,-1023
1002,11.472563,2,6,9,14,27,-1023
1003,11.484309,2,5,8,13,26,-1019
1004,11.496029,2,6,8,17,26,-1025
1005,11.507701,2,6,9,15,26,-1022
1006,11.519416,2,6,10,14,28,-1016
1007,11.53097,2,6,9,12,20,-1023
1008,11.542526,2,7,9,14,25,-1014
1009,11.55408,2,7,9,13,24,-1019
1010,11.565624,3,5,9,15,23,-1023
1011,11.577168,2,5,9,15,29,-1021
1012,11.588712,2,6,8,13,25,-1022
1013,11.600322,2,6,9,9,28,-1024
1014,11.611895,2,6,8,12,27,-1018
1015,11.623516,3,6,9,12,26,-1021
1016,11.635177,2,6,8,13,25,-1027
1017,11.64682,3,6,9,11,27,-1024
1018,11.658465,2,6,9,10,27,-1025
1019,11.670122,2,6,9,15,30,-1019
1020,11.681769,2,7,9,15,24,-1017
1021,11.693419,2,6,9,13,27,-1017
1022,11.705063,2,6,9,15,26,-1023
1023,11.716721,2,7,9,14,27,-1020
1024,11.728383,3,6,9,13,25,-1018
1025,11.740003,3,6,9,13,23,-1020
1026,11.751586,3,6,9,14,27,-1013
1027,11.763106,2,5,9,14,25,-1012
1028,11.774648,2,5,9,14,20,-1022
1029,11.786199,2,6,9,12,23,-1017
1030,11.797745,2,7,9,12,27,-1018
1031,11.809311,3,6,9,11,24,-1018
1032,11.820877,3,6,9,13,24,-1020
1033,11.832522,3,5,9,12,23,-1028
1034,11.844154,2,6,9,16,24,-1025
1035,11.855822,3,7,9,14,22,-1024
1036,11.867517,2,6,9,11,21,-1016
1037,11.879172,2,7,10,12,23,-1024
1038,11.890849,2,6,10,13,28,-1019
1039,11.902509,2,6,9,16,23,-1019
1040,11.914176,2,6,9,9,25,-1018
1041,11.925878,3,6,9,17,29,-1018
1042,11.937537,3,6,9,14,29,-1030
1043,11.949097,2,5,9,15,27,-1020
1044,11.960644,2,6,10,14,23,-1023
1045,11.9722,3,6,9,15,22,-1019
1046,11.983771,2,6,10,12,27,-1023
1047,11.995341,2,6,9,10,27,-1024
1048,12.006913,3,6,9,16,29,-1024
1049,12.018454,3,7,9,14,29,-1022
1050,12.03001,2,6,9,14,26,-1022
1051,12.041639,2,6,9,12,27,-1019
1052,12.053285,2,6,10,13,23,-1022
1053,12.06493,2,6,9,14,26,-1019
1054,12.076599,2,6,9,11,27,-1016
1055,12.088268,2,6,9,15,26,-1019
1056,12.099951,3,6,8,16,22,-1022
1057,12.111627,2,7,9,13,25,-1022
1058,12.12328,2,6,9,14,26,-1024
1059,12.134926,2,5,10,13,25,-1023
1060,12.146509,2,5,10,14,29,-1022
1061,12.158066,2,7,9,11,24,-1027
1062,12.169638,2,6,9,12,29,-1020
1063,12.181205,3,6,9,15,27,-1020
1064,12.192751,2,6,9,15,23,-1023
1065,12.204314,2,6,10,17,26,-1018
1066,12.215825,1,6,9,16,28,-1020
1067,12.227343,3,6,9,12,27,-1018
1068,12.2389,3,6,9,13,28,-1014
1069,12.250602,2,6,9,16,25,-1013
1070,12.262263,2,6,9,12,27,-1021
1071,12.273925,2,5,9,12,30,-1016
1072,12.285592,2,6,9,14,26,-1023
1073,12.297246,3,7,9,14,23,-1023
1074,12.308903,2,6,9,14,27,-1024
1075,12.320555,3,6,9,17,28,-1020
1076,12.332221,2,6,10,14,28,-1021
1077,12.343907,2,6,9,13,29,-1024
1078,12.355618,3,6,9,11,25,-1018
1079,12.367224,2,6,9,15,26,-1025
1080,12.378805,2,6,9,13,26,-1024
1081,12.390347,3,6,9,13,26,-1019
1082,12.401897,2,6,9,13,28,-1022
1083,12.413449,3,6,9,15,24,-1023
1084,12.425013,2,6,9,13,24,-1023
1085,12.436574,2,7,9,13,25,-1024
1086,12.448158,2,6,10,17,27,-1020
1087,12.459786,2,5,9,14,19,-1023
1088,12.471524,3,6,8,14,25,-1022
1089,12.48318,3,5,9,14,30,-1025
1090,12.494852,2,6,9,14,24,-1020
1091,12.506504,2,5,9,15,32,-1024
1092,12.518152,2,6,10,12,22,-1017
1093,12.529818,2,7,9,15,26,-1019
1094,12.541479,2,6,9,14,24,-1019
1095,12.553141,2,7,9,13,21,-1020
1096,12.564828,2,6,9,12,26,-1027
1097,12.576423,2,6,8,17,26,-1016
1098,12.587978,2,5,8,15,22,-1016
1099,12.599547,2,5,8,14,25,-1021
1100,12.611102,2,6,9,18,28,-1017
1101,12.62265,3,7,10,13,22,-1023
1102,12.634196,3,6,9,14,21,-1017
1103,12.645771,3,6,10,14,27,-1020
1104,12.657335,2,6,9,15,25,-1025
1105,12.668978,3,6,10,16,28,-1021
1106,12.680665,2,5,8,18,29,-1014
1107,12.692342,2,6,9,12,27,-1019
1108,12.704009,2,6,9,17,27,-1024
1109,12.715629,2,5,9,14,26,-1019
1110,12.727283,3,6,9,15,25,-1023
1111,12.738951,2,6,9,15,21,-1022
1112,12.750618,2,7,9,12,26,-1023
1113,12.762278,2,6,8,11,26,-1021
1114,12.773956,3,6,9,12,30,-1017
1115,12.785605,3,6,9,14,26,-1018
1116,12.797248,2,7,9,12,22,-1022
1117,12.808899,2,6,9,11,25,-1018
1118,12.820546,2,6,9,13,27,-1021
1119,12.832194,2,6,9,14,24,-1019
1120,12.843902,2,6,9,14,23,-1026
1121,12.855613,2,6,9,16,32,-1025
1122,12.867264,2,6,9,13,24,-1025
1123,12.878819,2,6,10,12,26,-1024
1124,12.890366,1,7,9,11,28,-1018
1125,12.901924,2,6,8,12,25,-1021
1126,12.913492,2,5,9,14,24,-1023
1127,12.925068,3,6,9,10,28,-1025
1128,12.936639,2,6,9,13,26,-1028
1129,12.948197,2,6,10,14,26,-1026
1130,12.959775,2,6,9,16,21,-1017
1131,12.971354,2,6,9,17,22,-1017
1132,12.98302,2,6,9,13,23,-1023
1133,12.994706,2,6,9,13,26,-1022
1134,13.006373,2,6,9,14,25,-1022
1135,13.018064,3,7,8,14,27,-1026
1136,13.029749,2,6,10,14,27,-1028
1137,13.0414,3,6,9,12,26,-1020
1138,13.053072,2,6,9,17,26,-1019
1139,13.064747,3,6,10,8,22,-1022
1140,13.076419,3,7,9,13,24,-1023
1141,13.088121,3,6,9,13,28,-1023
1142,13.099708,2,6,9,17,25,-1020
1143,13.111258,3,5,9,15,21,-1023
1144,13.122813,2,6,8,14,23,-1020
1145,13.13436,2,6,10,15,28,-1020
1146,13.145912,2,7,9,13,22,-1020
1147,13.157458,2,6,9,17,22,-1020
1148,13.169042,2,6,9,13,32,-1023
1149,13.180607,2,6,8,13,22,-1024
1150,13.192253,2,5,9,13,24,-1020
1151,13.203885,2,6,10,12,23,-1018
1152,13.2156,2,6,9,13,27,-1026
1153,13.227263,3,6,9,12,29,-1021
1154,13.238912,2,6,10,16,26,-1020
1155,13.250586,3,6,8,12,28,-1021
1156,13.262237,2,6,9,14,27,-1023
1157,13.273882,3,5,9,16,28,-1025
1158,13.285558,2,6,9,15,22,-1021
1159,13.297278,1,6,9,13,27,-1021
1160,13.308949,2,6,9,9,26,-1022
1161,13.320556,3,6,9,13,26,-1018
1162,13.332117,2,6,9,14,25,-1025
1163,13.343699,2,6,9,14,24,-1023
1164,13.35533,2,7,9,15,23,-1028
1165,13.366907,2,6,9,15,26,-1019
1166,13.378462,3,6,9,11,25,-1021
1167,13.390063,2,6,9,15,26,-1018
1168,13.401607,2,6,10,11,26,-1028
1169,13.413162,2,6,9,12,29,-1025
1170,13.424711,2,7,9,13,26,-1023
1171,13.436298,3,6,9,14,26,-1020
1172,13.447875,2,6,9,16,26,-1018
1173,13.459462,3,7,9,14,26,-1021
1174,13.471036,3,6,9,17,27,-1024
1175,13.482587,3,5,8,10,26,-1018
1176,13.494175,2,6,8,12,28,-1018
1177,13.505859,1,6,9,11,27,-1021
1178,13.517519,2,6,9,12,21,-1026
1179,13.529193,2,7,8,13,23,-1016
1180,13.540844,2,7,9,14,26,-1024
1181,13.552534,2,6,9,13,27,-1019
1182,13.564202,2,6,9,10,21,-1020
1183,13.575878,2,6,9,9,29,-1028
1184,13.587574,2,6,8,16,29,-1021
1185,13.599261,2,6,9,11,27,-1014
1186,13.610912,2,5,9,11,23,-1025
1187,13.622585,3,6,9,11,23,-1029
1188,13.634233,2,6,9,11,26,-1022
1189,13.645884,2,6,9,13,27,-1019
1190,13.657554,2,6,9,15,28,-1023
1191,13.669208,2,6,9,12,28,-1019
1192,13.680864,2,6,8,14,23,-1026
1193,13.692553,3,6,9,14,23,-1016
1194,13.70425,3,6,9,14,28,-1019
1195,13.715889,3,6,9,16,24,-1024
1196,13.72755,2,6,10,14,26,-1021
1197,13.739232,3,5,9,14,28,-1014
1198,13.750888,2,5,9,15,26,-1022
1199,13.762531,2,5,8,12,26,-1021
1200,13.774173,2,6,9,8,25,-1023
1201,13.785838,2,6,9,14,25,-1014
1202,13.797482,3,6,9,14,26,-1018
1203,13.809141,2,7,8,17,25,-1017
1204,13.820814,2,6,10,16,24,-1024
1205,13.83241,3,6,9,15,28,-1027
1206,13.843984,2,7,9,17,27,-1024
1207,13.855568,2,7,9,16,22,-1025
1208,13.867107,3,6,9,14,26,-1023
1209,13.878659,2,6,9,16,27,-1020
1210,13.890209,2,6,9,14,28,-1021
1211,13.901781,2,6,9,16,25,-1022
1212,13.913343,2,6,10,12,25,-1020
1213,13.924966,2,7,9,10,28,-1027
1214,13.936662,2,6,9,14,24,-1021
1215,13.948333,2,6,9,16,26,-1016
1216,13.960035,1,6,10,14,30,-1021
1217,13.971705,2,6,9,12,21,-1019
1218,13.983372,2,6,10,15,26,-1023
1219,13.995013,2,5,9,13,25,-1026
1220,14.006664,3,6,9,16,26,-1017
1221,14.018347,3,6,9,15,23,-1018
1222,14.030014,2,6,9,13,25,-1024
1223,14.041593,2,7,9,17,25,-1022
1224,14.053185,2,6,9,11,27,-1021
1225,14.064763,2,6,9,12,25,-1020
1226,14.076306,2,6,9,17,26,-1022
1227,14.087827,2,6,9,13,26,-1019
1228,14.099345,2,6,10,13,27,-1015
1229,14.110896,2,6,9,14,25,-1020
1230,14.12246,3,6,9,15,27,-1026
1231,14.134096,2,6,8,12,28,-1025
1232,14.145749,2,7,9,13,29,-1013
1233,14.157421,1,5,9,12,26,-1021
1234,14.169084,2,6,9,12,24,-1025
1235,14.180731,3,6,10,12,28,-1022
1236,14.192426,2,6,9,15,26,-1024
1237,14.204113,2,6,8,16,28,-1023
1238,14.21578,2,6,9,14,22,-1025
1239,14.227455,2,6,9,11,25,-1018
1240,14.239116,2,6,9,14,28,-1020
1241,14.250672,2,6,9,13,29,-1023
1242,14.262252,2,5,9,13,28,-1016
1243,14.273803,2,5,9,12,28,-1018
1244,14.285367,2,6,10,14,24,-1025
1245,14.296916,2,6,9,13,23,-1022
1246,14.308465,2,6,10,11,27,-1020
1247,14.320042,2,6,9,12,25,-1021
1248,14.331632,3,6,9,13,26,-1018
1249,14.343261,2,5,9,13,25,-1022
1250,14.354921,2,6,8,12,29,-1016
1251,14.366592,2,7,9,11,26,-1016
1252,14.378242,2,7,9,12,28,-1020
1253,14.38989,2,6,8,12,27,-1016
1254,14.401556,2,6,8,14,26,-1028
1255,14.413209,2,6,8,14,27,-1019
1256,14.424857,2,6,9,14,26,-1025
1257,14.436565,2,6,9,12,25,-1017
1258,14.448277,3,6,8,11,27,-1021
1259,14.459901,2,6,10,12,29,-1020
1260,14.471474,2,6,9,15,26,-1024
1261,14.483036,2,7,9,14,30,-1028
1262,14.494586,3,5,9,14,27,-1023
1263,14.506139,2,6,9,12,22,-1025
1264,14.517684,3,6,9,15,20,-1024
1265,14.529229,3,7,9,16,28,-1020
1266,14.540789,2,7,9,12,26,-1023
1267,14.552404,2,7,9,15,30,-1023
1268,14.563969,2,6,9,12,28,-1023
1269,14.575534,2,6,9,13,26,-1021
1270,14.587094,2,6,9,12,22,-1027
1271,14.598638,3,6,9,13,25,-1021
1272,14.610184,2,6,9,17,23,-1018
1273,14.621748,2,6,9,15,26,-1021
1274,14.633296,2,6,9,16,27,-1021
1275,14.644939,3,6,9,12,27,-1026
1276,14.656573,3,6,9,15,23,-1021
1277,14.668295,3,6,9,15,24,-1023
1278,14.679963,2,6,8,17,27,-1018
1279,14.691632,2,6,9,12,22,-1025
1280,14.703349,2,6,9,15,25,-1022
1281,14.714994,2,7,9,16,28,-1024
1282,14.726644,2,6,9,10,28,-1021
1283,14.738289,3,7,9,15,27,-1017
1284,14.749963,3,7,8,15,30,-1026
1285,14.761623,3,7,9,13,23,-1024
1286,14.77328,2,7,9,12,29,-1019
1287,14.784938,2,6,9,14,25,-1023
1288,14.796601,2,6,9,16,24,-1024
1289,14.808261,2,6,9,15,23,-1019
1290,14.819887,2,7,9,14,26,-1024
1291,14.831608,2,6,9,12,26,-1014
1292,14.84326,2,6,9,10,28,-1025
1293,14.854902,2,6,9,13,30,-1016
1294,14.866456,2,7,9,15,24,-1025
1295,14.87801,2,5,10,12,30,-1024
1296,14.889557,2,6,9,12,28,-1016
1297,14.901101,2,6,10,12,27,-1016
1298,14.912648,2,6,9,14,29,-1022
1299,14.924207,2,5,9,12,26,-1025
1300,14.935777,2,6,9,14,23,-1026
1301,14.947346,2,6,9,14,25,-1014
1302,14.958911,3,6,9,18,27,-1018
1303,14.970545,3,6,9,11,27,-1022
1304,14.98221,2,6,10,6,27,-1028
1305,14.993869,2,6,9,12,30,-1021
1306,15.005516,3,7,9,10,26,-1020
1307,15.017176,3,7,9,16,25,-1019
1308,15.028829,2,5,8,13,25,-1025
1309,15.040481,3,6,9,11,22,-1021
1310,15.052145,2,7,9,11,24,-1016
1311,15.063865,2,6,9,13,29,-1023
1312,15.075545,3,6,9,16,25,-1020
1313,15.087103,2,6,10,14,25,-1022
1314,15.098651,2,6,9,13,25,-1017
1315,15.110203,2,6,9,14,23,-1022
1316,15.121764,3,6,8,11,25,-1023
1317,15.133317,2,6,9,16,29,-1017
1318,15.144899,3,7,9,16,28,-1024
1319,15.156526,3,6,9,13,27,-1015
1320,15.168223,3,6,8,16,21,-1024
1321,15.179972,2,6,8,17,25,-1020
1322,15.191697,2,7,9,16,22,-1020
1323,15.203371,2,6,9,14,29,-1028
1324,15.21504,2,6,9,15,29,-1018
1325,15.226714,2,6,10,12,23,-1023
1326,15.238363,3,5,10,17,24,-1017
1327,15.250035,3,6,9,12,23,-1025
1328,15.261684,2,5,10,13,24,-1024
1329,15.273347,2,6,9,12,27,-1019
1330,15.285014,3,6,9,14,22,-1018
1331,15.296669,3,5,10,12,25,-1022
1332,15.308335,3,6,10,13,26,-1021
1333,15.320026,2,6,9,10,27,-1022
1334,15.331749,2,6,9,16,25,-1026
1335,15.343444,2,6,9,11,26,-1021
1336,15.355109,2,7,9,12,23,-1028
1337,15.366763,2,7,9,15,25,-1023
1338,15.378484,3,6,10,12,25,-1016
1339,15.390137,3,5,8,14,28,-1024
1340,15.401813,2,5,8,12,25,-1025
1341,15.413466,3,6,9,14,27,-1018
1342,15.425104,3,6,9,13,30,-1023
1343,15.436771,2,7,9,10,24,-1021
1344,15.448472,2,6,9,12,27,-1024
1345,15.460136,2,6,8,13,28,-1015
1346,15.471822,2,6,9,13,24,-1020
1347,15.483581,2,6,9,16,23,-1019
1348,15.49524,2,6,9,13,23,-1030
1349,15.506806,2,6,9,13,26,-1012
1350,15.518389,2,7,9,15,25,-1023
1351,15.529942,2,6,9,12,23,-1023
1352,15.541516,2,6,9,14,29,-1026
1353,15.553063,2,6,9,17,25,-1024
1354,15.564602,2,6,9,15,23,-1025
1355,15.576177,2,6,9,12,23,-1021
1356,15.587761,2,7,10,13,23,-1022
1357,15.599467,2,6,10,14,27,-1019
1358,15.611164,3,6,9,13,30,-1023
1359,15.622822,2,6,9,13,27,-1021
1360,15.634471,3,6,9,16,26,-1021
1361,15.646132,2,6,9,15,30,-1023
1362,15.657796,1,6,9,12,28,-1021
1363,15.669446,3,6,9,13,29,-1022
1364,15.681101,2,6,8,14,29,-1021
1365,15.692759,2,7,9,15,25,-1017
1366,15.704406,2,6,9,16,27,-1021
1367,15.716073,2,5,8,13,24,-1013
1368,15.727753,2,6,9,13,30,-1019
1369,15.739419,3,6,9,15,24,-1022
1370,15.751097,2,7,9,12,22,-1024
1371,15.762768,2,6,9,16,26,-1018
1372,15.774426,2,6,9,9,28,-1020
1373,15.786076,2,6,9,15,31,-1021
1374,15.797758,2,6,9,13,26,-1023
1375,15.809457,2,6,9,16,27,-1026
1376,15.821123,2,6,8,12,28,-1027
1377,15.832804,3,6,9,17,26,-1026
1378,15.844459,3,6,9,12,25,-1032
1379,15.856134,2,5,9,18,27,-1025
1380,15.867819,3,6,9,14,27,-1020
1381,15.879495,2,6,9,15,25,-1020
1382,15.891165,2,6,9,11,26,-1021
1383,15.902834,2,5,9,14,30,-1028
1384,15.914526,2,6,8,15,27,-1023
1385,15.926079,3,6,9,15,26,-1022
1386,15.937633,2,6,10,11,26,-1017
1387,15.949187,2,6,8,14,28,-1025
1388,15.96075,2,6,9,16,30,-1030
1389,15.972308,2,6,9,12,28,-1023
1390,15.983828,3,6,10,9,27,-1026
1391,15.995344,3,6,8,14,24,-1019
1392,16.00689,3,5,9,12,27,-1027
1393,16.018566,3,6,9,18,27,-1018
1394,16.030215,2,6,9,11,26,-1026
1395,16.041873,2,6,9,15,27,-1018
1396,16.053532,2,6,9,13,29,-1020
1397,16.06518,2,6,9,14,24,-1021
1398,16.07683,2,6,8,8,27,-1026
1399,16.088508,2,6,10,11,26,-1019
1400,16.100143,2,6,8,14,27,-1021
1401,16.11183,2,7,9,16,23,-1022
1402,16.123501,2,6,9,15,25,-1022
1403,16.135162,2,7,9,13,27,-1026
1404,16.146815,2,6,10,12,26,-1021
1405,16.158461,2,6,9,16,26,-1019
1406,16.170107,2,7,9,12,27,-1022
1407,16.181808,3,6,8,16,25,-1022
1408,16.193448,2,6,9,14,28,-1024
1409,16.205093,2,6,9,16,26,-1019
1410,16.216792,2,6,9,13,28,-1013
1411,16.228443,3,6,9,9,23,-1025
1412,16.240124,2,6,9,10,27,-1026
1413,16.251806,2,6,9,16,25,-1019
1414,16.263477,2,6,8,18,24,-1023
1415,16.275111,2,5,9,14,29,-1021
1416,16.28675,2,6,8,16,26,-1024
1417,16.298395,2,6,9,12,24,-1029
1418,16.310078,2,6,9,13,27,-1022
1419,16.321756,2,5,8,9,23,-1018
1420,16.333421,2,6,9,12,24,-1027
1421,16.34507,2,6,9,14,24,-1022
1422,16.356709,3,6,9,15,24,-1022
1423,16.368387,3,6,9,14,25,-1030
1424,16.380062,2,7,9,10,26,-1021
1425,16.391731,3,6,9,14,27,-1018
1426,16.403373,2,5,9,11,24,-1022
1427,16.415047,3,7,9,14,24,-1019
1428,16.426702,3,7,9,15,29,-1021
1429,16.438355,2,6,9,15,27,-1016
1430,16.450024,3,6,9,16,26,-1021
1431,16.461676,3,5,9,15,25,-1016
1432,16.473331,3,6,10,11,26,-1018
1433,16.48498,3,6,9,14,22,-1020
1434,16.49667,2,6,10,13,23,-1027
1435,16.508331,3,6,9,13,24,-1028
1436,16.520024,2,7,9,17,26,-1023
1437,16.531702,3,7,9,11,28,-1026
1438,16.543377,2,5,9,14,29,-1021
1439,16.554969,2,6,8,15,26,-1025
1440,16.566516,2,6,9,12,28,-1026
1441,16.578064,2,7,10,13,24,-1026
1442,16.589616,2,6,10,13,24,-1028
1443,16.601165,2,6,9,14,28,-1019
1444,16.612709,3,6,8,12,25,-1027
1445,16.624291,2,7,8,13,24,-1021
1446,16.635873,2,7,9,11,28,-1018
1447,16.647528,2,6,9,11,26,-1022
1448,16.659194,2,6,9,15,28,-1017
1449,16.670841,3,6,9,13,27,-1014
1450,16.682492,2,6,9,13,23,-1018
1451,16.694192,2,6,10,14,25,-1022
1452,16.705839,3,6,10,15,26,-1017
1453,16.717516,2,5,9,10,28,-1019
1454,16.729181,2,6,9,11,25,-1024
1455,16.740841,2,6,9,15,28,-1021
1456,16.752514,2,5,9,16,26,-1021
1457,16.764089,2,6,9,16,29,-1020
1458,16.775647,2,6,9,11,26,-1020
1459,16.787244,2,6,9,12,24,-1021
1460,16.798794,2,6,9,12,26,-1022
1461,16.810372,2,7,10,12,22,-1019
1462,16.821913,2,7,9,14,29,-1024
1463,16.833461,3,6,9,18,25,-1018
1464,16.845028,2,6,9,13,27,-1022
1465,16.856646,2,6,9,12,23,-1020
1466,16.868317,2,7,9,16,25,-1018
1467,16.879971,3,6,9,16,24,-1020
1468,16.89164,2,6,9,18,25,-1020
1469,16.903295,3,5,9,14,27,-1021
1470,16.914939,3,6,9,9,24,-1022
1471,16.926615,2,6,10,13,24,-1024
1472,16.93829,3,6,9,14,25,-1021
1473,16.949946,2,6,9,13,28,-1021
1474,16.961607,2,6,9,11,27,-1022
1475,16.973172,1,6,9,14,24,-1017
1476,16.984743,2,6,10,12,25,-1022
1477,16.996321,2,6,9,14,28,-1019
1478,17.007998,1,6,9,18,25,-1014
1479,17.019735,2,6,9,9,29,-1026
1480,17.031313,2,5,9,14,22,-1023
1481,17.042872,2,6,9,14,22,-1023
1482,17.054525,3,6,9,16,27,-1021
1483,17.066172,3,6,9,17,24,-1019
1484,17.077851,2,7,9,11,25,-1027
1485,17.089526,3,6,9,18,27,-1019
1486,17.101184,2,6,9,13,27,-1023
1487,17.112849,2,5,9,11,26,-1022
1488,17.124538,2,6,9,16,26,-1021
1489,17.136198,3,5,10,15,23,-1019
1490,17.147896,2,6,10,10,24,-1027
1491,17.159578,2,7,9,18,27,-1021
1492,17.171259,2,6,8,17,27,-1020
1493,17.182918,1,6,9,12,27,-1019
1494,17.194572,1,5,9,15,23,-1018
1495,17.206238,2,6,9,12,28,-1027
1496,17.217905,2,6,9,15,24,-1024
1497,17.229554,2,7,9,18,26,-1018
1498,17.241206,3,6,8,16,26,-1019
1499,17.25287,3,6,9,15,23,-1026
1500,17.264572,2,6,9,12,24,-1025
1501,17.276277,2,6,9,8,25,-1024
1502,17.287936,3,6,9,12,28,-1019
1503,17.29968,2,6,8,16,28,-1021
1504,17.31137,2,7,10,15,24,-1018
1505,17.323043,2,6,8,12,28,-1021
1506,17.334688,2,6,8,14,27,-1018
1507,17.346335,2,6,9,17,21,-1022
1508,17.358011,3,6,9,17,26,-1021
1509,17.369738,2,7,9,17,24,-1023
1510,17.381397,2,6,10,9,23,-1022
1511,17.392957,2,5,8,15,26,-1014
1512,17.404547,2,5,9,15,28,-1022
1513,17.416105,2,7,9,12,25,-1025
1514,17.427663,2,7,9,15,26,-1024
1515,17.439243,2,6,9,11,25,-1026
1516,17.450787,2,5,9,15,31,-1021
1517,17.462334,2,6,9,17,23,-1028
1518,17.473894,2,6,9,17,29,-1019
1519,17.48553,2,6,8,11,26,-1020
1520,17.497182,2,6,8,11,24,-1020
1521,17.508836,1,6,9,17,25,-1016
1522,17.520524,1,6,9,14,26,-1023
1523,17.532185,1,6,9,15,23,-1023
1524,17.543887,2,6,10,11,22,-1025
1525,17.55555,2,6,10,14,23,-1019
1526,17.567235,2,6,10,13,29,-1024
1527,17.578912,2,6,9,13,24,-1025
1528,17.590468,3,5,9,15,25,-1021
1529,17.60202,2,6,9,14,23,-1019
1530,17.613615,2,6,9,13,25,-1018
1531,17.62517,2,6,10,14,24,-1019
1532,17.636729,2,6,8,15,22,-1023
1533,17.648304,2,6,8,13,28,-1020
1534,17.65983,2,6,8,16,27,-1026
1535,17.671383,2,6,9,17,26,-1022
1536,17.682942,2,6,9,13,30,-1020
1537,17.694573,2,6,9,15,25,-1018
1538,17.706228,2,6,10,15,22,-1023
1539,17.717914,2,6,9,16,26,-1021
1540,17.729553,1,6,9,14,28,-1015
1541,17.741201,2,6,9,17,24,-1022
1542,17.752871,3,6,9,11,31,-1024
1543,17.76454,2,7,9,12,25,-1019
1544,17.776198,2,6,9,14,29,-1026
1545,17.787909,2,6,9,13,28,-1019
1546,17.799592,2,6,9,11,24,-1018
1547,17.811149,2,6,9,16,20,-1019
1548,17.822704,3,7,9,15,29,-1026
1549,17.834253,2,7,9,11,29,-1027
1550,17.845803,3,6,10,15,28,-1010
1551,17.857357,2,6,10,16,26,-1021
1552,17.86892,2,6,9,13,24,-1017
1553,17.880481,3,6,9,14,29,-1025
1554,17.892083,3,6,9,14,27,-1028
1555,17.903708,3,7,10,12,28,-1019
1556,17.91538,2,6,9,12,24,-1019
1557,17.927032,2,6,10,15,31,-1023
1558,17.938682,3,6,9,14,25,-1020
1559,17.950347,2,6,9,15,24,-1024
1560,17.962012,2,6,9,15,25,-1021
1561,17.973662,3,7,10,10,28,-1024
1562,17.985314,2,6,9,12,23,-1021
1563,17.99697,2,6,8,12,22,-1025
1564,18.008659,2,6,9,19,26,-1026
1565,18.020321,2,6,9,16,25,-1025
1566,18.032043,2,7,10,15,24,-1020
1567,18.043711,2,7,10,17,26,-1020
1568,18.055383,2,6,9,15,27,-1015
1569,18.067043,2,6,8,13,26,-1023
1570,18.078687,2,6,9,15,25,-1021
1571,18.090338,2,5,9,15,22,-1024
1572,18.10202,2,6,9,16,25,-1019
1573,18.113681,3,6,9,12,22,-1021
1574,18.125246,2,6,10,13,26,-1019
1575,18.136795,2,6,9,15,25,-1021
1576,18.148313,3,6,9,10,25,-1021
1577,18.159874,3,6,9,13,26,-1021
1578,18.171427,2,6,10,13,28,-1024
1579,18.182988,2,6,9,13,25,-1022
1580,18.194584,2,6,8,16,28,-1018
1581,18.206148,2,6,10,15,25,-1023
1582,18.21778,2,6,9,13,25,-1022
1583,18.22944,2,6,9,15,28,-1028
1584,18.241091,3,7,9,16,23,-1023
1585,18.252751,2,6,8,13,23,-1023
1586,18.264419,3,7,9,13,26,-1024
1587,18.276065,2,7,9,11,27,-1023
1588,18.287781,3,7,9,12,26,-1023
1589,18.299447,2,7,9,9,26,-1019
1590,18.311129,3,6,9,13,27,-1017
1591,18.322781,3,6,9,11,25,-1024
1592,18.334334,2,6,9,16,24,-1026
1593,18.345887,2,7,9,12,29,-1018
1594,18.357461,2,7,9,12,26,-1018
1595,18.369022,2,7,9,12,27,-1026
1596,18.380588,2,6,9,16,24,-1026
1597,18.392136,1,7,10,9,25,-1021
1598,18.403747,2,6,9,11,22,-1020
1599,18.415335,2,6,9,13,26,-1022
1600,18.426981,2,6,9,14,22,-1020
1601,18.438642,2,6,9,12,28,-1020
1602,18.450299,3,7,9,11,25,-1023
1603,18.461942,2,6,10,14,25,-1027
1604,18.473593,2,6,9,13,23,-1023
1605,18.485263,1,6,9,16,27,-1027
1606,18.496921,2,6,9,12,28,-1022
1607,18.508605,2,6,10,14,27,-1021
1608,18.520298,3,6,9,10,27,-1020
1609,18.531962,3,5,10,17,25,-1026
1610,18.543527,2,6,10,12,23,-1020
1611,18.555093,2,6,9,14,27,-1024
1612,18.566671,2,6,9,14,24,-1020
1613,18.580687,2,6,9,11,30,-1023
1614,18.592309,2,6,10,16,27,-1023
1615,18.60387,3,6,8,12,29,-1019
1616,18.615422,3,6,9,15,29,-1024
1617,18.627016,3,6,9,16,30,-1024
1618,18.638592,2,5,9,14,24,-1019
1619,18.650148,3,6,9,14,30,-1022
1620,18.661716,2,6,9,16,26,-1016
1621,18.673256,2,6,9,15,29,-1023
1622,18.684798,3,6,9,9,31,-1019
1623,18.696354,2,6,9,12,26,-1024
1624,18.707903,2,6,9,14,24,-1017
1625,18.719477,2,6,9,13,29,-1027
1626,18.731139,3,6,9,13,28,-1023
1627,18.742792,3,6,9,13,24,-1023
1628,18.754472,2,7,9,16,23,-1022
1629,18.766142,3,7,9,9,27,-1020
1630,18.777802,2,6,10,13,29,-1022
1631,18.789515,2,6,9,12,28,-1025
1632,18.801267,3,6,9,13,30,-1018
1633,18.813031,3,7,9,14,29,-1026
1634,18.82471,3,6,10,11,28,-1020
1635,18.836484,2,7,9,14,25,-1021
1636,18.848151,3,6,9,13,24,-1024
1637,18.859823,2,6,9,14,30,-1015
1638,18.871513,2,6,10,13,25,-1022
1639,18.883169,2,7,10,13,25,-1030
1640,18.894834,2,6,9,15,24,-1016
1641,18.906492,2,6,9,11,23,-1019
1642,18.918147,3,6,9,14,25,-1018
1643,18.929804,2,6,9,15,27,-1024
1644,18.941476,3,7,8,12,27,-1021
1645,18.953135,3,6,9,13,29,-1017
1646,18.96478,2,7,9,9,24,-1023
1647,18.976417,2,6,9,11,27,-1019
1648,18.988063,2,6,9,9,24,-1022
1649,18.999762,3,6,10,11,25,-1018
1650,19.011423,2,7,8,16,27,-1022
1651,19.023107,1,6,8,13,28,-1016
1652,19.034762,2,7,9,15,28,-1022
1653,19.046416,2,6,9,14,24,-1018
1654,19.057969,2,7,10,12,27,-1028
1655,19.069545,2,7,9,15,25,-1022
1656,19.081108,2,6,9,12,24,-1023
1657,19.09266,2,6,9,13,25,-1023
1658,19.104214,2,5,8,16,26,-1014
1659,19.115823,2,6,10,14,25,-1022
1660,19.127356,3,6,9,14,27,-1022
1661,19.138916,2,6,9,16,23,-1026
1662,19.150519,3,6,8,11,28,-1023
1663,19.162146,3,6,9,14,26,-1019
1664,19.173899,2,6,9,16,25,-1020
1665,19.185556,2,6,9,15,28,-1027
1666,19.197236,2,5,9,11,24,-1023
1667,19.208892,3,6,9,15,21,-1018
1668,19.220547,3,6,9,10,23,-1017
1669,19.232232,2,7,9,12,29,-1022
1670,19.243889,2,6,9,12,27,-1023
1671,19.255561,3,6,8,15,26,-1017
1672,19.267251,3,6,9,17,28,-1025
1673,19.278905,2,6,10,11,24,-1024
1674,19.290584,2,7,9,12,28,-1018
1675,19.302257,2,6,9,14,25,-1023
1676,19.313909,3,6,9,14,24,-1019
1677,19.32556,2,7,9,13,23,-1025
1678,19.337232,2,6,9,13,24,-1020
1679,19.348887,2,6,9,11,27,-1017
1680,19.360581,2,6,9,13,24,-1021
1681,19.372277,3,7,9,13,25,-1029
1682,19.38395,3,6,9,12,24,-1017
1683,19.395637,2,6,9,13,31,-1024
1684,19.407291,3,5,9,17,26,-1015
1685,19.418962,2,6,10,17,25,-1025
1686,19.430624,3,6,9,20,24,-1024
1687,19.442275,3,6,10,12,28,-1017
1688,19.453926,2,6,10,11,28,-1020
1689,19.465631,2,6,8,13,25,-1020
1690,19.477284,3,6,9,12,25,-1019
1691,19.488952,3,6,9,15,20,-1027
1692,19.500638,2,6,9,13,24,-1024
1693,19.512298,2,7,9,14,24,-1022
1694,19.523978,2,6,9,15,25,-1024
1695,19.535635,2,6,9,14,27,-1028
1696,19.547317,2,6,8,16,29,-1022
1697,19.559001,2,6,9,13,27,-1022
1698,19.57066,2,6,10,13,28,-1025
1699,19.582363,2,6,9,17,23,-1026
1700,19.593952,3,5,9,10,28,-1020
1701,19.605538,2,6,10,11,29,-1023
1702,19.6171,3,6,9,11,26,-1021
1703,19.628668,2,6,9,15,24,-1022
1704,19.640213,2,6,9,16,28,-1025
1705,19.651761,2,6,9,18,24,-1026
1706,19.663357,2,6,9,11,26,-1022
1707,19.67492,2,6,9,9,23,-1028
1708,19.686479,2,6,9,15,26,-1023
1709,19.698077,2,6,8,16,26,-1020
1710,19.709629,2,6,9,16,25,-1019
1711,19.721198,3,6,8,13,24,-1017
1712,19.732741,2,6,8,11,28,-1020
1713,19.744307,2,7,9,12,28,-1022
1714,19.75583,2,6,9,10,26,-1017
1715,19.767346,2,6,9,10,24,-1024
1716,19.778992,2,6,9,15,29,-1019
1717,19.790613,2,6,9,12,26,-1018
1718,19.802273,1,6,9,16,23,-1021
1719,19.813934,2,6,9,19,24,-1026
1720,19.825628,2,6,9,12,25,-1024
1721,19.837272,1,6,9,17,26,-1020
1722,19.84892,2,6,9,15,27,-1022
1723,19.860562,2,6,9,16,26,-1023
1724,19.872267,1,6,9,9,28,-1022
1725,19.883953,1,6,9,15,25,-1020
1726,19.895633,2,6,10,14,24,-1017
1727,19.907293,3,6,9,9,26,-1021
1728,19.919027,2,7,9,14,28,-1017
1729,19.930672,2,7,9,13,25,-1018
1730,19.942345,2,6,9,8,24,-1020
1731,19.953998,2,6,9,15,26,-1022
1732,19.965649,2,5,9,13,30,-1025
1733,19.97731,3,5,8,14,29,-1021
1734,19.989071,3,6,9,12,27,-1016
1735,20.000744,2,6,9,11,27,-1023
1736,20.012406,2,6,9,12,25,-1018
1737,20.024075,3,6,9,12,22,-1025
1738,20.035758,2,6,9,16,24,-1019
1739,20.047414,3,5,10,14,27,-1018
1740,20.059106,3,6,9,12,27,-1026
1741,20.070762,2,6,9,17,26,-1028
1742,20.082414,2,6,9,14,27,-1026
1743,20.094095,2,5,9,13,27,-1020
1744,20.105754,2,6,8,13,28,-1020
1745,20.117409,2,6,8,12,21,-1025
1746,20.129059,3,6,9,15,25,-1023
1747,20.140732,3,6,9,13,24,-1022
1748,20.152399,3,6,9,15,25,-1019
1749,20.164061,2,6,8,11,24,-1027
1750,20.175766,2,6,9,15,24,-1022
1751,20.187419,3,6,9,10,24,-1027
1752,20.199115,3,7,9,14,26,-1021
1753,20.210783,2,6,9,12,26,-1026
1754,20.222346,2,6,9,10,28,-1027
1755,20.233922,2,6,9,14,22,-1026
1756,20.245481,3,7,9,9,25,-1013
1757,20.257083,3,6,9,18,27,-1027
1758,20.268676,2,6,9,13,22,-1016
1759,20.280229,2,6,9,14,22,-1021
1760,20.291818,3,6,9,13,28,-1022
1761,20.30336,2,6,8,8,26,-1020
1762,20.314991,2,7,10,15,26,-1019
1763,20.326646,2,6,10,12,24,-1023
1764,20.338318,2,6,9,14,24,-1022
1765,20.349991,2,7,9,13,24,-1022
1766,20.361644,2,7,9,15,24,-1020
1767,20.373291,2,7,9,13,26,-1024
1768,20.384958,3,7,9,14,28,-1013
1769,20.39666,2,7,8,11,29,-1022
1770,20.408329,2,6,8,14,24,-1023
1771,20.419996,2,6,9,11,26,-1028
1772,20.431578,2,6,10,15,25,-1022
1773,20.443172,2,6,9,15,28,-1024
1774,20.454726,3,6,9,13,24,-1015
1775,20.466302,2,6,9,12,24,-1018
1776,20.477844,3,7,10,13,25,-1021
1777,20.489388,2,6,9,10,27,-1023
1778,20.500958,2,6,9,13,26,-1023
1779,20.512575,3,6,8,19,27,-1022
1780,20.524226,2,7,9,13,27,-1023
1781,20.535894,2,6,9,11,25,-1019
1782,20.547547,3,6,9,13,25,-1022
1783,20.559245,2,7,9,16,23,-1025
1784,20.570904,2,6,10,17,26,-1022
1785,20.582548,2,6,9,14,25,-1021
1786,20.594227,2,6,10,15,27,-1018
1787,20.605882,2,6,9,14,30,-1015
1788,20.617524,2,6,9,15,26,-1019
1789,20.629118,2,6,9,12,27,-1023
1790,20.64067,2,6,10,12,26,-1027
1791,20.652232,2,6,9,17,25,-1023
1792,20.663843,3,7,9,12,26,-1021
1793,20.675436,2,6,9,13,24,-1020
1794,20.686981,2,7,9,15,23,-1021
1795,20.698524,2,6,9,8,27,-1021
1796,20.71007,2,6,8,19,23,-1023
1797,20.721625,2,5,9,15,26,-1025
1798,20.733283,2,6,9,14,30,-1017
1799,20.744954,3,6,8,15,27,-1026
1800,20.756652,3,6,9,13,26,-1027
1801,20.768335,2,6,9,13,25,-1024
1802,20.780017,2,6,9,12,30,-1019
1803,20.791693,2,6,9,15,30,-1025
1804,20.803368,3,6,9,12,24,-1026
1805,20.815041,2,6,10,14,27,-1020
1806,20.826715,2,6,10,13,26,-1017
1807,20.838276,2,5,9,12,27,-1022
1808,20.849821,2,5,9,12,26,-1017
1809,20.86139,2,6,9,14,23,-1015
1810,20.872941,2,6,8,15,26,-1026
1811,20.884485,2,6,9,11,23,-1023
1812,20.896059,2,6,9,13,25,-1023
1813,20.907587,3,6,9,15,22,-1021
1814,20.919172,2,6,8,16,26,-1019
1815,20.930827,1,5,8,11,25,-1024
1816,20.942486,1,6,9,15,29,-1020
1817,20.954131,3,6,9,10,25,-1018
1818,20.965781,3,7,9,15,25,-1019
1819,20.977456,2,5,10,16,27,-1016
1820,20.989111,3,7,9,9,21,-1022
1821,21.000768,2,6,9,12,26,-1015
1822,21.012425,1,7,9,15,22,-1018
1823,21.024154,2,7,10,10,22,-1019
1824,21.035725,2,7,9,12,27,-1023
1825,21.047311,2,6,10,17,24,-1014
1826,21.058856,2,6,9,15,22,-1022
1827,21.070402,2,6,9,15,24,-1021
1828,21.081949,2,6,9,13,27,-1018
1829,21.093488,3,7,9,14,31,-1024
1830,21.105042,2,6,9,15,28,-1020
1831,21.116591,2,7,9,14,22,-1023
1832,21.128217,3,6,9,14,26,-1024
1833,21.139895,2,6,10,10,25,-1023
1834,21.151583,2,6,10,12,25,-1014
1835,21.163258,2,6,10,11,28,-1021
1836,21.17491,1,6,9,10,20,-1017
1837,21.186589,2,6,9,14,24,-1020
1838,21.198232,2,6,8,17,29,-1018
1839,21.209889,2,6,9,12,26,-1014
1840,21.221574,2,6,9,13,25,-1021
1841,21.23323,2,6,10,16,24,-1017
1842,21.244789,3,6,9,12,28,-1017
1843,21.256311,3,6,10,13,25,-1018
1844,21.267926,2,6,9,14,25,-1021
1845,21.279481,3,6,9,10,28,-1026
1846,21.291047,2,6,8,13,23,-1018
1847,21.302584,2,6,8,12,22,-1021
1848,21.314138,3,6,9,13,24,-1016
1849,21.325698,3,5,9,13,25,-1019
1850,21.337328,2,6,9,14,27,-1019
1851,21.349013,2,7,9,11,24,-1021
1852,21.360683,2,6,10,14,29,-1021
1853,21.372366,2,6,9,11,27,-1022
1854,21.384029,2,6,9,12,25,-1020
1855,21.395703,2,7,10,13,27,-1022
1856,21.407372,2,6,10,13,26,-1023
1857,21.419025,2,6,10,13,22,-1024
1858,21.430675,2,6,10,15,25,-1020
1859,21.442363,2,7,9,14,24,-1021
1860,21.453925,2,7,9,14,25,-1016
1861,21.465468,3,7,9,15,24,-1018
1862,21.477016,2,6,9,15,30,-1016
1863,21.488562,2,6,9,13,20,-1022
1864,21.500135,2,6,9,16,28,-1021
1865,21.511709,2,6,9,14,27,-1019
1866,21.523332,3,7,9,11,26,-1026
1867,21.534921,2,7,8,15,26,-1022
1868,21.546542,3,7,9,12,21,-1025
1869,21.55822,2,6,9,9,28,-1021
1870,21.569872,2,6,9,14,23,-1009
1871,21.581541,2,7,8,12,26,-1023
1872,21.593206,2,6,9,10,25,-1021
1873,21.604865,2,7,9,11,28,-1024
1874,21.616546,2,6,9,12,27,-1022
1875,21.628215,2,6,9,12,21,-1025
1876,21.639883,1,6,9,15,29,-1021
1877,21.65146,2,7,9,13,30,-1018
1878,21.663003,3,7,9,9,29,-1021
1879,21.674548,2,6,9,12,26,-1019
1880,21.686096,2,6,9,13,26,-1025
1881,21.697658,2,7,9,15,26,-1019
1882,21.70921,2,6,8,14,23,-1016
1883,21.720782,3,7,9,14,25,-1017
1884,21.732311,3,6,9,13,23,-1022
1885,21.743883,3,6,10,13,27,-1023
1886,21.755533,2,7,10,11,27,-1024
1887,21.767251,2,7,8,13,24,-1023
1888,21.778919,2,7,8,15,26,-1021
1889,21.790598,2,6,9,11,26,-1026
1890,21.802242,2,6,9,15,24,-1024
1891,21.813893,2,6,9,16,27,-1021
1892,21.825587,2,6,9,17,26,-1021
1893,21.837227,1,6,9,15,27,-1021
1894,21.848898,2,6,9,15,19,-1016
1895,21.860586,2,6,9,15,27,-1018
1896,21.872179,2,6,9,15,23,-1019
1897,21.883738,2,6,9,16,24,-1018
1898,21.895313,2,6,10,15,26,-1020
1899,21.906886,2,6,9,11,25,-1017
1900,21.918427,2,5,9,13,25,-1022
1901,21.929966,2,6,10,14,27,-1022
1902,21.941516,2,6,10,12,27,-1024
1903,21.953079,2,6,10,13,22,-1016
1904,21.964697,2,6,9,11,28,-1027
1905,21.976385,2,6,9,14,24,-1025
1906,21.988066,2,6,9,17,26,-1022
1907,21.999742,2,7,9,14,26,-1021
1908,22.011374,2,6,9,13,29,-1020
1909,22.023098,2,5,9,16,25,-1023
1910,22.034747,2,6,9,16,24,-1026
1911,22.046403,2,5,9,18,28,-1023
1912,22.058109,2,6,9,15,31,-1020
1913,22.069761,2,5,9,15,24,-1021
1914,22.081326,2,7,9,14,26,-1021
1915,22.092906,2,7,10,12,26,-1025
1916,22.104466,2,7,8,16,24,-1020
1917,22.116037,2,6,9,14,26,-1017
1918,22.127589,2,6,9,15,24,-1021
1919,22.139212,2,6,9,15,33,-1018
1920,22.150764,2,7,10,11,27,-1020
1921,22.162324,2,6,10,13,27,-1024
1922,22.173964,2,6,9,14,24,-1024
1923,22.185614,3,6,10,17,28,-1019
1924,22.197262,3,5,9,9,24,-1021
1925,22.208928,2,6,9,10,27,-1022
1926,22.220589,2,7,9,13,28,-1024
1927,22.232263,3,6,9,13,26,-1020
1928,22.243969,3,6,9,9,25,-1023
1929,22.255628,2,6,8,12,25,-1024
1930,22.267296,2,6,9,13,27,-1021
1931,22.278969,2,6,9,18,25,-1022
1932,22.290544,2,6,9,13,26,-1022
1933,22.302107,2,6,9,16,26,-1019
1934,22.313665,3,6,9,16,27,-1025
1935,22.325211,3,6,9,15,26,-1020
1936,22.336757,2,6,9,12,27,-1020
1937,22.348313,2,6,9,10,25,-1018
1938,22.359888,2,6,9,15,28,-1021
1939,22.371476,2,5,9,11,25,-1021
1940,22.383164,2,6,8,16,25,-1023
1941,22.394838,2,6,9,13,26,-1020
1942,22.406479,2,6,9,12,27,-1021
1943,22.418137,2,6,9,12,26,-1023
1944,22.429793,2,6,8,14,27,-1022
1945,22.441462,2,6,9,15,26,-1020
1946,22.453123,2,6,9,13,25,-1025
1947,22.46477,2,6,9,14,29,-1026
1948,22.476416,2,7,10,16,25,-1017
1949,22.488086,3,7,9,13,24,-1022
1950,22.499664,2,6,9,11,26,-1028
1951,22.511267,2,6,9,14,26,-1022
1952,22.522827,2,6,9,14,28,-1022
1953,22.534401,2,6,9,16,25,-1016
1954,22.545941,2,6,8,15,23,-1021
1955,22.557484,2,6,9,10,23,-1030
1956,22.56904,2,6,9,14,28,-1023
1957,22.580597,2,6,9,15,24,-1019
1958,22.59227,2,6,8,14,22,-1017
1959,22.60396,2,7,9,13,27,-1023
1960,22.615636,3,7,10,13,27,-1022
1961,22.627293,3,6,10,13,28,-1023
1962,22.638959,3,6,9,13,27,-1021
1963,22.650612,3,6,9,16,28,-1024
1964,22.662269,3,5,8,13,29,-1020
1965,22.673965,2,6,9,20,25,-1026
1966,22.685636,3,5,9,14,27,-1022
1967,22.697298,2,6,9,16,23,-1022
1968,22.708852,2,6,9,14,27,-1020
1969,22.720435,2,6,9,18,21,-1020
1970,22.73199,3,6,9,15,27,-1022
1971,22.74359,3,6,9,12,26,-1027
1972,22.755159,2,6,9,19,23,-1018
1973,22.766712,2,6,8,13,27,-1020
1974,22.778276,2,5,9,12,26,-1020
1975,22.78983,2,6,8,15,25,-1017
1976,22.801457,2,7,9,13,23,-1019
1977,22.813107,2,6,9,13,28,-1021
1978,22.824755,2,6,9,15,24,-1023
1979,22.836426,2,7,9,13,27,-1022
1980,22.848084,2,6,9,11,24,-1026
1981,22.859759,2,6,9,15,28,-1022
1982,22.871438,2,6,9,14,26,-1023
1983,22.88313,1,6,10,13,24,-1017
1984,22.894794,3,6,9,13,28,-1022
1985,22.906456,2,6,9,11,27,-1021
1986,22.918019,2,5,9,13,29,-1022
1987,22.929577,3,7,9,12,30,-1023
1988,22.941152,3,6,8,16,25,-1023
1989,22.952696,2,6,9,14,24,-1018
1990,22.964246,2,6,9,13,27,-1025
1991,22.975824,2,6,9,16,23,-1022
1992,22.9874,3,5,9,13,25,-1018
1993,22.998982,2,6,10,13,24,-1015
1994,23.010678,2,6,9,12,25,-1021
1995,23.022524,2,5,9,15,25,-1025
1996,23.034209,2,6,9,12,21,-1029
1997,23.04587,2,6,9,14,25,-1022
1998,23.057531,2,5,9,10,26,-1020
1999,23.069203,2,6,9,14,24,-1020
