sample,t_s,gyro_x,gyro_y,gyro_z,accel_x,accel_y,accel_z
0,1.4e-05,1,1,0,1033,0,-1547
1,0.011237,0,1,1,1037,2,-1548
2,0.022424,0,1,1,1032,-3,-1549
3,0.033601,1,1,1,1032,0,-1548
4,0.044785,0,0,0,1034,-3,-1540
5,0.05597,0,0,0,1031,-1,-1547
6,0.067155,0,0,1,1033,3,-1550
7,0.078339,0,1,2,1036,-3,-1545
8,0.089529,-1,0,1,1033,0,-1551
9,0.100714,0,0,1,1034,1,-1551
10,0.111896,0,0,1,1032,2,-1550
11,0.123082,0,1,1,1033,-3,-1545
12,0.134266,0,0,1,1036,0,-1548
13,0.145417,0,0,1,1035,1,-1544
14,0.156597,0,1,2,1029,-1,-1549
15,0.167781,0,1,2,1033,1,-1550
16,0.178968,0,1,1,1033,1,-1545
17,0.190151,0,2,1,1029,1,-1545
18,0.201343,0,-1,1,1036,0,-1541
19,0.212525,-1,1,2,1031,2,-1545
20,0.223708,0,1,1,1033,2,-1547
21,0.234896,1,1,1,1033,-2,-1551
22,0.246083,0,1,2,1030,2,-1551
23,0.257233,0,0,1,1035,0,-1542
24,0.268416,0,0,1,1034,0,-1546
25,0.279601,0,0,2,1033,3,-1545
26,0.290785,0,1,2,1036,0,-1545
27,0.301968,0,1,2,1030,-1,-1543
28,0.313164,1,0,2,1036,-1,-1549
29,0.324348,0,1,1,1035,0,-1549
30,0.335529,1,0,1,1033,1,-1545
31,0.346711,0,0,2,1032,0,-1544
32,0.357904,1,1,0,1034,-4,-1548
33,0.369048,1,0,1,1033,-2,-1550
34,0.380232,0,2,1,1032,0,-1554
35,0.391416,0,1,1,1031,1,-1551
36,0.402602,1,1,1,1035,1,-1545
37,0.413787,0,0,2,1035,1,-1545
38,0.424981,0,0,2,1030,0,-1547
39,0.436166,1,1,1,1036,0,-1547
40,0.447353,0,1,1,1034,0,-1550
41,0.458539,0,0,1,1031,-2,-1546
42,0.46973,0,0,1,1034,1,-1547
43,0.480916,1,1,0,1032,2,-1551
44,0.492104,0,1,0,1037,0,-1547
45,0.503294,1,0,1,1032,-3,-1548
46,0.514477,1,2,1,1034,4,-1555
47,0.525664,0,3,0,1035,0,-1542
48,0.536864,1,2,1,1036,-2,-1554
49,0.548053,0,0,1,1033,-1,-1543
50,0.559245,0,0,1,1035,1,-1548
51,0.570434,0,-1,1,1031,0,-1550
52,0.5816,1,2,1,1035,1,-1546
53,0.592784,1,2,1,1035,2,-1552
54,0.603965,0,1,1,1033,-3,-1548
55,0.615149,0,3,1,1035,-1,-1550
56,0.626331,0,3,2,1034,2,-1547
57,0.637524,0,2,1,1027,0,-1549
58,0.648709,1,1,1,1034,0,-1545
59,0.659889,0,2,1,1035,-1,-1548
60,0.671075,0,2,0,1035,2,-1549
61,0.682255,0,2,0,1033,2,-1549
62,0.693415,0,2,0,1033,0,-1544
63,0.704596,1,2,2,1031,1,-1545
64,0.715776,0,2,1,1031,0,-1547
65,0.726959,0,0,1,1036,0,-1543
66,0.738142,0,0,1,1034,0,-1543
67,0.74934,0,0,0,1036,0,-1540
68,0.760525,0,1,1,1033,-3,-1543
69,0.771716,0,2,0,1033,2,-1541
70,0.782898,0,1,2,1031,0,-1551
71,0.794095,0,1,2,1032,1,-1550
72,0.805282,0,0,1,1035,0,-1550
73,0.816465,0,0,2,1030,2,-1548
74,0.827649,0,1,1,1033,-1,-1544
75,0.838831,0,1,1,1034,1,-1546
76,0.850013,1,3,1,1035,2,-1546
77,0.861207,1,2,1,1033,1,-1545
78,0.872391,0,1,1,1032,2,-1547
79,0.883573,0,3,2,1030,4,-1541
80,0.894767,0,2,2,1030,-3,-1551
81,0.90597,1,2,1,1033,0,-1544
82,0.917159,0,2,1,1033,0,-1546
83,0.928342,0,2,1,1036,0,-1545
84,0.939528,1,3,1,1036,0,-1549
85,0.950713,0,2,1,1033,0,-1549
86,0.961898,1,3,0,1035,0,-1546
87,0.973048,1,2,1,1031,1,-1551
88,0.984237,0,1,1,1032,0,-1542
89,0.995427,0,3,2,1030,1,-1548
90,1.006611,0,3,1,1035,-1,-1546
91,1.017786,0,2,0,1034,1,-1544
92,1.028974,0,2,1,1034,-2,-1545
93,1.040163,0,1,1,1033,-2,-1548
94,1.051346,1,2,0,1033,1,-1543
95,1.062527,0,2,0,1036,0,-1542
96,1.073716,0,1,1,1034,1,-1549
97,1.084862,0,1,2,1033,1,-1546
98,1.096046,0,2,1,1034,2,-1555
99,1.107231,1,1,1,1036,-1,-1547
100,1.118413,0,1,0,1035,-1,-1551
101,1.129599,0,2,1,1033,-3,-1544
102,1.14078,0,1,1,1034,0,-1551
103,1.151963,1,0,0,1035,1,-1539
104,1.163147,0,0,1,1031,-2,-1548
105,1.174332,0,1,1,1033,2,-1546
106,1.185529,0,1,1,1035,3,-1543
107,1.196712,0,0,1,1035,0,-1548
108,1.207895,0,1,1,1033,0,-1548
109,1.219082,0,0,1,1033,2,-1541
110,1.230265,0,1,1,1033,2,-1554
111,1.241417,0,1,1,1034,0,-1549
112,1.252604,0,0,1,1036,3,-1551
113,1.263794,1,2,1,1035,2,-1547
114,1.27498,1,2,1,1030,-1,-1544
115,1.286166,0,3,0,1034,1,-1549
116,1.297351,1,2,0,1034,1,-1548
117,1.308533,1,2,1,1036,0,-1550
118,1.319716,0,1,0,1034,-4,-1549
119,1.330896,0,1,0,1032,0,-1542
120,1.342081,1,0,1,1030,3,-1543
121,1.353232,0,0,1,1037,-1,-1546
122,1.364415,0,-1,1,1031,7,-1539
123,1.375599,0,-1,2,1032,0,-1552
124,1.386792,0,0,2,1032,4,-1540
125,1.39798,1,1,1,1033,2,-1545
126,1.409171,0,1,1,1030,1,-1542
127,1.420358,0,3,1,1031,-1,-1542
128,1.431543,0,2,1,1030,0,-1547
129,1.442728,1,2,0,1033,0,-1545
130,1.453917,1,2,0,1034,1,-1542
131,1.465102,0,2,1,1036,0,-1547
132,1.476284,0,2,1,1031,0,-1556
133,1.487467,1,1,0,1033,-1,-1544
134,1.498649,0,1,1,1036,-1,-1542
135,1.509835,1,2,0,1034,-1,-1549
136,1.521035,0,2,1,1033,0,-1552
137,1.532229,0,0,1,1035,3,-1540
138,1.543417,0,0,2,1032,-1,-1544
139,1.554602,1,1,2,1032,-1,-1542
140,1.565788,0,1,1,1035,-1,-1547
141,1.576981,0,1,2,1033,2,-1548
142,1.588169,0,0,1,1037,0,-1541
143,1.599354,0,-1,0,1036,1,-1547
144,1.610538,0,1,1,1035,-3,-1540
145,1.621729,0,1,1,1037,-1,-1546
146,1.632911,0,1,0,1029,-2,-1549
147,1.644094,1,0,1,1033,5,-1547
148,1.655278,0,0,1,1031,0,-1549
149,1.666464,1,0,1,1036,0,-1555
150,1.677651,1,0,1,1032,6,-1543
151,1.688834,0,1,1,1037,-4,-1542
152,1.700018,0,0,1,1035,1,-1550
153,1.711203,0,0,2,1035,2,-1548
154,1.722386,0,1,2,1035,0,-1541
155,1.733571,0,0,2,1035,2,-1547
156,1.74476,0,-1,2,1034,0,-1543
157,1.755946,0,0,1,1029,-1,-1545
158,1.767131,0,-1,1,1032,-1,-1544
159,1.778314,0,1,1,1037,0,-1549
160,1.789499,-1,1,2,1029,0,-1541
161,1.800681,0,1,1,1034,0,-1547
162,1.811866,0,1,2,1034,1,-1547
163,1.823051,1,1,1,1031,4,-1545
164,1.834236,0,0,1,1033,3,-1539
165,1.845417,0,1,1,1034,0,-1550
166,1.856604,1,1,1,1030,-1,-1544
167,1.86779,0,1,1,1037,1,-1547
168,1.879004,0,1,2,1033,0,-1550
169,1.890189,0,2,2,1031,2,-1552
170,1.901375,1,2,2,1037,0,-1550
171,1.912564,0,2,2,1032,-1,-1554
172,1.923751,0,1,1,1036,-3,-1549
173,1.934935,0,0,2,1028,3,-1542
174,1.94612,0,1,3,1035,2,-1547
175,1.95731,0,2,1,1034,0,-1545
176,1.968494,-1,3,1,1035,0,-1545
177,1.97969,0,1,1,1036,-1,-1544
178,1.990873,0,2,2,1032,1,-1542
179,2.002061,0,-1,1,1033,2,-1548
180,2.013233,0,0,1,1035,2,-1541
181,2.024419,1,1,1,1035,0,-1553
182,2.035611,0,1,2,1032,0,-1552
183,2.0468,0,1,1,1034,-4,-1547
184,2.057984,0,0,1,1033,4,-1548
185,2.069172,0,0,2,1034,1,-1543
186,2.080356,0,0,2,1031,2,-1551
187,2.09154,1,1,1,1030,-2,-1556
188,2.10273,0,1,2,1031,2,-1546
189,2.113917,0,-1,1,1033,0,-1551
190,2.125113,0,0,1,1030,-5,-1551
191,2.136299,0,0,0,1036,0,-1546
192,2.147482,0,0,0,1031,2,-1545
193,2.158667,0,0,1,1033,-1,-1546
194,2.169853,1,0,0,1031,0,-1551
195,2.181048,0,0,1,1032,0,-1547
196,2.192234,0,1,1,1031,1,-1546
197,2.203422,1,1,0,1032,-5,-1546
198,2.214616,1,1,1,1032,-1,-1544
199,2.225801,0,1,1,1035,-3,-1546
200,2.236998,1,1,1,1032,-3,-1542
201,2.248186,0,0,1,1031,3,-1545
202,2.259372,0,0,1,1032,-2,-1548
203,2.270561,0,1,1,1034,-1,-1549
204,2.281747,1,1,0,1036,1,-1550
205,2.292936,0,0,0,1033,0,-1551
206,2.304121,0,1,1,1033,3,-1549
207,2.315307,0,1,1,1036,0,-1545
208,2.326496,0,3,0,1035,1,-1546
209,2.337685,1,2,1,1037,-3,-1547
210,2.348863,0,3,1,1034,0,-1545
211,2.360049,0,1,0,1032,0,-1552
212,2.371237,0,1,1,1031,0,-1545
213,2.38242,0,3,1,1036,4,-1549
214,2.393605,0,2,0,1032,6,-1549
215,2.404791,1,1,1,1033,-2,-1546
216,2.415978,0,1,1,1032,0,-1545
217,2.427165,0,1,1,1031,-2,-1550
218,2.438352,0,2,2,1032,-2,-1546
219,2.449561,0,1,1,1032,1,-1545
220,2.460746,0,0,2,1033,-1,-1547
221,2.471928,0,0,1,1037,-5,-1549
222,2.483111,0,1,1,1035,1,-1542
223,2.494295,0,1,1,1033,2,-1548
224,2.505485,0,0,2,1036,0,-1543
225,2.516668,0,1,1,1032,0,-1549
226,2.527853,0,1,1,1035,3,-1548
227,2.539044,0,0,2,1033,0,-1547
228,2.550235,0,0,1,1034,3,-1542
229,2.56142,0,0,1,1036,-3,-1540
230,2.572606,0,1,2,1036,-1,-1544
231,2.583801,0,1,1,1032,1,-1541
232,2.594985,1,1,1,1031,-2,-1549
233,2.606168,0,1,1,1040,1,-1546
234,2.617356,0,1,1,1037,-2,-1551
235,2.628544,1,2,1,1036,-4,-1547
236,2.639726,1,2,1,1032,0,-1544
237,2.650912,1,2,1,1036,0,-1552
238,2.662096,0,2,1,1034,0,-1544
239,2.673289,0,1,1,1035,0,-1547
240,2.684475,0,1,1,1032,-1,-1543
241,2.695664,1,2,1,1034,-1,-1545
242,2.706851,1,2,2,1034,0,-1546
243,2.718034,0,2,2,1029,0,-1553
244,2.729231,0,1,2,1035,5,-1544
245,2.740417,0,1,1,1035,0,-1538
246,2.7516,0,0,1,1030,0,-1547
247,2.762796,0,0,1,1035,4,-1548
248,2.773982,1,0,1,1034,2,-1544
249,2.785173,1,1,1,1034,-1,-1545
250,2.796358,0,1,1,1033,-2,-1548
251,2.807548,0,3,0,1032,1,-1547
252,2.818738,0,2,1,1029,-2,-1547
253,2.829924,0,3,0,1034,0,-1545
254,2.841113,0,2,1,1030,4,-1542
255,2.852297,0,1,1,1032,0,-1546
256,2.863481,0,3,1,1036,0,-1545
257,2.874665,1,2,1,1038,0,-1548
258,2.885853,0,2,1,1035,0,-1541
259,2.897047,0,1,1,1037,1,-1545
260,2.90823,0,1,1,1032,3,-1545
261,2.919428,0,0,1,1031,2,-1550
262,2.93061,0,0,1,1032,1,-1548
263,2.941797,0,1,1,1033,-1,-1545
264,2.952985,0,1,0,1033,-1,-1551
265,2.964167,0,0,1,1033,-1,-1543
266,2.975352,0,-1,1,1033,0,-1546
267,2.986541,1,-1,1,1033,0,-1548
268,2.997725,1,0,0,1033,1,-1544
269,3.008917,0,1,1,1034,0,-1551
270,3.020104,0,1,1,1033,3,-1540
271,3.03129,0,2,0,1035,0,-1543
272,3.042477,1,1,0,1033,2,-1550
273,3.053664,0,2,1,1034,1,-1547
274,3.064863,0,2,1,1035,2,-1546
275,3.076048,1,2,1,1032,1,-1546
276,3.087233,1,2,1,1031,-1,-1548
277,3.098419,0,2,2,1036,-3,-1547
278,3.109603,0,2,2,1034,0,-1542
279,3.120786,0,2,2,1031,0,-1548
280,3.131974,0,2,2,1034,-3,-1550
281,3.143163,0,3,1,1032,3,-1551
282,3.154347,0,1,1,1034,0,-1546
283,3.165536,0,1,1,1031,4,-1545
284,3.17673,0,1,1,1033,1,-1546
285,3.187914,0,0,1,1035,0,-1554
286,3.199105,0,0,1,1034,2,-1542
287,3.210286,0,1,1,1034,0,-1541
288,3.221478,0,1,1,1029,4,-1544
289,3.232663,0,0,0,1034,2,-1545
290,3.243846,-1,0,0,1031,0,-1548
291,3.255034,-1,1,0,1033,0,-1545
292,3.266217,-1,0,1,1030,0,-1545
293,3.277421,0,1,1,1031,3,-1548
294,3.288605,1,2,1,1029,1,-1545
295,3.299799,0,2,1,1037,0,-1549
296,3.310986,0,2,1,1030,-1,-1552
297,3.322171,0,1,1,1032,0,-1544
298,3.333361,0,2,1,1033,-1,-1550
299,3.344546,0,1,2,1030,0,-1545
300,3.355729,-1,0,1,1030,1,-1543
301,3.366915,0,1,2,1034,0,-1550
302,3.378099,0,0,1,1036,0,-1549
303,3.389287,0,1,2,1034,0,-1542
304,3.400471,0,1,2,1030,7,-1547
305,3.411661,0,0,2,1039,0,-1544
306,3.42285,1,0,2,1034,2,-1547
307,3.434034,0,0,2,1033,0,-1546
308,3.445228,-1,1,1,1031,0,-1549
309,3.456415,0,1,1,1032,-3,-1543
310,3.467599,1,1,0,1035,-4,-1551
311,3.478792,0,1,1,1030,0,-1541
312,3.489976,1,0,1,1035,0,-1544
313,3.501167,1,2,0,1031,2,-1548
314,3.512349,0,2,0,1037,0,-1545
315,3.52353,1,2,0,1037,-3,-1553
316,3.53472,0,2,1,1031,1,-1554
317,3.545911,0,2,2,1031,-1,-1551
318,3.557097,0,2,2,1030,-1,-1550
319,3.568283,0,3,2,1032,-2,-1552
320,3.579477,0,2,2,1035,0,-1549
321,3.590663,0,1,2,1033,-1,-1550
322,3.601849,0,0,0,1032,0,-1555
323,3.613044,0,0,0,1035,-2,-1548
324,3.624228,0,1,1,1031,-2,-1551
325,3.635426,1,1,1,1030,-2,-1544
326,3.64661,0,2,2,1032,0,-1553
327,3.657795,0,1,1,1033,-3,-1544
328,3.66898,-1,1,0,1036,4,-1548
329,3.680163,0,2,1,1034,2,-1549
330,3.691345,0,1,1,1034,1,-1546
331,3.70253,0,1,1,1037,0,-1547
332,3.71372,0,2,0,1030,-4,-1547
333,3.724911,0,1,1,1033,1,-1543
334,3.736093,0,1,1,1036,0,-1552
335,3.747284,1,3,2,1033,0,-1550
336,3.758469,0,1,1,1031,0,-1549
337,3.769658,0,2,1,1034,-2,-1545
338,3.78086,0,3,1,1037,0,-1548
339,3.792047,0,0,1,1030,0,-1549
340,3.803234,0,0,1,1034,0,-1550
341,3.814416,0,1,1,1032,3,-1547
342,3.825601,0,0,2,1034,0,-1546
343,3.836788,0,-1,2,1036,0,-1543
344,3.84797,0,0,1,1031,0,-1545
345,3.859157,0,-1,1,1035,-1,-1542
346,3.87034,0,-1,1,1032,-1,-1547
347,3.881534,-1,0,1,1031,-1,-1546
348,3.89272,0,0,1,1034,-2,-1550
349,3.903904,0,0,1,1033,1,-1551
350,3.915094,0,1,2,1031,4,-1546
351,3.926278,1,0,1,1034,3,-1542
352,3.937465,0,1,0,1035,-2,-1550
353,3.948651,0,0,1,1029,2,-1545
354,3.959835,0,1,1,1034,1,-1548
355,3.971024,0,1,0,1034,-2,-1550
356,3.982228,0,2,0,1030,-2,-1545
357,3.993809,0,1,1,1034,0,-1549
358,4.005486,1,2,1,1037,-1,-1547
359,4.017196,0,1,1,1035,3,-1553
360,4.028896,0,2,1,1032,0,-1545
361,4.040549,0,1,1,1034,5,-1550
362,4.052202,0,1,1,1038,5,-1551
363,4.063862,0,0,1,1033,-2,-1546
364,4.075534,0,1,1,1033,0,-1545
365,4.0872,0,2,1,1030,0,-1541
366,4.098854,0,2,2,1035,2,-1546
367,4.110505,0,1,1,1030,0,-1549
368,4.122195,0,1,0,1036,0,-1548
369,4.133851,0,2,1,1034,-1,-1549
370,4.145504,-1,1,1,1033,1,-1544
371,4.157156,-1,1,1,1034,0,-1545
372,4.168802,0,1,1,1032,-1,-1545
373,4.180452,0,1,1,1036,1,-1546
374,4.192141,0,1,0,1033,0,-1543
375,4.203789,1,1,1,1031,0,-1546
376,4.215441,0,1,1,1036,0,-1549
377,4.227105,0,2,1,1037,1,-1547
378,4.238774,1,1,1,1033,-1,-1546
379,4.250453,0,1,1,1032,0,-1553
380,4.262129,0,1,1,1033,0,-1545
381,4.273808,0,1,2,1031,1,-1546
382,4.285464,0,1,1,1034,-3,-1548
383,4.297189,0,1,2,1036,0,-1540
384,4.308839,1,1,1,1033,-1,-1547
385,4.320488,0,1,1,1031,-2,-1550
386,4.33216,1,1,1,1033,1,-1547
387,4.343822,0,2,1,1032,3,-1547
388,4.355494,0,1,1,1037,-1,-1543
389,4.367161,0,1,1,1033,0,-1549
390,4.37882,0,2,1,1032,-1,-1544
391,4.390484,0,1,1,1033,-1,-1542
392,4.402205,0,1,1,1034,2,-1543
393,4.413904,0,2,1,1032,-1,-1543
394,4.425497,0,0,1,1034,-1,-1549
395,4.437045,0,1,1,1032,-2,-1547
396,4.448593,0,1,1,1034,3,-1548
397,4.460139,0,1,2,1035,1,-1547
398,4.471683,0,1,1,1036,0,-1542
399,4.483236,0,1,1,1031,3,-1548
400,4.494795,0,1,1,1032,1,-1543
401,4.506374,0,1,0,1034,2,-1548
402,4.518028,1,1,1,1029,0,-1543
403,4.529674,0,1,1,1031,1,-1554
404,4.541324,0,1,1,1032,3,-1548
405,4.552975,0,1,1,1037,1,-1544
406,4.564657,0,2,1,1033,0,-1546
407,4.576298,0,2,1,1032,2,-1545
408,4.587952,1,1,0,1033,0,-1541
409,4.599643,0,1,1,1035,0,-1546
410,4.611305,0,0,2,1030,0,-1552
411,4.62297,0,1,1,1032,0,-1545
412,4.63453,0,1,1,1031,-2,-1549
413,4.646108,0,1,1,1032,-1,-1548
414,4.657622,0,2,1,1033,1,-1548
415,4.669138,0,2,1,1032,2,-1549
416,4.680678,0,1,1,1032,3,-1546
417,4.692225,-1,1,1,1035,0,-1543
418,4.703771,1,2,1,1034,0,-1545
419,4.715346,0,0,0,1036,0,-1550
420,4.72708,1,2,1,1034,1,-1546
421,4.738761,2,2,1,1032,0,-1551
422,4.750454,0,0,1,1036,0,-1547
423,4.762156,1,1,1,1037,-2,-1549
424,4.773824,0,1,1,1033,-1,-1549
425,4.785633,0,1,0,1034,0,-1549
426,4.797488,1,1,1,1034,0,-1550
427,4.809168,0,1,0,1034,0,-1546
428,4.82097,0,2,1,1031,2,-1551
429,4.832745,0,1,0,1032,0,-1549
430,4.844319,0,0,2,1034,0,-1552
431,4.855866,0,1,1,1033,0,-1554
432,4.867416,0,1,1,1033,1,-1545
433,4.878979,0,1,0,1034,-1,-1550
434,4.890542,1,1,1,1033,3,-1553
435,4.902109,1,1,1,1034,-2,-1547
436,4.913689,1,1,1,1029,2,-1544
437,4.925284,1,1,1,1031,2,-1551
438,4.936913,0,2,1,1031,-1,-1546
439,4.948573,0,1,0,1031,3,-1554
440,4.96022,0,1,2,1035,-5,-1542
441,4.971906,0,1,2,1033,-3,-1548
442,4.983567,1,2,1,1034,3,-1545
443,4.995211,0,1,1,1031,4,-1541
444,5.006884,1,1,1,1033,1,-1540
445,5.018537,1,1,1,1033,-2,-1543
446,5.030207,1,1,2,1034,0,-1551
447,5.041882,0,1,1,1030,-2,-1539
448,5.053463,0,1,1,1038,0,-1547
449,5.065029,0,1,2,1036,0,-1548
450,5.076597,1,1,2,1035,2,-1543
451,5.088148,1,1,1,1034,-2,-1537
452,5.099753,0,1,1,1035,-1,-1547
453,5.111335,1,1,1,1034,0,-1549
454,5.122901,0,1,1,1029,1,-1551
455,5.134481,1,1,1,1032,0,-1552
456,5.146106,0,1,1,1036,2,-1542
457,5.157804,0,1,1,1036,0,-1547
458,5.169429,0,2,1,1033,0,-1544
459,5.181098,0,2,0,1031,-1,-1546
460,5.192766,0,1,0,1029,-3,-1543
461,5.204421,0,1,1,1028,1,-1549
462,5.21607,0,2,1,1035,-1,-1543
463,5.227732,0,2,1,1034,1,-1544
464,5.2394,0,1,1,1032,-3,-1554
465,5.251109,0,1,1,1031,1,-1552
466,5.262825,0,1,2,1032,0,-1549
467,5.274478,0,1,1,1031,4,-1542
468,5.286184,0,2,1,1035,-5,-1552
469,5.297862,0,1,1,1033,5,-1553
470,5.309545,0,1,1,1035,0,-1546
471,5.321227,0,1,1,1034,1,-1547
472,5.332916,0,1,0,1034,0,-1548
473,5.344584,0,1,0,1036,1,-1544
474,5.356269,0,1,1,1034,0,-1547
475,5.367833,0,1,0,1034,-4,-1546
476,5.379394,0,1,1,1035,1,-1549
477,5.390984,0,1,1,1034,-1,-1543
478,5.402543,0,1,1,1035,-2,-1549
479,5.414103,-1,1,1,1028,-1,-1544
480,5.425617,0,1,1,1032,-1,-1544
481,5.437139,0,1,1,1029,-2,-1543
482,5.448696,0,2,1,1032,4,-1554
483,5.460317,0,1,1,1031,2,-1551
484,5.472014,1,1,1,1029,1,-1546
485,5.483667,0,1,1,1037,-5,-1547
486,5.495339,0,1,1,1035,1,-1544
487,5.506987,1,1,0,1035,1,-1550
488,5.518651,-1,1,1,1035,-2,-1545
489,5.530329,0,1,1,1032,0,-1545
490,5.541993,0,0,1,1031,0,-1543
491,5.55369,0,1,1,1033,-2,-1546
492,5.565349,1,2,1,1034,-1,-1546
493,5.576897,0,1,1,1034,0,-1550
494,5.58845,0,1,1,1036,-2,-1549
495,5.600001,0,1,2,1037,3,-1547
496,5.611582,0,1,1,1032,0,-1542
497,5.623139,0,1,0,1034,-1,-1551
498,5.634686,1,2,2,1035,0,-1549
499,5.646245,0,2,1,1034,0,-1543
500,5.657835,-1,1,1,1032,0,-1547
501,5.66948,-1,1,1,1031,0,-1549
502,5.681176,0,1,0,1037,-2,-1552
503,5.692824,0,1,1,1033,1,-1547
504,5.704477,0,1,1,1036,-1,-1548
505,5.716142,0,1,2,1032,1,-1551
506,5.727787,1,1,1,1032,5,-1549
507,5.739437,0,1,1,1036,0,-1544
508,5.751106,0,0,1,1034,-2,-1545
509,5.762772,0,1,1,1033,2,-1545
510,5.774464,0,1,1,1035,0,-1549
511,5.786051,0,1,2,1033,0,-1541
512,5.797624,0,1,1,1030,0,-1547
513,5.809224,0,1,1,1034,1,-1544
514,5.820779,0,1,1,1032,0,-1554
515,5.83234,1,1,1,1035,0,-1552
516,5.84392,0,1,1,1032,-1,-1550
517,5.855472,0,1,1,1034,2,-1547
518,5.867051,0,1,1,1034,4,-1548
519,5.878674,1,1,1,1032,-3,-1550
520,5.890351,0,0,1,1035,0,-1548
521,5.902022,0,0,1,1035,-1,-1548
522,5.913685,0,1,2,1035,0,-1546
523,5.925356,0,0,2,1032,0,-1540
524,5.937028,1,1,2,1033,-2,-1549
525,5.94868,0,2,1,1033,-2,-1543
526,5.960347,0,1,1,1031,0,-1548
527,5.972025,1,2,1,1035,-1,-1542
528,5.983694,0,1,1,1034,-2,-1546
529,5.995244,0,1,1,1033,2,-1544
530,6.006814,1,-1,0,1032,0,-1546
531,6.018361,0,1,0,1032,-4,-1545
532,6.029912,0,1,1,1032,4,-1547
533,6.041456,0,1,1,1032,2,-1549
534,6.05302,0,1,1,1032,1,-1550
535,6.064584,0,1,2,1032,1,-1547
536,6.076138,0,1,1,1035,4,-1543
537,6.087759,0,1,1,1033,-1,-1543
538,6.09941,0,1,1,1033,-1,-1551
539,6.111057,0,1,0,1029,-1,-1549
540,6.122707,0,1,1,1032,-3,-1548
541,6.134361,0,1,1,1032,2,-1550
542,6.146053,0,1,2,1036,1,-1542
543,6.157685,0,1,1,1036,-1,-1547
544,6.169335,0,1,1,1036,0,-1548
545,6.181005,0,1,1,1033,2,-1543
546,6.19267,1,0,1,1037,0,-1549
547,6.204225,0,1,1,1030,1,-1553
548,6.21583,0,2,1,1033,2,-1550
549,6.227378,0,1,1,1034,0,-1542
550,6.238949,0,1,1,1033,-2,-1549
551,6.250511,0,1,1,1036,0,-1549
552,6.262095,1,1,1,1033,-2,-1546
553,6.273707,1,1,1,1034,-3,-1545
554,6.285279,0,1,1,1031,0,-1549
555,6.296916,0,1,1,1038,2,-1543
556,6.308581,1,1,0,1033,2,-1548
557,6.320235,1,1,1,1048,1,-1551
558,6.331901,0,1,1,1034,0,-1549
559,6.343557,1,0,0,1032,3,-1547
560,6.355206,0,2,0,1030,0,-1548
561,6.366878,0,1,1,1033,3,-1552
562,6.378516,1,2,2,1032,0,-1550
563,6.390203,0,1,1,1033,1,-1545
564,6.401886,0,1,0,1038,-1,-1550
565,6.413552,0,1,1,1035,1,-1549
566,6.425224,0,0,1,1034,1,-1547
567,6.436895,1,1,1,1032,2,-1549
568,6.448545,1,1,2,1034,0,-1550
569,6.460203,0,1,1,1033,-1,-1543
570,6.471855,0,1,2,1037,0,-1545
571,6.483513,0,1,2,1031,0,-1549
572,6.495196,0,0,1,1035,0,-1542
573,6.506857,0,1,1,1033,2,-1550
574,6.518514,0,1,1,1034,2,-1546
575,6.530187,1,1,1,1031,-1,-1545
576,6.541837,0,1,1,1037,0,-1552
577,6.553501,0,1,1,1033,1,-1542
578,6.565167,0,1,1,1030,0,-1549
579,6.576812,-1,1,1,1034,1,-1547
580,6.588494,-1,1,1,1032,-1,-1551
581,6.600164,0,1,1,1034,2,-1543
582,6.611837,0,1,0,1031,-2,-1550
583,6.623454,0,2,1,1035,0,-1550
584,6.63501,0,1,1,1030,-1,-1552
585,6.646563,0,1,0,1035,-1,-1547
586,6.658105,0,2,1,1030,-3,-1546
587,6.669622,0,1,2,1035,3,-1548
588,6.68114,0,1,2,1033,0,-1545
589,6.692682,0,1,1,1034,0,-1543
590,6.704244,0,0,1,1035,3,-1544
591,6.715872,0,1,1,1033,0,-1552
592,6.727534,0,1,2,1033,2,-1548
593,6.739202,0,1,0,1036,3,-1546
594,6.75086,0,2,1,1036,1,-1545
595,6.762511,0,1,1,1034,-2,-1546
596,6.774195,1,2,1,1032,2,-1544
597,6.78585,-1,1,1,1032,0,-1545
598,6.797536,-1,1,1,1035,1,-1544
599,6.809181,0,1,1,1032,-6,-1548
600,6.820847,0,0,1,1035,-2,-1556
601,6.832402,0,2,1,1035,2,-1542
602,6.843961,0,1,1,1035,2,-1541
603,6.855514,0,1,1,1032,0,-1546
604,6.867077,0,0,1,1032,3,-1545
605,6.878652,-1,1,1,1032,1,-1543
606,6.890224,0,0,1,1030,0,-1551
607,6.901796,0,1,1,1035,-2,-1547
608,6.913389,0,2,1,1034,1,-1547
609,6.925086,0,2,1,1030,3,-1552
610,6.936761,0,2,1,1039,1,-1550
611,6.948439,0,1,1,1036,0,-1542
612,6.960092,1,1,1,1034,1,-1549
613,6.971763,1,2,1,1036,0,-1546
614,6.983423,0,0,1,1032,2,-1549
615,6.995103,1,1,1,1032,1,-1546
616,7.006763,0,1,0,1032,0,-1548
617,7.018453,0,1,1,1033,-1,-1550
618,7.030137,0,1,0,1031,-2,-1548
619,7.041699,0,1,0,1037,0,-1550
620,7.053264,0,1,1,1034,0,-1550
621,7.064825,0,1,1,1027,-2,-1549
622,7.076367,1,1,1,1031,1,-1543
623,7.087917,0,1,2,1030,-1,-1547
624,7.099462,0,1,1,1033,-2,-1549
625,7.111038,1,2,2,1033,0,-1547
626,7.122605,0,1,1,1035,1,-1545
627,7.134241,0,1,1,1033,2,-1544
628,7.145928,0,2,2,1032,2,-1549
629,7.157615,1,1,1,1031,1,-1554
630,7.169291,1,2,1,1031,-3,-1548
631,7.180948,0,2,2,1035,-2,-1545
632,7.19262,0,1,1,1036,1,-1544
633,7.204262,0,1,2,1031,1,-1541
634,7.21591,0,1,1,1029,0,-1545
635,7.227588,-1,1,2,1034,-2,-1544
636,7.239258,0,2,1,1035,2,-1544
637,7.250833,0,1,0,1035,3,-1538
638,7.262381,0,1,1,1033,2,-1551
639,7.273946,0,1,2,1032,2,-1549
640,7.285508,1,1,1,1029,0,-1546
641,7.297123,1,1,0,1029,0,-1543
642,7.308827,0,1,1,1031,0,-1542
643,7.320448,1,1,0,1031,1,-1551
644,7.332027,0,1,1,1033,0,-1546
645,7.343589,0,1,1,1032,2,-1547
646,7.355229,0,1,1,1030,1,-1544
647,7.366806,0,1,1,1032,0,-1542
648,7.378354,1,2,1,1034,0,-1545
649,7.389911,1,1,1,1030,-3,-1544
650,7.401456,0,1,0,1031,0,-1543
651,7.41302,0,2,2,1033,6,-1543
652,7.424571,0,2,1,1033,-1,-1549
653,7.436115,0,0,1,1036,5,-1544
654,7.447855,0,1,1,1033,0,-1550
655,7.459519,1,2,1,1034,2,-1547
656,7.471199,0,1,1,1037,0,-1551
657,7.48286,0,1,1,1035,0,-1546
658,7.494515,0,1,1,1037,-1,-1548
659,7.50621,1,1,0,1031,1,-1549
660,7.517877,1,1,1,1033,0,-1546
661,7.529552,0,1,0,1036,1,-1543
662,7.541241,0,2,1,1031,2,-1542
663,7.552813,0,1,1,1031,-1,-1545
664,7.564374,0,1,1,1033,1,-1548
665,7.575938,0,0,1,1033,1,-1540
666,7.587488,1,2,1,1032,0,-1548
667,7.599062,0,2,2,1035,0,-1552
668,7.610612,0,2,1,1034,0,-1546
669,7.622164,0,2,1,1033,1,-1538
670,7.633739,0,2,1,1034,0,-1546
671,7.64536,1,1,2,1034,0,-1546
672,7.65705,0,0,1,1032,3,-1542
673,7.668737,1,1,1,1034,0,-1546
674,7.6804,0,1,1,1030,2,-1540
675,7.692089,0,1,1,1034,0,-1550
676,7.703745,0,2,1,1034,4,-1544
677,7.715397,0,1,0,1034,-1,-1545
678,7.727064,1,2,2,1031,-1,-1546
679,7.738738,0,2,2,1035,0,-1539
680,7.750399,0,2,1,1030,3,-1545
681,7.761988,1,1,1,1029,0,-1546
682,7.773564,0,1,2,1035,1,-1545
683,7.785127,0,1,1,1037,3,-1544
684,7.796681,0,1,1,1037,0,-1550
685,7.808226,0,1,2,1034,0,-1548
686,7.819794,0,1,0,1035,1,-1545
687,7.831344,0,1,1,1033,-4,-1547
688,7.842955,0,1,1,1033,-5,-1546
689,7.85462,0,1,1,1029,0,-1554
690,7.866278,0,1,0,1032,0,-1540
691,7.877938,0,1,1,1035,3,-1549
692,7.889614,0,1,1,1034,3,-1549
693,7.901304,-1,1,1,1032,0,-1540
694,7.912966,0,2,1,1037,0,-1551
695,7.924616,0,2,1,1037,-1,-1548
696,7.936262,0,1,0,1033,0,-1539
697,7.94794,0,1,1,1032,0,-1544
698,7.959614,0,1,1,1035,1,-1548
699,7.971184,1,1,1,1037,1,-1545
700,7.982729,0,0,1,1030,3,-1549
701,7.994281,1,0,1,1034,-4,-1547
702,8.005855,0,1,0,1029,0,-1554
703,8.01738,0,0,2,1034,1,-1549
704,8.028897,0,1,1,1033,0,-1544
705,8.040442,0,2,0,1031,2,-1542
706,8.052027,0,1,1,1030,0,-1549
707,8.063716,0,1,2,1032,0,-1543
708,8.07538,0,1,1,1031,-2,-1551
709,8.08706,0,1,1,1031,0,-1546
710,8.098707,0,1,1,1032,0,-1542
711,8.110367,1,1,1,1033,-1,-1547
712,8.122066,0,1,1,1034,0,-1542
713,8.133734,0,2,1,1030,1,-1540
714,8.145429,0,1,1,1033,3,-1546
715,8.157113,1,1,1,1033,-3,-1542
716,8.168764,0,1,1,1033,2,-1548
717,8.180411,0,2,1,1035,3,-1551
718,8.192065,0,1,1,1033,1,-1547
719,8.203744,0,1,2,1039,2,-1543
720,8.21539,0,1,1,1031,-4,-1547
721,8.227043,0,1,1,1036,2,-1553
722,8.238723,-1,0,1,1032,0,-1541
723,8.250374,0,1,0,1034,0,-1549
724,8.262126,0,1,1,1029,1,-1546
725,8.273814,1,1,1,1035,1,-1547
726,8.285384,0,1,1,1034,0,-1548
727,8.296937,0,1,1,1030,0,-1543
728,8.308481,0,1,1,1038,0,-1556
729,8.320026,0,1,2,1031,-6,-1549
730,8.331573,0,2,1,1036,-1,-1545
731,8.343115,0,1,0,1029,-2,-1546
732,8.354659,1,2,1,1032,-4,-1544
733,8.366238,0,1,1,1031,1,-1548
734,8.377865,0,2,1,1035,0,-1552
735,8.38956,1,1,1,1035,-1,-1547
736,8.401216,0,2,2,1030,0,-1547
737,8.412896,0,1,1,1030,-1,-1549
738,8.424599,0,2,1,1032,0,-1547
739,8.436256,0,1,1,1032,0,-1546
740,8.447902,0,1,2,1032,0,-1549
741,8.459579,0,1,1,1036,2,-1547
742,8.471251,0,2,1,1034,1,-1548
743,8.4829,0,2,0,1031,1,-1549
744,8.494461,0,2,1,1033,5,-1542
745,8.506043,0,2,1,1032,2,-1553
746,8.51762,0,1,1,1036,1,-1544
747,8.529144,0,1,1,1034,1,-1552
748,8.540686,0,1,1,1032,0,-1541
749,8.552225,0,0,2,1034,-1,-1544
750,8.563779,0,0,1,1031,-2,-1547
751,8.57534,0,2,0,1031,0,-1543
752,8.586967,0,2,1,1035,0,-1543
753,8.598621,0,2,1,1038,0,-1547
754,8.610272,0,1,1,1031,3,-1544
755,8.621949,0,1,1,1032,0,-1546
756,8.633612,0,1,1,1030,1,-1549
757,8.645301,0,2,2,1031,-1,-1551
758,8.656973,0,1,1,1034,3,-1548
759,8.668626,-1,1,2,1033,0,-1548
760,8.680305,0,1,1,1032,0,-1546
761,8.691886,0,1,1,1035,0,-1545
762,8.703435,1,2,1,1033,-5,-1546
763,8.715014,1,1,1,1030,2,-1549
764,8.726563,0,1,1,1030,4,-1546
765,8.738106,0,1,1,1031,0,-1544
766,8.749669,0,1,2,1033,0,-1546
767,8.761214,0,1,1,1027,0,-1546
768,8.772768,0,1,1,1032,-1,-1554
769,8.784319,0,1,1,1035,2,-1545
770,8.796016,0,1,1,1035,0,-1548
771,8.807668,0,1,1,1035,0,-1553
772,8.819346,0,2,1,1032,0,-1548
773,8.831015,1,2,1,1034,-1,-1544
774,8.842668,0,1,1,1030,0,-1549
775,8.854343,0,1,0,1034,0,-1549
776,8.865998,0,1,1,1034,1,-1545
777,8.877678,0,1,1,1033,-1,-1545
778,8.889371,0,1,1,1032,0,-1544
779,8.901038,0,2,1,1031,3,-1542
780,8.9127,1,1,1,1033,0,-1546
781,8.924354,0,1,1,1031,2,-1542
782,8.936002,0,1,1,1031,0,-1549
783,8.947661,0,0,1,1033,0,-1544
784,8.959321,1,1,1,1034,1,-1546
785,8.970969,0,1,1,1034,1,-1547
786,8.982624,0,1,0,1035,-2,-1546
787,8.994303,1,1,0,1036,0,-1550
788,9.005945,1,1,1,1031,1,-1549
789,9.017607,0,1,1,1036,-4,-1549
790,9.029287,0,1,0,1031,0,-1544
791,9.040953,0,0,1,1034,3,-1545
792,9.05261,1,0,1,1036,-1,-1553
793,9.064251,0,1,1,1030,2,-1544
794,9.075898,0,1,1,1033,-2,-1550
795,9.087566,0,1,1,1035,1,-1551
796,9.099249,0,1,1,1033,0,-1550
797,9.110897,0,1,1,1032,0,-1544
798,9.122568,0,0,1,1033,2,-1550
799,9.134204,0,1,2,1034,0,-1544
800,9.145866,0,2,1,1034,-2,-1543
801,9.157558,0,1,2,1030,-1,-1549
802,9.169241,0,2,2,1033,2,-1541
803,9.180911,0,0,1,1034,1,-1543
804,9.192582,1,2,1,1033,0,-1549
805,9.204263,0,1,2,1031,0,-1542
806,9.21596,0,1,2,1034,-3,-1543
807,9.227542,0,1,1,1031,1,-1545
808,9.239087,-1,1,2,1031,-4,-1548
809,9.250637,0,1,2,1034,0,-1541
810,9.262188,1,1,1,1029,-3,-1552
811,9.273763,0,2,1,1034,0,-1548
812,9.285324,0,1,1,1032,1,-1542
813,9.296905,1,1,1,1036,-1,-1544
814,9.308467,0,1,1,1034,1,-1546
815,9.320134,0,1,1,1030,-1,-1547
816,9.331797,0,1,2,1034,-3,-1542
817,9.343464,0,1,1,1032,0,-1542
818,9.355122,1,1,0,1036,3,-1547
819,9.366768,0,1,0,1033,0,-1552
820,9.378463,0,0,1,1035,2,-1548
821,9.390124,0,2,1,1031,0,-1550
822,9.401795,0,1,1,1037,-3,-1547
823,9.413445,0,1,1,1033,2,-1546
824,9.425103,0,1,1,1036,0,-1546
825,9.436667,0,1,2,1034,-3,-1543
826,9.448215,1,1,2,1034,-1,-1545
827,9.459781,0,1,2,1031,-2,-1546
828,9.471333,0,1,1,1038,-1,-1554
829,9.482907,1,1,0,1037,0,-1545
830,9.494455,1,1,1,1033,3,-1543
831,9.506009,0,1,2,1037,0,-1549
832,9.517576,0,2,2,1035,-2,-1547
833,9.52917,1,1,0,1031,0,-1548
834,9.54085,1,1,2,1033,-4,-1550
835,9.552509,0,1,2,1034,0,-1546
836,9.564174,0,1,1,1031,1,-1547
837,9.575851,0,2,1,1036,1,-1552
838,9.5875,0,1,1,1033,2,-1544
839,9.599154,0,1,1,1033,-1,-1545
840,9.610809,-1,1,1,1032,4,-1551
841,9.622474,-1,1,1,1033,0,-1545
842,9.634134,0,1,1,1032,1,-1546
843,9.645692,0,1,1,1033,0,-1547
844,9.657288,0,2,1,1034,1,-1545
845,9.66884,0,1,1,1034,2,-1549
846,9.680403,0,1,1,1033,1,-1541
847,9.691943,1,1,1,1035,3,-1553
848,9.703502,1,1,1,1034,0,-1545
849,9.71517,1,1,1,1034,0,-1548
850,9.72674,1,0,2,1027,-1,-1553
851,9.738426,0,1,1,1032,1,-1543
852,9.750089,0,0,1,1032,0,-1545
853,9.761742,0,2,0,1034,2,-1547
854,9.773428,0,1,1,1032,2,-1547
855,9.785085,0,1,2,1033,1,-1543
856,9.796738,0,1,1,1034,4,-1547
857,9.8084,1,1,1,1035,1,-1542
858,9.820066,0,1,1,1031,3,-1550
859,9.831721,1,2,1,1037,-2,-1545
860,9.843285,0,1,0,1031,0,-1551
861,9.854832,0,1,2,1030,0,-1541
862,9.86638,0,1,2,1034,2,-1549
863,9.877934,1,1,2,1035,1,-1551
864,9.889509,0,2,1,1034,0,-1554
865,9.901067,0,1,1,1036,-1,-1548
866,9.912675,0,2,1,1034,-1,-1551
867,9.924249,0,2,2,1032,3,-1550
868,9.935862,1,1,1,1029,0,-1544
869,9.947557,0,1,1,1035,0,-1543
870,9.95921,0,2,1,1035,-1,-1550
871,9.970826,0,1,1,1027,2,-1555
872,9.982484,1,2,1,1035,1,-1547
873,9.994182,0,1,0,1032,0,-1550
874,10.005845,0,0,1,1034,3,-1547
875,10.017497,0,1,2,1030,0,-1547
876,10.029169,0,2,1,1032,0,-1549
877,10.040721,0,2,1,1036,2,-1548
878,10.052265,1,2,1,1035,-1,-1543
879,10.06382,0,1,1,1031,0,-1544
880,10.075407,0,1,2,1032,-2,-1553
881,10.086956,0,2,1,1030,1,-1538
882,10.09852,1,1,1,1030,-1,-1544
883,10.110084,0,1,0,1030,4,-1548
884,10.121618,0,1,0,1034,0,-1544
885,10.133149,0,1,0,1029,-3,-1548
886,10.144805,0,1,1,1035,-1,-1549
887,10.156471,0,1,1,1035,0,-1554
888,10.168127,0,1,0,1033,3,-1546
889,10.179794,0,1,1,1028,0,-1546
890,10.191449,0,1,1,1031,4,-1550
891,10.203108,0,1,1,1033,-2,-1549
892,10.214764,0,1,1,1033,1,-1544
893,10.226458,1,0,1,1034,1,-1554
894,10.238116,1,1,1,1032,-1,-1550
895,10.249793,0,1,2,1034,0,-1548
896,10.2614,1,1,2,1034,0,-1550
897,10.272959,0,1,1,1034,0,-1547
898,10.284529,1,1,1,1031,1,-1547
899,10.296075,0,1,2,1032,3,-1543
900,10.30762,0,1,1,1033,0,-1543
901,10.319183,0,2,1,1033,-3,-1543
902,10.33073,0,1,1,1034,1,-1546
903,10.342288,0,1,1,1037,2,-1545
904,10.353985,0,2,1,1033,0,-1544
905,10.365687,0,1,1,1032,1,-1547
906,10.377338,0,2,2,1030,0,-1543
907,10.389023,0,1,1,1032,0,-1549
908,10.400693,0,0,0,1031,0,-1538
909,10.412344,0,0,1,1030,1,-1552
910,10.423994,0,1,1,1035,0,-1539
911,10.435662,1,2,1,1034,0,-1545
912,10.44733,0,0,1,1034,2,-1546
913,10.458985,1,1,1,1033,2,-1552
914,10.470542,1,1,1,1034,4,-1550
915,10.482102,0,1,1,1027,-1,-1547
916,10.493624,0,1,1,1029,-6,-1545
917,10.50514,1,2,2,1030,0,-1545
918,10.516692,1,2,1,1032,-1,-1544
919,10.528258,0,1,2,1032,0,-1551
920,10.539805,0,1,1,1029,0,-1548
921,10.551398,1,1,1,1033,0,-1542
922,10.563012,1,2,1,1033,0,-1545
923,10.574679,0,1,1,1036,-5,-1544
924,10.586347,-1,1,1,1036,1,-1546
925,10.598016,0,1,2,1032,0,-1553
926,10.609695,1,1,1,1031,0,-1546
927,10.621351,1,1,1,1034,-2,-1547
928,10.633036,0,0,1,1035,0,-1549
929,10.644711,0,2,1,1038,1,-1548
930,10.656427,0,1,2,1037,-2,-1537
931,10.668083,0,1,2,1032,0,-1553
932,10.679647,0,1,1,1035,1,-1549
933,10.691215,1,1,1,1033,0,-1543
934,10.702805,1,1,1,1036,-1,-1545
935,10.714357,0,2,1,1036,-1,-1544
936,10.725912,0,1,1,1035,0,-1547
937,10.737532,0,1,1,1031,1,-1553
938,10.749146,0,1,1,1035,0,-1551
939,10.760699,0,1,1,1032,-1,-1544
940,10.772358,0,0,1,1034,0,-1547
941,10.784023,0,1,1,1033,1,-1546
942,10.795759,-1,2,0,1030,1,-1549
943,10.807434,0,2,1,1033,0,-1544
944,10.819093,0,2,1,1032,0,-1547
945,10.83076,1,2,0,1035,3,-1551
946,10.842463,0,1,0,1035,1,-1547
947,10.85414,0,1,1,1035,-2,-1543
948,10.865842,0,2,1,1034,-2,-1543
949,10.877564,0,1,1,1034,0,-1542
950,10.889145,0,1,2,1032,0,-1547
951,10.900696,0,2,1,1031,-1,-1554
952,10.912246,0,2,1,1032,0,-1541
953,10.923792,0,2,1,1033,0,-1545
954,10.935335,0,1,1,1030,1,-1550
955,10.946883,0,2,1,1036,1,-1550
956,10.958435,0,2,1,1032,0,-1545
957,10.970019,0,1,1,1032,0,-1540
958,10.981673,0,1,1,1033,-1,-1550
959,10.993341,0,1,0,1031,1,-1545
960,11.00503,1,1,0,1038,-1,-1547
961,11.016722,0,1,1,1032,2,-1552
962,11.028377,1,2,2,1035,0,-1551
963,11.040047,1,1,0,1032,-1,-1548
964,11.051715,0,1,1,1036,0,-1545
965,11.063365,0,1,1,1031,1,-1543
966,11.07505,0,1,1,1035,0,-1548
967,11.086709,0,1,1,1036,0,-1544
968,11.098278,0,2,1,1037,0,-1548
969,11.109888,0,1,1,1033,0,-1554
970,11.121452,0,1,2,1031,3,-1546
971,11.133027,0,1,0,1034,0,-1546
972,11.144574,0,0,1,1037,0,-1543
973,11.156125,0,1,0,1029,-3,-1544
974,11.167676,1,1,1,1031,-2,-1549
975,11.179265,1,1,1,1031,1,-1554
976,11.190919,0,1,1,1034,-1,-1553
977,11.20258,1,2,1,1032,-2,-1548
978,11.214229,0,2,1,1032,0,-1550
979,11.22592,0,2,1,1032,0,-1546
980,11.237587,0,0,1,1030,-1,-1546
981,11.249254,0,1,1,1033,3,-1548
982,11.260912,1,2,1,1032,-1,-1552
983,11.27258,1,2,1,1032,-1,-1551
984,11.284255,0,1,1,1033,8,-1545
985,11.295921,0,1,1,1031,-3,-1551
986,11.307577,0,2,1,1037,3,-1544
987,11.319236,0,2,1,1033,-2,-1550
988,11.330887,0,2,1,1031,0,-1551
989,11.342553,0,1,1,1035,0,-1543
990,11.354207,0,1,1,1036,2,-1549
991,11.36586,0,1,1,1033,1,-1545
992,11.377559,0,1,0,1032,2,-1545
993,11.389318,0,1,1,1033,-3,-1549
994,11.400986,0,1,1,1030,0,-1547
995,11.412561,0,1,1,1036,1,-1552
996,11.424153,0,1,0,1033,0,-1542
997,11.435743,0,1,1,1037,-1,-1545
998,11.447283,0,1,1,1035,0,-1548
999,11.45882,0,0,1,1033,1,-1544
1000,11.470371,0,1,1,1033,1,-1550
1001,11.481923,0,1,1,1035,1,-1549
1002,11.49352,0,1,1,1034,0,-1547
1003,11.505175,0,0,1,1033,-2,-1545
1004,11.516823,0,1,0,1030,0,-1545
1005,11.528478,0,0,2,1033,3,-1545
1006,11.540156,0,1,1,1033,0,-1546
1007,11.55181,0,1,2,1033,0,-1551
1008,11.563459,0,1,2,1034,0,-1544
1009,11.575127,0,1,0,1034,1,-1542
1010,11.586814,0,1,0,1029,0,-1543
1011,11.598481,0,1,1,1037,0,-1547
1012,11.610144,0,1,1,1039,0,-1547
1013,11.621755,0,1,1,1032,0,-1543
1014,11.633315,0,1,1,1036,0,-1547
1015,11.644897,1,1,1,1041,6,-1545
1016,11.656441,1,2,1,1035,1,-1543
1017,11.667996,0,1,1,1037,2,-1549
1018,11.679542,0,1,1,1032,0,-1542
1019,11.691089,0,1,1,1036,0,-1545
1020,11.702656,0,0,1,1031,-2,-1552
1021,11.714341,1,1,1,1035,2,-1546
1022,11.726027,0,1,1,1033,-1,-1546
1023,11.737676,0,1,1,1035,2,-1547
1024,11.749334,0,1,0,1032,0,-1544
1025,11.76109,0,1,1,1036,1,-1546
1026,11.772754,0,1,1,1035,0,-1546
1027,11.784415,1,0,1,1033,0,-1546
1028,11.796097,0,1,0,1033,2,-1549
1029,11.807762,0,1,1,1031,1,-1547
1030,11.819427,0,1,1,1031,1,-1546
1031,11.831007,0,1,0,1032,3,-1547
1032,11.842553,0,1,1,1030,2,-1543
1033,11.854103,0,1,1,1032,-1,-1547
1034,11.865617,1,0,1,1036,-4,-1542
1035,11.877141,1,1,1,1032,0,-1546
1036,11.888685,0,1,1,1030,3,-1549
1037,11.900228,0,1,2,1030,0,-1548
1038,11.911792,0,1,1,1035,-2,-1547
1039,11.923487,0,1,2,1034,0,-1547
1040,11.935179,0,1,1,1033,0,-1552
1041,11.946831,0,2,1,1032,0,-1543
1042,11.958502,0,1,1,1033,2,-1547
1043,11.970199,0,1,1,1034,-2,-1551
1044,11.981851,0,1,1,1033,1,-1547
1045,11.993543,0,1,1,1033,-2,-1542
1046,12.005172,0,0,1,1030,1,-1550
1047,12.01684,0,2,1,1034,2,-1550
1048,12.0285,1,1,1,1033,0,-1543
1049,12.040057,0,1,1,1034,0,-1544
1050,12.051608,0,1,1,1031,3,-1554
1051,12.063155,0,1,1,1028,1,-1547
1052,12.074729,0,1,1,1039,-5,-1548
1053,12.086281,0,0,0,1032,-2,-1547
1054,12.097868,0,0,1,1038,4,-1541
1055,12.10938,1,1,1,1035,-1,-1540
1056,12.120908,1,1,1,1035,-5,-1545
1057,12.132561,0,2,1,1034,-1,-1546
1058,12.144209,0,2,0,1032,0,-1548
1059,12.155856,0,1,2,1031,1,-1546
1060,12.167553,0,1,1,1034,-1,-1549
1061,12.179198,-1,1,1,1034,0,-1546
1062,12.190845,-1,1,1,1032,3,-1540
1063,12.202519,1,1,0,1032,1,-1553
1064,12.214195,0,2,1,1034,0,-1549
1065,12.225864,-1,1,1,1031,0,-1554
1066,12.237534,0,1,1,1032,2,-1550
1067,12.249144,0,1,1,1036,0,-1543
1068,12.260724,1,1,1,1033,0,-1539
1069,12.272278,1,1,1,1034,0,-1548
1070,12.283868,0,1,1,1035,1,-1546
1071,12.295422,0,2,1,1033,4,-1542
1072,12.306992,0,2,1,1034,1,-1550
1073,12.318536,0,1,1,1036,1,-1549
1074,12.330105,0,1,1,1035,0,-1544
1075,12.341799,0,2,1,1034,1,-1553
1076,12.35343,0,1,1,1032,1,-1547
1077,12.365092,0,2,1,1033,0,-1549
1078,12.376777,0,2,1,1033,0,-1554
1079,12.388438,0,2,1,1033,-2,-1546
1080,12.400091,1,1,1,1031,0,-1543
1081,12.411738,0,0,0,1034,0,-1548
1082,12.423395,0,1,1,1031,0,-1543
1083,12.435046,1,1,1,1034,-1,-1547
1084,12.446597,0,1,1,1034,0,-1547
1085,12.458147,0,1,1,1034,4,-1544
1086,12.469747,0,1,1,1033,3,-1554
1087,12.481305,0,1,0,1033,0,-1547
1088,12.492887,0,1,1,1034,-2,-1546
1089,12.504454,0,2,0,1037,0,-1548
1090,12.516004,0,1,0,1033,0,-1543
1091,12.527588,0,2,1,1034,1,-1546
1092,12.53928,0,1,1,1033,3,-1543
1093,12.550934,0,0,1,1035,-5,-1550
1094,12.562582,0,1,1,1031,0,-1542
1095,12.574258,1,1,2,1034,0,-1550
1096,12.585934,1,2,1,1033,3,-1544
1097,12.597588,0,2,1,1034,2,-1547
1098,12.609282,0,1,1,1029,0,-1544
1099,12.62091,0,2,1,1036,0,-1551
1100,12.632575,0,1,1,1032,0,-1542
1101,12.644261,1,1,2,1036,0,-1550
1102,12.655824,1,2,1,1032,1,-1547
1103,12.66738,1,2,1,1032,1,-1549
1104,12.678932,0,2,1,1036,6,-1543
1105,12.690494,0,1,1,1033,0,-1544
1106,12.702109,0,1,1,1033,2,-1551
1107,12.713669,0,2,1,1037,1,-1544
1108,12.725258,0,2,1,1035,3,-1548
1109,12.736811,0,1,1,1035,3,-1552
1110,12.74844,0,1,2,1033,-2,-1551
1111,12.760088,1,0,1,1033,-1,-1542
1112,12.771745,0,1,1,1031,-3,-1545
1113,12.783423,1,1,1,1034,1,-1548
1114,12.795179,0,1,1,1030,2,-1553
1115,12.806829,0,1,1,1034,0,-1553
1116,12.818498,1,1,2,1037,0,-1541
1117,12.830198,0,2,1,1030,-2,-1546
1118,12.841855,0,1,1,1032,-1,-1546
1119,12.853375,0,2,1,1033,1,-1541
1120,12.864971,0,1,1,1034,-1,-1543
1121,12.87652,0,1,0,1036,0,-1546
1122,12.888062,0,1,1,1034,-1,-1546
1123,12.89961,1,1,1,1036,0,-1551
1124,12.911178,0,1,0,1030,-2,-1546
1125,12.922741,0,1,2,1031,0,-1543
1126,12.93433,1,1,0,1030,0,-1541
1127,12.945873,0,1,1,1034,0,-1541
1128,12.957555,0,1,1,1031,-1,-1548
1129,12.96922,-1,1,1,1033,2,-1541
1130,12.980897,0,1,1,1034,0,-1552
1131,12.992557,0,1,1,1032,1,-1545
1132,13.004209,0,1,1,1035,0,-1544
1133,13.015854,0,2,1,1035,0,-1546
1134,13.027524,0,1,1,1032,-2,-1542
1135,13.039179,0,2,0,1036,0,-1548
1136,13.050814,0,2,1,1035,1,-1543
1137,13.06237,1,1,2,1033,-2,-1548
1138,13.073936,0,1,2,1033,0,-1549
1139,13.085505,0,1,1,1035,-1,-1548
1140,13.097129,0,1,2,1036,3,-1553
1141,13.108699,0,0,0,1032,-3,-1548
1142,13.120243,0,1,1,1035,3,-1548
1143,13.131793,0,1,1,1035,0,-1545
1144,13.143358,0,1,1,1034,1,-1550
1145,13.155016,1,1,1,1031,1,-1542
1146,13.166676,0,1,1,1037,0,-1545
1147,13.178365,1,1,1,1031,-3,-1546
1148,13.19006,0,2,1,1034,-1,-1551
1149,13.201715,1,0,0,1036,0,-1543
1150,13.213429,1,2,1,1031,0,-1551
1151,13.225075,0,1,1,1033,0,-1546
1152,13.236821,0,1,2,1034,1,-1547
1153,13.248645,0,1,1,1033,0,-1550
1154,13.26022,0,1,1,1033,0,-1544
1155,13.271778,1,1,1,1030,-2,-1543
1156,13.283367,0,1,1,1035,0,-1553
1157,13.294929,0,1,1,1032,-1,-1548
1158,13.306485,0,1,2,1035,0,-1549
1159,13.318037,0,1,1,1032,1,-1546
1160,13.329618,1,1,1,1034,-1,-1550
1161,13.34121,0,1,0,1033,2,-1547
1162,13.352763,1,1,1,1036,1,-1549
1163,13.364419,0,2,0,1031,0,-1546
1164,13.376068,0,1,1,1032,-5,-1543
1165,13.387715,0,1,0,1033,2,-1545
1166,13.399366,1,0,0,1034,3,-1551
1167,13.411029,0,1,1,1035,-1,-1539
1168,13.422673,0,1,0,1033,1,-1547
1169,13.434324,0,0,2,1036,0,-1547
1170,13.446005,1,1,1,1035,-2,-1550
1171,13.457664,0,1,1,1034,0,-1546
1172,13.469229,0,1,0,1035,-1,-1542
1173,13.480776,0,1,1,1034,2,-1545
1174,13.492343,0,1,1,1031,-2,-1551
1175,13.503885,0,1,1,1033,1,-1549
1176,13.515437,0,1,1,1032,1,-1544
1177,13.526987,1,1,1,1031,0,-1542
1178,13.538531,1,1,2,1033,2,-1540
1179,13.550102,1,1,1,1030,0,-1546
1180,13.561661,1,1,1,1038,-3,-1549
1181,13.573332,0,1,1,1035,0,-1552
1182,13.585073,0,1,1,1032,1,-1549
1183,13.596761,0,1,1,1031,1,-1544
1184,13.608449,0,1,1,1036,2,-1546
1185,13.620128,0,1,1,1032,1,-1549
1186,13.631786,0,1,0,1036,0,-1538
1187,13.643436,0,1,1,1039,0,-1542
1188,13.655134,1,1,1,1032,0,-1552
1189,13.666813,0,2,1,1036,0,-1551
1190,13.678365,0,1,1,1032,2,-1551
1191,13.689923,0,2,1,1032,2,-1545
1192,13.701488,1,1,2,1032,2,-1547
1193,13.713034,0,1,1,1030,0,-1542
1194,13.724588,0,0,1,1034,-1,-1548
1195,13.736132,0,1,1,1034,-3,-1548
1196,13.74769,0,2,1,1033,-1,-1547
1197,13.759252,0,1,1,1036,-1,-1542
1198,13.770943,0,2,1,1033,0,-1552
1199,13.782634,0,1,1,1035,0,-1548
1200,13.794315,0,0,1,1034,-2,-1541
1201,13.806011,0,2,1,1035,0,-1546
1202,13.817692,0,1,1,1029,1,-1542
1203,13.829348,0,1,1,1035,-2,-1545
1204,13.841038,1,1,0,1033,0,-1547
1205,13.852704,0,0,0,1037,0,-1547
1206,13.864423,0,0,1,1036,0,-1549
1207,13.875982,0,0,1,1032,-1,-1544
1208,13.887528,1,2,1,1037,-3,-1544
1209,13.899099,0,2,0,1036,0,-1546
1210,13.910648,-1,1,1,1032,-1,-1549
1211,13.922232,0,1,1,1030,1,-1553
1212,13.933787,0,1,1,1037,1,-1546
1213,13.945364,0,1,1,1033,0,-1540
1214,13.956955,0,1,1,1031,1,-1546
1215,13.968525,0,1,1,1034,1,-1545
1216,13.98018,1,1,2,1034,0,-1544
1217,13.99185,0,2,1,1033,1,-1545
1218,14.003514,0,2,0,1034,1,-1548
1219,14.015177,0,1,1,1033,0,-1545
1220,14.026849,0,0,1,1036,3,-1545
1221,14.038499,-1,1,0,1031,1,-1549
1222,14.050187,0,1,2,1033,0,-1548
1223,14.06186,1,1,1,1030,0,-1544
1224,14.073549,0,2,1,1034,1,-1542
1225,14.085123,1,2,1,1032,6,-1546
1226,14.0967,1,2,1,1033,3,-1543
1227,14.10825,0,1,1,1032,0,-1545
1228,14.11983,0,2,1,1031,3,-1546
1229,14.131371,0,1,1,1034,1,-1546
1230,14.14291,0,2,1,1033,1,-1544
1231,14.154463,0,2,1,1031,4,-1544
1232,14.166012,0,1,1,1031,2,-1544
1233,14.17758,0,1,1,1030,4,-1537
1234,14.189224,1,2,1,1034,2,-1549
1235,14.200901,0,1,1,1033,1,-1551
1236,14.212558,0,1,1,1034,-3,-1541
1237,14.224201,0,1,1,1037,0,-1547
1238,14.235847,0,1,1,1034,-2,-1548
1239,14.247515,-1,1,1,1035,0,-1545
1240,14.259159,0,2,1,1036,2,-1544
1241,14.270807,0,2,1,1034,-3,-1548
1242,14.282472,1,1,1,1033,1,-1545
1243,14.294027,1,0,0,1035,2,-1545
1244,14.305603,1,1,0,1033,1,-1543
1245,14.31719,0,2,1,1034,3,-1544
1246,14.32874,0,1,1,1037,0,-1551
1247,14.340284,1,1,1,1036,0,-1552
1248,14.351849,1,1,2,1032,3,-1544
1249,14.363424,0,1,1,1030,-3,-1551
1250,14.374975,0,1,1,1036,1,-1542
1251,14.386554,0,0,1,1036,1,-1546
1252,14.398178,0,1,1,1032,0,-1549
1253,14.409857,-1,2,1,1034,0,-1552
1254,14.421548,0,0,1,1035,0,-1542
1255,14.433221,0,1,0,1031,-1,-1551
1256,14.444905,1,1,1,1033,0,-1549
1257,14.456563,0,1,1,1035,-4,-1548
1258,14.468237,0,1,1,1033,1,-1548
1259,14.479897,0,1,2,1033,1,-1549
1260,14.491569,0,1,1,1032,4,-1549
1261,14.503249,0,1,1,1032,-1,-1547
1262,14.514815,-1,0,1,1034,0,-1548
1263,14.526368,0,2,1,1032,0,-1546
1264,14.537952,0,1,1,1035,0,-1542
1265,14.549505,1,1,2,1034,0,-1541
1266,14.561083,0,1,1,1036,3,-1548
1267,14.572631,0,1,1,1034,0,-1546
1268,14.584202,0,2,1,1034,-1,-1552
1269,14.595763,0,0,1,1035,0,-1540
1270,14.607384,1,1,1,1036,-1,-1553
1271,14.619042,0,1,1,1032,2,-1547
1272,14.630689,0,2,1,1029,0,-1549
1273,14.642345,0,1,1,1032,0,-1548
1274,14.654012,0,2,1,1033,-5,-1546
1275,14.66568,0,1,0,1035,-1,-1537
1276,14.677332,0,2,1,1032,2,-1544
1277,14.689035,0,1,2,1036,4,-1547
1278,14.700695,0,1,1,1035,1,-1550
1279,14.712359,0,0,1,1039,3,-1545
1280,14.723956,0,2,1,1034,-2,-1551
1281,14.735521,0,2,2,1036,0,-1547
1282,14.747092,0,1,1,1030,-6,-1544
1283,14.758661,1,2,2,1034,-2,-1544
1284,14.770223,0,2,0,1032,0,-1548
1285,14.781779,0,1,1,1032,-1,-1548
1286,14.793353,0,1,2,1036,-5,-1544
1287,14.804913,0,1,1,1028,0,-1540
1288,14.81654,0,1,1,1031,1,-1548
1289,14.828197,-1,1,0,1033,3,-1547
1290,14.83986,1,1,1,1034,0,-1550
1291,14.85152,0,1,2,1028,2,-1542
1292,14.863178,0,2,2,1032,-1,-1545
1293,14.874829,0,1,1,1031,0,-1549
1294,14.886504,0,1,1,1034,1,-1550
1295,14.898209,1,1,2,1035,-4,-1543
1296,14.909895,0,1,1,1034,-1,-1548
1297,14.921576,1,0,1,1033,-2,-1547
1298,14.933145,0,1,1,1031,4,-1541
1299,14.944715,0,1,0,1034,0,-1548
1300,14.956259,0,1,1,1033,1,-1549
1301,14.967805,1,0,1,1036,0,-1545
1302,14.979355,0,2,1,1036,-2,-1545
1303,14.990906,0,2,1,1028,0,-1547
1304,15.002462,1,1,1,1036,0,-1558
1305,15.014068,0,1,0,1035,0,-1545
1306,15.025689,1,1,1,1032,-1,-1547
1307,15.037422,0,1,0,1033,-4,-1545
1308,15.04907,0,1,1,1031,0,-1542
1309,15.060789,0,0,0,1030,4,-1542
1310,15.072583,-1,1,2,1036,-1,-1548
1311,15.08425,0,2,1,1033,-1,-1550
1312,15.095956,0,1,1,1037,-1,-1549
1313,15.107642,0,2,1,1031,2,-1542
1314,15.11932,0,1,1,1037,2,-1540
1315,15.131052,0,1,1,1034,-3,-1543
1316,15.142619,0,1,1,1036,5,-1546
1317,15.1542,1,1,2,1035,-4,-1545
1318,15.165755,0,2,1,1034,0,-1551
1319,15.177315,0,1,0,1034,0,-1542
1320,15.188898,0,1,1,1034,-1,-1548
1321,15.200467,0,1,1,1033,0,-1546
1322,15.212065,1,2,1,1037,0,-1543
1323,15.223637,1,1,0,1033,2,-1553
1324,15.235262,0,1,0,1030,1,-1547
1325,15.246922,0,2,2,1035,1,-1551
1326,15.258575,1,1,2,1032,-1,-1546
1327,15.270197,0,1,1,1031,0,-1546
1328,15.281916,0,2,1,1034,0,-1548
1329,15.293561,0,1,1,1032,4,-1539
1330,15.305244,0,1,1,1035,2,-1542
1331,15.316898,0,1,0,1034,0,-1547
1332,15.328555,0,1,1,1033,1,-1546
1333,15.340214,0,1,2,1033,1,-1546
1334,15.351808,0,1,2,1036,0,-1554
1335,15.363366,0,1,1,1035,-2,-1542
1336,15.374911,0,1,2,1034,0,-1543
1337,15.386465,0,1,2,1031,-1,-1556
1338,15.398019,0,1,1,1032,0,-1549
1339,15.409572,0,1,1,1036,0,-1552
1340,15.421141,1,1,1,1034,0,-1545
1341,15.432709,0,1,1,1036,-2,-1555
1342,15.444361,1,1,1,1034,2,-1548
1343,15.456016,0,2,1,1033,0,-1546
1344,15.46769,0,2,1,1034,2,-1544
1345,15.479339,1,1,1,1032,-1,-1546
1346,15.491004,1,1,1,1030,0,-1552
1347,15.50269,0,1,1,1031,1,-1548
1348,15.514353,0,2,1,1034,2,-1546
1349,15.52601,-1,1,1,1035,0,-1549
1350,15.53769,0,1,1,1035,-1,-1542
1351,15.54939,0,2,1,1034,1,-1543
1352,15.560958,0,1,2,1033,2,-1544
1353,15.572503,0,1,2,1034,0,-1547
1354,15.584046,0,1,1,1028,5,-1546
1355,15.595595,1,1,1,1034,0,-1547
1356,15.607164,0,1,1,1032,2,-1548
1357,15.618716,-1,1,1,1033,-1,-1547
1358,15.630261,0,1,1,1032,0,-1543
1359,15.641829,0,1,1,1035,2,-1547
1360,15.653495,1,1,1,1031,-1,-1543
1361,15.665172,1,1,1,1033,0,-1551
1362,15.676894,1,0,1,1035,0,-1547
1363,15.688537,1,0,0,1033,-1,-1548
1364,15.700183,0,2,0,1030,3,-1550
1365,15.711851,0,2,1,1035,0,-1543
1366,15.723494,0,1,1,1031,0,-1542
1367,15.73514,-1,1,1,1033,-3,-1539
1368,15.746812,0,2,1,1031,0,-1542
1369,15.758479,1,1,1,1031,0,-1550
1370,15.770051,0,1,1,1030,0,-1545
1371,15.781625,1,1,1,1034,3,-1542
1372,15.7932,0,1,0,1034,0,-1547
1373,15.804754,0,1,0,1031,0,-1548
1374,15.816318,0,2,0,1028,2,-1546
1375,15.827893,1,1,1,1034,2,-1545
1376,15.839449,0,2,1,1033,0,-1550
1377,15.851007,0,1,1,1036,0,-1547
1378,15.862687,1,1,1,1032,1,-1545
1379,15.874383,0,1,1,1029,-4,-1550
1380,15.88608,0,1,1,1032,1,-1552
1381,15.897756,0,1,1,1030,0,-1546
1382,15.909429,0,1,1,1033,0,-1541
1383,15.92116,-1,1,1,1030,0,-1542
1384,15.932821,0,1,1,1030,-1,-1545
1385,15.944489,0,1,1,1033,2,-1551
1386,15.956143,-1,1,1,1029,0,-1542
1387,15.967696,0,1,1,1036,1,-1546
1388,15.979262,0,1,1,1034,1,-1549
1389,15.990833,1,1,2,1032,2,-1544
1390,16.002395,1,1,1,1032,0,-1551
1391,16.013944,1,1,1,1034,1,-1551
1392,16.025503,1,2,2,1035,0,-1549
1393,16.037057,0,1,1,1031,-1,-1553
1394,16.048609,0,1,1,1030,-1,-1543
1395,16.060231,0,1,2,1031,0,-1549
1396,16.071887,0,1,1,1029,0,-1549
1397,16.083553,0,0,1,1032,-1,-1548
1398,16.095234,1,1,2,1035,-2,-1547
1399,16.106886,0,2,0,1035,-3,-1549
1400,16.118529,0,1,1,1033,2,-1550
1401,16.130194,0,0,1,1032,3,-1549
1402,16.141917,0,2,1,1034,2,-1548
1403,16.153589,0,1,2,1032,-1,-1548
1404,16.16526,0,0,1,1034,-2,-1547
1405,16.176833,0,1,1,1034,-3,-1544
1406,16.188426,0,2,1,1034,1,-1547
1407,16.200005,0,2,1,1033,-2,-1547
1408,16.211567,0,1,1,1032,-1,-1543
1409,16.223115,0,1,1,1034,1,-1544
1410,16.234674,0,1,1,1035,0,-1545
1411,16.246248,0,0,0,1031,0,-1552
1412,16.257815,0,1,1,1034,0,-1545
1413,16.269512,0,1,1,1035,-1,-1549
1414,16.281174,0,2,1,1034,1,-1547
1415,16.292841,0,1,1,1034,1,-1544
1416,16.304493,-1,1,0,1030,1,-1546
1417,16.316145,0,2,2,1029,-1,-1544
1418,16.327807,1,1,1,1030,-1,-1546
1419,16.339475,0,2,1,1035,0,-1546
1420,16.351125,0,1,1,1031,-2,-1544
1421,16.362774,0,1,2,1035,0,-1549
1422,16.374357,0,1,1,1030,-2,-1542
1423,16.385916,1,1,1,1036,1,-1547
1424,16.397484,0,1,1,1033,2,-1546
1425,16.409036,0,1,1,1035,1,-1552
1426,16.420588,0,2,1,1035,0,-1545
1427,16.432172,0,1,1,1037,-2,-1542
1428,16.44372,1,1,1,1033,2,-1547
1429,16.455272,0,1,1,1037,0,-1546
1430,16.466838,-1,1,0,1037,0,-1545
1431,16.478472,1,2,1,1033,1,-1550
1432,16.490128,1,2,1,1031,1,-1550
1433,16.501828,0,1,1,1033,2,-1545
1434,16.513494,0,1,1,1037,4,-1550
1435,16.525166,0,0,1,1034,2,-1548
1436,16.536851,0,1,1,1031,-3,-1548
1437,16.548493,1,1,1,1035,-1,-1543
1438,16.560142,1,1,1,1037,-2,-1546
1439,16.571845,0,1,1,1032,-1,-1549
1440,16.583491,1,1,1,1035,0,-1554
1441,16.595057,0,1,2,1036,1,-1551
1442,16.606623,0,1,1,1035,0,-1551
1443,16.618208,0,1,2,1034,0,-1548
1444,16.629771,0,1,2,1032,0,-1549
1445,16.641321,0,2,1,1036,0,-1546
1446,16.652901,0,1,1,1034,0,-1547
1447,16.664464,0,1,1,1036,0,-1551
1448,16.676054,0,2,1,1031,2,-1545
1449,16.687679,1,1,1,1034,2,-1545
1450,16.69935,0,1,1,1029,1,-1545
1451,16.711012,0,1,0,1031,0,-1544
1452,16.722691,0,0,1,1034,-1,-1548
1453,16.734358,0,1,1,1032,2,-1542
1454,16.746017,0,1,1,1038,1,-1549
1455,16.757703,0,0,2,1030,1,-1552
1456,16.769369,0,1,2,1035,0,-1548
1457,16.781059,0,1,2,1036,1,-1548
1458,16.792732,0,1,2,1035,1,-1547
1459,16.804314,0,2,1,1033,3,-1549
1460,16.815873,1,1,1,1031,0,-1542
1461,16.827436,0,1,1,1036,0,-1551
1462,16.838985,0,1,1,1033,3,-1546
1463,16.850553,0,1,2,1033,0,-1542
1464,16.862101,-1,1,1,1035,-3,-1549
1465,16.87362,0,1,1,1028,0,-1548
1466,16.885191,1,2,1,1032,-2,-1549
1467,16.896757,0,1,1,1037,-1,-1545
1468,16.908306,0,2,1,1032,0,-1547
1469,16.919845,0,1,1,1035,2,-1544
1470,16.931401,0,1,1,1033,1,-1547
1471,16.942983,0,1,1,1037,1,-1541
1472,16.954531,0,1,1,1032,1,-1548
1473,16.966105,0,1,1,1035,3,-1547
1474,16.977694,1,0,1,1034,0,-1545
1475,16.989318,0,1,1,1033,0,-1547
1476,17.000988,0,1,1,1034,-1,-1545
1477,17.012648,0,2,1,1034,-1,-1546
1478,17.024327,0,1,1,1033,0,-1542
1479,17.035988,0,2,1,1035,0,-1549
1480,17.047635,0,1,1,1032,4,-1549
1481,17.059304,0,1,0,1033,-2,-1544
1482,17.070963,0,1,0,1030,0,-1552
1483,17.08263,0,1,1,1032,-2,-1548
1484,17.094342,0,1,0,1033,3,-1544
1485,17.106005,0,1,1,1038,2,-1544
1486,17.117678,1,2,1,1034,0,-1548
1487,17.129363,1,1,0,1033,2,-1552
1488,17.14105,0,1,1,1034,1,-1546
1489,17.152712,0,1,1,1035,3,-1556
1490,17.164371,1,1,1,1033,1,-1541
1491,17.176045,0,1,1,1031,0,-1544
1492,17.187781,0,1,1,1036,-1,-1552
1493,17.199471,1,1,1,1032,1,-1541
1494,17.211038,0,2,1,1034,2,-1548
1495,17.222589,0,1,0,1033,-1,-1546
1496,17.23412,0,2,2,1037,0,-1545
1497,17.245681,0,1,1,1034,-2,-1547
1498,17.257256,0,1,2,1034,0,-1546
1499,17.268802,1,2,1,1036,0,-1547
1500,17.28035,0,2,0,1030,1,-1543
1501,17.291907,0,2,1,1035,1,-1545
1502,17.303525,0,1,1,1037,0,-1547
1503,17.315219,1,1,1,1031,0,-1548
1504,17.326867,0,1,1,1036,0,-1549
1505,17.338518,0,1,1,1034,0,-1553
1506,17.350197,0,1,0,1032,1,-1546
1507,17.361862,1,2,0,1036,0,-1544
1508,17.373556,0,1,0,1030,-1,-1548
1509,17.385226,0,1,0,1027,0,-1547
1510,17.396902,1,2,1,1036,4,-1548
1511,17.408557,0,1,1,1034,0,-1548
1512,17.42014,0,1,2,1032,2,-1543
1513,17.431682,0,1,0,1031,-3,-1539
1514,17.443223,0,2,1,1030,-2,-1541
1515,17.454807,0,2,0,1035,1,-1541
1516,17.466358,0,1,0,1032,0,-1544
1517,17.477912,0,1,1,1033,0,-1543
1518,17.489499,0,0,0,1031,1,-1546
1519,17.501074,0,1,1,1032,1,-1551
1520,17.512713,0,1,1,1034,0,-1552
1521,17.524372,0,0,2,1034,0,-1545
1522,17.536016,1,1,2,1033,2,-1554
1523,17.547667,0,1,1,1033,1,-1544
1524,17.559353,0,1,2,1031,-1,-1549
1525,17.570993,-1,2,2,1033,-1,-1546
1526,17.58264,1,1,2,1031,-1,-1548
1527,17.59434,1,1,2,1035,-2,-1545
1528,17.606003,0,1,1,1034,4,-1542
1529,17.61767,1,1,2,1034,0,-1539
1530,17.629251,1,1,2,1033,0,-1552
1531,17.640803,0,1,1,1035,0,-1545
1532,17.65235,0,1,2,1029,0,-1539
1533,17.663902,0,1,1,1030,-2,-1545
1534,17.675449,0,2,1,1031,3,-1546
1535,17.687045,1,0,2,1032,-3,-1546
1536,17.698605,0,1,2,1033,-2,-1540
1537,17.71018,0,1,1,1035,0,-1546
1538,17.721855,0,1,1,1033,2,-1548
1539,17.733557,0,2,1,1034,0,-1551
1540,17.745229,-1,2,1,1033,0,-1548
1541,17.756892,0,2,0,1032,-2,-1552
1542,17.768562,0,2,1,1034,0,-1541
1543,17.780211,1,1,1,1035,-1,-1549
1544,17.79186,0,2,2,1033,-2,-1541
1545,17.803512,0,2,1,1032,0,-1554
1546,17.815167,0,1,1,1036,0,-1553
1547,17.826833,0,1,1,1020,2,-1546
1548,17.838485,0,2,1,1036,2,-1547
1549,17.850131,0,1,2,1031,0,-1543
1550,17.861802,1,1,1,1035,3,-1553
1551,17.873476,0,2,1,1034,-2,-1544
1552,17.885147,0,1,1,1034,0,-1555
1553,17.896795,0,2,1,1034,4,-1542
1554,17.908468,1,1,1,1032,1,-1551
1555,17.920192,0,2,1,1034,0,-1547
1556,17.931857,0,1,2,1034,0,-1543
1557,17.943415,0,1,1,1029,-2,-1548
1558,17.95495,1,1,1,1035,0,-1544
1559,17.966485,1,1,1,1036,2,-1545
1560,17.978043,0,1,0,1033,2,-1544
1561,17.989616,1,0,1,1032,1,-1551
1562,18.00114,0,1,1,1031,1,-1546
1563,18.012692,0,1,1,1032,-1,-1550
1564,18.024281,0,1,1,1032,0,-1554
1565,18.03591,0,1,1,1035,2,-1547
1566,18.047604,0,0,1,1034,0,-1550
1567,18.059284,0,0,0,1034,-3,-1552
1568,18.070962,0,1,1,1035,0,-1550
1569,18.08262,0,1,1,1033,-3,-1550
1570,18.094292,0,1,1,1037,-2,-1550
1571,18.105944,0,1,1,1038,1,-1545
1572,18.117612,1,2,1,1035,3,-1549
1573,18.129303,0,1,1,1035,-1,-1544
1574,18.140979,0,1,1,1034,1,-1545
1575,18.152543,0,0,1,1035,1,-1551
1576,18.16411,0,1,1,1033,0,-1554
1577,18.177703,0,1,1,1033,0,-1546
1578,18.189296,-1,2,2,1034,-1,-1545
1579,18.20084,0,2,1,1034,0,-1546
1580,18.21238,-1,1,1,1032,4,-1543
1581,18.223924,1,1,1,1034,0,-1547
1582,18.235489,0,1,1,1033,0,-1544
1583,18.247039,0,1,2,1030,2,-1548
1584,18.258608,1,2,2,1032,0,-1545
1585,18.270169,1,1,1,1034,-2,-1549
1586,18.281765,0,1,1,1035,0,-1547
1587,18.293313,0,1,1,1034,2,-1545
1588,18.304853,1,1,1,1035,0,-1548
1589,18.316406,1,1,1,1032,-4,-1542
1590,18.327951,1,1,1,1035,-1,-1549
1591,18.339577,0,1,1,1034,0,-1543
1592,18.351218,1,1,0,1029,0,-1547
1593,18.362892,0,2,1,1032,1,-1545
1594,18.374579,0,1,1,1034,-1,-1541
1595,18.386259,0,2,1,1034,-1,-1545
1596,18.397949,0,2,2,1030,0,-1542
1597,18.409601,1,1,1,1030,0,-1544
1598,18.421293,0,2,1,1032,0,-1547
1599,18.432987,0,1,1,1030,5,-1551
1600,18.444646,0,1,1,1033,1,-1548
1601,18.456301,1,1,1,1032,2,-1550
1602,18.467997,1,2,1,1032,1,-1546
1603,18.47967,0,1,1,1037,0,-1548
1604,18.491332,0,1,1,1033,0,-1543
1605,18.502984,0,1,1,1032,1,-1546
1606,18.514643,0,2,1,1032,0,-1539
1607,18.526333,1,2,1,1031,0,-1547
1608,18.537993,0,1,1,1034,-1,-1546
1609,18.549675,1,2,1,1033,-1,-1544
1610,18.561289,0,1,1,1032,0,-1548
1611,18.572843,0,0,1,1034,-7,-1546
1612,18.584399,1,2,1,1034,-1,-1540
1613,18.595938,0,1,1,1030,0,-1552
1614,18.607485,0,1,1,1028,0,-1549
1615,18.619032,0,1,1,1031,0,-1552
1616,18.63058,0,1,1,1032,0,-1549
1617,18.642104,0,1,1,1035,3,-1540
1618,18.653659,0,1,1,1033,0,-1544
1619,18.665338,0,1,1,1030,0,-1550
1620,18.676983,0,0,1,1032,0,-1543
1621,18.688634,0,1,1,1034,-3,-1551
1622,18.700302,0,1,2,1031,4,-1546
1623,18.711963,0,1,0,1033,0,-1547
1624,18.723612,0,1,1,1032,0,-1547
1625,18.735285,0,2,1,1036,2,-1549
1626,18.746952,0,1,1,1038,-1,-1548
1627,18.758605,0,1,2,1033,0,-1544
1628,18.770273,1,1,1,1035,0,-1548
1629,18.781937,0,1,1,1037,3,-1547
1630,18.793624,0,0,2,1034,5,-1547
1631,18.805302,0,2,1,1028,3,-1546
1632,18.816958,1,2,1,1034,-1,-1561
1633,18.828613,0,2,0,1037,1,-1550
1634,18.840304,1,1,0,1033,0,-1545
1635,18.851996,0,1,1,1033,1,-1549
1636,18.86365,0,1,1,1030,0,-1549
1637,18.875332,0,1,1,1028,0,-1548
1638,18.886973,-1,2,1,1031,0,-1549
1639,18.898623,0,2,1,1033,0,-1547
1640,18.910302,0,1,2,1033,4,-1544
1641,18.921941,0,2,1,1030,1,-1542
1642,18.933609,0,1,1,1031,0,-1546
1643,18.945299,0,0,1,1032,3,-1546
1644,18.957028,0,1,1,1031,0,-1548
1645,18.9687,1,1,1,1033,0,-1544
1646,18.980261,0,1,1,1036,1,-1543
1647,18.991818,0,1,1,1033,0,-1550
1648,19.003389,0,1,2,1033,2,-1544
1649,19.014945,0,1,1,1031,-2,-1551
1650,19.026541,0,1,1,1031,0,-1548
1651,19.038135,0,0,1,1036,3,-1547
1652,19.049686,0,1,0,1030,2,-1546
1653,19.061269,0,0,1,1030,0,-1554
1654,19.07291,0,1,1,1035,-2,-1540
1655,19.084571,1,1,1,1034,-1,-1553
1656,19.096224,0,1,1,1033,0,-1544
1657,19.107889,0,2,1,1033,1,-1547
1658,19.119546,0,1,2,1033,1,-1548
1659,19.131205,1,1,2,1032,0,-1548
1660,19.142859,0,1,1,1030,0,-1546
1661,19.1545,0,1,1,1033,2,-1543
1662,19.166229,0,1,2,1033,-1,-1542
1663,19.177888,0,0,1,1032,-1,-1554
1664,19.189452,0,1,1,1031,2,-1552
1665,19.201021,0,1,1,1035,2,-1553
1666,19.212605,0,1,1,1034,-3,-1543
1667,19.22416,0,1,1,1033,-3,-1549
1668,19.23573,0,1,1,1034,-2,-1550
1669,19.247277,0,1,1,1037,-1,-1551
1670,19.25882,1,1,1,1034,-1,-1547
1671,19.270379,0,1,0,1032,2,-1544
1672,19.282008,0,1,2,1030,-1,-1546
1673,19.293688,0,1,1,1032,0,-1549
1674,19.305343,0,1,2,1029,-4,-1546
1675,19.317033,-1,2,1,1029,3,-1547
1676,19.328687,1,2,0,1034,0,-1558
1677,19.34034,0,1,1,1032,0,-1547
1678,19.351998,0,1,1,1034,1,-1549
1679,19.363645,0,2,2,1032,0,-1550
1680,19.37532,0,2,1,1033,-3,-1546
1681,19.386979,0,1,1,1033,0,-1543
1682,19.398532,0,1,2,1035,0,-1546
1683,19.410112,0,0,1,1036,0,-1548
1684,19.421674,0,1,1,1034,0,-1550
1685,19.43327,1,1,1,1031,-1,-1549
1686,19.444825,1,1,1,1035,-1,-1547
1687,19.456389,0,1,2,1035,-2,-1548
1688,19.467947,0,1,1,1030,3,-1546
1689,19.479526,0,1,1,1031,1,-1548
1690,19.491221,1,1,1,1032,3,-1547
1691,19.502889,1,1,1,1037,-1,-1547
1692,19.514544,0,1,1,1035,-3,-1545
1693,19.526199,0,1,2,1034,0,-1552
1694,19.537904,1,1,1,1030,-2,-1544
1695,19.549574,1,1,1,1038,0,-1554
1696,19.561228,0,1,2,1033,-3,-1549
1697,19.572906,0,0,1,1035,0,-1549
1698,19.584585,0,1,1,1035,1,-1546
1699,19.59625,0,1,0,1031,3,-1545
1700,19.607816,0,2,1,1030,0,-1546
1701,19.619393,0,0,1,1028,0,-1552
1702,19.630947,0,1,1,1034,1,-1551
1703,19.642517,0,1,1,1033,3,-1551
1704,19.65409,0,1,1,1032,0,-1546
1705,19.665622,0,1,1,1034,0,-1545
1706,19.677142,0,0,2,1031,0,-1555
1707,19.688702,0,2,1,1033,0,-1549
1708,19.700321,0,1,1,1035,-2,-1544
1709,19.71198,0,0,0,1035,0,-1554
1710,19.723625,1,1,1,1034,0,-1544
1711,19.735275,1,1,1,1032,0,-1540
1712,19.746942,1,2,1,1037,0,-1545
1713,19.758588,0,1,1,1032,2,-1545
1714,19.770246,1,1,1,1032,1,-1549
1715,19.781937,0,1,1,1033,1,-1544
1716,19.793607,0,1,1,1033,0,-1545
1717,19.805273,0,1,1,1037,2,-1547
1718,19.816851,0,1,1,1032,-1,-1546
1719,19.828397,0,1,1,1027,1,-1544
1720,19.839947,1,1,2,1031,-1,-1549
1721,19.851497,0,1,1,1035,1,-1547
1722,19.863045,0,1,0,1033,3,-1547
1723,19.874594,0,0,1,1035,-1,-1543
1724,19.886147,0,0,1,1030,3,-1547
1725,19.897772,1,1,1,1033,2,-1545
1726,19.90948,0,2,2,1035,-1,-1551
1727,19.921166,0,1,1,1033,1,-1547
1728,19.932822,0,1,1,1032,-2,-1550
1729,19.944484,0,1,1,1031,2,-1551
1730,19.956196,1,1,2,1033,0,-1549
1731,19.967845,1,1,1,1033,1,-1554
1732,19.979495,0,2,1,1036,0,-1548
1733,19.991165,0,2,1,1034,-1,-1545
1734,20.00283,0,1,1,1032,0,-1547
1735,20.014485,0,1,1,1036,-2,-1551
1736,20.026184,0,0,2,1034,3,-1544
1737,20.037839,1,1,1,1033,0,-1541
1738,20.049499,0,1,1,1034,2,-1542
1739,20.061173,0,1,1,1031,0,-1549
1740,20.07282,0,2,1,1031,-1,-1553
1741,20.084469,0,1,1,1038,0,-1550
1742,20.096128,0,2,1,1030,1,-1546
1743,20.107821,0,1,1,1033,0,-1544
1744,20.119475,0,1,1,1033,2,-1547
1745,20.131142,1,1,2,1037,-4,-1552
1746,20.142804,0,1,2,1036,-1,-1554
1747,20.154453,0,1,1,1033,-2,-1548
1748,20.166111,0,1,0,1029,3,-1546
1749,20.177798,0,1,1,1031,0,-1544
1750,20.189425,0,1,1,1032,-2,-1538
1751,20.20108,0,2,1,1032,1,-1549
1752,20.212804,0,1,0,1034,0,-1545
1753,20.224463,0,1,1,1033,-2,-1546
1754,20.236024,0,1,1,1029,-2,-1549
1755,20.247597,1,1,1,1034,3,-1547
1756,20.25915,1,1,1,1035,0,-1549
1757,20.270744,1,0,1,1032,0,-1547
1758,20.282371,0,1,1,1032,0,-1541
1759,20.293921,0,0,1,1031,-1,-1540
1760,20.30549,0,0,2,1031,0,-1547
1761,20.317057,0,1,1,1034,0,-1545
1762,20.328702,0,1,1,1034,-1,-1551
1763,20.340361,1,1,1,1030,2,-1548
1764,20.352044,0,1,1,1030,1,-1553
1765,20.363696,0,1,0,1033,-1,-1548
1766,20.375353,0,1,1,1032,2,-1539
1767,20.387053,0,0,1,1039,1,-1551
1768,20.398704,0,1,1,1033,1,-1540
1769,20.410381,0,1,0,1033,0,-1547
1770,20.422084,0,2,1,1037,0,-1545
1771,20.43374,0,1,0,1032,2,-1551
1772,20.445299,0,1,1,1034,0,-1541
1773,20.456885,0,1,1,1036,2,-1551
1774,20.468433,1,2,1,1029,0,-1547
1775,20.479978,1,1,1,1036,-1,-1543
1776,20.491529,0,1,1,1030,0,-1545
1777,20.503096,1,1,1,1039,1,-1545
1778,20.514649,1,1,2,1035,0,-1550
1779,20.526259,1,1,1,1036,2,-1543
1780,20.537922,0,2,1,1034,-2,-1545
1781,20.549594,0,1,1,1033,1,-1547
1782,20.561242,0,1,1,1032,0,-1547
1783,20.572918,0,1,1,1029,-2,-1550
1784,20.584574,0,1,1,1035,-2,-1553
1785,20.596221,1,1,1,1032,1,-1543
1786,20.607875,-1,1,1,1036,4,-1546
1787,20.619566,0,2,1,1034,1,-1546
1788,20.631227,0,1,1,1031,0,-1544
1789,20.642914,0,0,1,1034,0,-1543
1790,20.65451,0,1,2,1029,1,-1543
1791,20.666082,0,2,2,1032,2,-1547
1792,20.677621,1,1,1,1036,1,-1548
1793,20.68914,0,2,2,1035,2,-1548
1794,20.700706,0,1,1,1032,1,-1548
1795,20.712255,1,1,1,1032,0,-1550
1796,20.723799,0,1,1,1034,1,-1544
1797,20.73537,0,0,0,1034,0,-1543
1798,20.74699,0,1,0,1028,2,-1549
1799,20.75865,0,0,1,1037,4,-1542
1800,20.770326,0,1,0,1031,-1,-1548
1801,20.782013,1,1,1,1030,0,-1544
1802,20.793687,1,1,1,1034,0,-1553
1803,20.805346,0,1,1,1031,-1,-1544
1804,20.817048,1,1,1,1034,1,-1550
1805,20.828736,1,1,1,1035,0,-1545
1806,20.840431,0,1,1,1033,2,-1546
1807,20.852134,0,2,1,1032,0,-1546
1808,20.86375,0,2,1,1031,0,-1554
1809,20.875309,0,1,1,1031,2,-1547
1810,20.886876,0,1,1,1034,3,-1549
1811,20.898422,0,1,1,1031,5,-1555
1812,20.909988,0,1,1,1034,1,-1548
1813,20.921541,0,1,1,1038,0,-1544
1814,20.933137,1,1,1,1032,4,-1544
1815,20.944729,1,1,1,1033,-2,-1550
1816,20.956353,0,0,1,1030,0,-1549
1817,20.968039,0,1,1,1031,0,-1547
1818,20.979771,0,1,1,1032,-2,-1550
1819,20.991421,0,1,1,1037,0,-1545
1820,21.003072,0,2,1,1033,2,-1545
1821,21.014734,0,1,2,1032,0,-1547
1822,21.026449,0,0,1,1034,0,-1549
1823,21.038096,0,0,1,1032,0,-1546
1824,21.04979,0,0,2,1032,-1,-1552
1825,21.061414,0,0,1,1036,0,-1549
1826,21.073042,0,0,0,1034,1,-1545
1827,21.084619,0,1,1,1030,-1,-1544
1828,21.096166,1,1,1,1033,0,-1540
1829,21.107715,1,1,2,1032,5,-1546
1830,21.119264,1,2,1,1033,2,-1543
1831,21.13082,1,1,1,1033,-1,-1546
1832,21.142385,0,2,1,1030,2,-1545
1833,21.154006,0,1,0,1032,1,-1544
1834,21.165708,0,1,1,1032,2,-1550
1835,21.177392,0,1,1,1037,0,-1549
1836,21.189056,0,0,1,1033,2,-1554
1837,21.200709,0,1,0,1031,3,-1548
1838,21.212371,0,2,1,1033,-3,-1544
1839,21.224025,0,1,1,1030,-2,-1547
1840,21.235672,0,1,1,1036,3,-1546
1841,21.247328,1,0,1,1031,0,-1544
1842,21.25901,1,1,2,1028,0,-1545
1843,21.270671,0,2,1,1035,0,-1542
1844,21.282248,1,1,1,1031,0,-1546
1845,21.29385,0,2,0,1032,0,-1544
1846,21.305387,1,2,1,1032,0,-1541
1847,21.317013,0,2,1,1032,0,-1546
1848,21.328587,0,1,2,1029,1,-1544
1849,21.340132,0,1,1,1033,0,-1544
1850,21.351683,0,1,0,1031,-1,-1554
1851,21.363252,0,1,1,1032,3,-1542
1852,21.374896,0,1,1,1035,0,-1548
1853,21.38655,0,1,1,1034,-1,-1547
1854,21.398258,0,0,1,1033,-1,-1548
1855,21.409933,0,2,2,1035,0,-1543
1856,21.42159,0,1,1,1034,0,-1548
1857,21.433315,1,1,0,1037,-1,-1546
1858,21.44497,0,1,1,1032,1,-1549
1859,21.45665,1,1,1,1035,2,-1552
1860,21.46832,0,1,1,1035,0,-1551
1861,21.479977,0,0,1,1030,3,-1548
1862,21.491544,0,1,1,1034,-1,-1549
1863,21.503116,-1,1,1,1035,0,-1548
1864,21.51466,0,1,1,1033,-1,-1551
1865,21.526235,0,2,1,1030,-1,-1553
1866,21.537795,1,1,1,1031,2,-1546
1867,21.549375,0,1,1,1031,1,-1549
1868,21.560976,0,1,2,1038,-3,-1549
1869,21.572543,1,1,1,1031,5,-1550
1870,21.584169,0,0,1,1032,-3,-1547
1871,21.595829,0,1,1,1031,0,-1549
1872,21.607471,0,0,0,1034,-2,-1543
1873,21.61915,1,1,1,1036,2,-1551
1874,21.630803,1,1,2,1032,-2,-1543
1875,21.642448,1,1,1,1032,1,-1548
1876,21.654106,0,2,1,1034,0,-1543
1877,21.66581,0,1,2,1033,1,-1547
1878,21.677473,1,0,1,1037,0,-1547
1879,21.68915,0,0,1,1035,1,-1544
1880,21.700753,0,1,1,1034,1,-1547
1881,21.71232,0,1,0,1033,0,-1548
1882,21.723864,0,1,1,1036,0,-1542
1883,21.735413,0,1,1,1030,1,-1547
1884,21.746994,0,2,1,1032,-2,-1545
1885,21.758573,1,2,2,1031,0,-1545
1886,21.770112,0,1,2,1037,0,-1547
1887,21.781632,1,1,2,1032,-3,-1538
1888,21.793332,0,1,1,1039,2,-1548
1889,21.805009,0,1,1,1035,-2,-1548
1890,21.816667,0,0,2,1033,0,-1549
1891,21.828324,0,1,2,1033,0,-1548
1892,21.839969,1,1,1,1033,0,-1547
1893,21.851639,0,1,1,1037,0,-1549
1894,21.8633,-1,1,1,1037,0,-1542
1895,21.874941,0,1,1,1031,0,-1555
1896,21.8866,0,2,0,1033,0,-1547
1897,21.898284,0,1,1,1033,1,-1538
1898,21.909861,0,1,1,1034,0,-1541
1899,21.921379,0,1,1,1035,1,-1547
1900,21.932897,0,1,1,1032,-2,-1545
1901,21.944436,0,1,1,1029,2,-1548
1902,21.955982,1,1,1,1034,1,-1545
1903,21.967528,0,2,1,1031,0,-1542
1904,21.979092,1,1,2,1036,-1,-1549
1905,21.990655,0,1,2,1034,4,-1543
1906,22.002433,1,2,2,1033,0,-1552
1907,22.014125,1,1,1,1034,2,-1547
1908,22.025812,0,0,0,1036,2,-1550
1909,22.037498,0,2,1,1033,0,-1547
1910,22.049169,0,1,1,1033,-1,-1542
1911,22.060823,0,1,0,1034,1,-1546
1912,22.072515,1,0,1,1033,3,-1548
1913,22.084163,0,2,0,1034,3,-1546
1914,22.095829,0,1,1,1033,3,-1543
1915,22.107513,0,1,1,1033,-1,-1544
1916,22.119104,1,1,1,1032,0,-1548
1917,22.130674,1,1,1,1031,0,-1549
1918,22.142239,0,1,1,1037,-2,-1552
1919,22.153807,1,1,1,1036,0,-1551
1920,22.165382,0,1,2,1031,2,-1545
1921,22.177002,0,1,1,1034,0,-1544
1922,22.188583,0,0,0,1033,0,-1546
1923,22.20014,0,1,1,1035,1,-1544
1924,22.211771,0,1,1,1031,0,-1546
1925,22.223415,0,2,1,1033,-2,-1547
1926,22.235064,0,1,1,1037,-1,-1544
1927,22.246745,0,1,1,1035,3,-1545
1928,22.258422,0,1,0,1034,1,-1546
1929,22.270096,0,0,1,1030,-3,-1545
1930,22.281759,1,2,1,1035,0,-1544
1931,22.293427,0,1,1,1027,-1,-1546
1932,22.305108,0,1,1,1033,0,-1547
1933,22.31676,0,1,2,1033,2,-1548
1934,22.32832,0,1,1,1031,0,-1547
1935,22.339881,0,1,1,1034,-1,-1546
1936,22.351479,0,0,1,1031,2,-1549
1937,22.363035,0,1,0,1030,2,-1552
1938,22.374606,0,0,1,1032,-5,-1545
1939,22.386159,0,1,0,1035,0,-1540
1940,22.397742,0,1,1,1035,0,-1541
1941,22.409331,0,1,0,1030,2,-1544
1942,22.420979,1,1,2,1032,1,-1546
1943,22.432644,-1,1,1,1033,0,-1549
1944,22.444302,1,1,1,1031,1,-1545
1945,22.455944,1,1,1,1033,0,-1547
1946,22.467595,1,1,2,1035,2,-1547
1947,22.479282,0,1,1,1033,1,-1554
1948,22.490938,0,1,1,1032,4,-1556
1949,22.502625,0,1,1,1032,-2,-1555
1950,22.514332,0,2,1,1033,1,-1546
1951,22.525997,0,2,0,1035,-1,-1557
1952,22.537563,0,1,1,1035,0,-1551
1953,22.549157,1,1,1,1031,2,-1545
1954,22.560714,0,1,2,1033,-1,-1551
1955,22.572266,1,1,1,1032,0,-1548
1956,22.583841,0,1,1,1035,0,-1546
1957,22.595391,0,1,1,1035,1,-1553
1958,22.606966,1,2,1,1032,0,-1550
1959,22.618521,0,1,1,1032,-1,-1546
1960,22.630225,0,1,1,1031,-1,-1549
1961,22.641919,0,2,1,1034,0,-1548
1962,22.653584,1,2,1,1028,0,-1550
1963,22.665338,0,1,2,1032,2,-1547
1964,22.677046,0,1,1,1033,2,-1542
1965,22.688689,0,1,1,1034,1,-1546
1966,22.700336,0,1,1,1032,-5,-1544
1967,22.711983,0,1,1,1032,-5,-1548
1968,22.723673,0,2,2,1033,0,-1550
1969,22.735367,0,1,2,1034,0,-1547
1970,22.746922,0,1,1,1036,-2,-1538
1971,22.758478,1,1,1,1032,1,-1549
1972,22.770033,0,0,0,1032,1,-1547
1973,22.781631,0,1,1,1034,0,-1548
1974,22.793298,0,1,0,1033,0,-1550
1975,22.804898,1,2,1,1033,0,-1546
1976,22.816456,0,2,1,1035,1,-1545
1977,22.828102,0,2,1,1038,0,-1545
1978,22.839791,1,1,0,1035,0,-1548
1979,22.851465,0,1,1,1034,0,-1544
1980,22.863149,0,1,1,1037,0,-1546
1981,22.874879,0,1,1,1034,-2,-1544
1982,22.886539,1,1,2,1034,0,-1550
1983,22.898216,0,1,1,1036,0,-1552
1984,22.909931,0,1,2,1034,0,-1541
1985,22.921605,0,2,1,1037,5,-1545
1986,22.933306,0,1,1,1033,0,-1545
1987,22.945023,0,2,1,1031,0,-1543
1988,22.956601,0,1,1,1034,-2,-1551
1989,22.968148,0,2,2,1036,2,-1547
1990,22.979703,0,1,1,1033,2,-1548
1991,22.991254,0,1,1,1032,-1,-1547
1992,23.002823,0,1,1,1036,-6,-1542
1993,23.014379,0,1,1,1032,0,-1544
1994,23.026044,0,1,1,1033,0,-1547
1995,23.037633,0,1,1,1033,6,-1547
1996,23.049293,0,1,1,1033,-5,-1550
1997,23.060957,1,1,0,1033,-2,-1551
1998,23.072617,0,1,1,1032,0,-1544
1999,23.084273,0,1,1,1033,4,-1547
