sample,t_s,gyro_x,gyro_y,gyro_z,accel_x,accel_y,accel_z
0,1.1e-05,-4,10,2,0,47,-1025
1,0.01147,6,9,6,-1,48,-1007
2,0.022681,-1,9,10,-2,45,-1015
3,0.033881,1,11,8,-2,52,-1020
4,0.045064,0,8,8,1,45,-1014
5,0.056258,2,5,9,1,50,-1013
6,0.067455,4,4,8,3,52,-1019
7,0.078653,-2,3,7,0,50,-1012
8,0.089862,1,5,8,3,55,-1024
9,0.101124,0,6,8,3,49,-1018
10,0.11232,1,5,11,0,52,-1027
11,0.12351,7,4,7,-1,53,-1015
12,0.134699,0,6,7,-5,49,-1016
13,0.145885,0,8,9,-8,51,-1020
14,0.157057,4,5,7,-4,47,-1008
15,0.16824,0,6,9,-4,48,-1021
16,0.179422,3,7,9,-2,52,-1025
17,0.190607,5,9,8,-2,47,-1021
18,0.201789,-1,1,11,2,48,-1019
19,0.21298,3,5,7,-2,48,-1015
20,0.224162,1,5,8,0,54,-1019
21,0.235345,3,7,8,-3,50,-1016
22,0.246527,6,3,10,0,51,-1015
23,0.257733,2,5,8,-1,49,-1024
24,0.268919,3,8,7,-1,48,-1024
25,0.280101,4,3,9,0,50,-1018
26,0.291282,2,8,7,-3,50,-1027
27,0.302464,0,2,9,-4,51,-1021
28,0.313646,2,6,8,1,56,-1022
29,0.324836,2,3,9,-3,50,-1017
30,0.336018,1,4,9,2,51,-1023
31,0.347207,3,3,7,0,48,-1019
32,0.358394,3,7,9,-4,51,-1022
33,0.369586,1,3,9,-3,50,-1022
34,0.380774,3,5,10,-2,50,-1025
35,0.391953,1,1,7,0,51,-1025
36,0.403153,1,1,11,0,45,-1018
37,0.414336,0,-1,8,6,50,-1025
38,0.425537,5,4,10,0,46,-1014
39,0.436685,0,6,8,0,51,-1027
40,0.447871,3,4,7,-3,55,-1025
41,0.459054,4,6,7,-8,51,-1023
42,0.470236,1,6,8,-3,48,-1022
43,0.481425,2,2,10,-3,51,-1026
44,0.492612,1,6,8,-2,53,-1015
45,0.503794,0,7,10,3,49,-1020
46,0.514974,1,3,8,-1,48,-1020
47,0.526157,1,4,9,-1,54,-1017
48,0.53735,2,4,8,-1,48,-1025
49,0.548499,3,3,7,-4,54,-1031
50,0.559684,4,4,8,-7,47,-1021
51,0.570868,5,4,10,-6,53,-1036
52,0.582047,4,4,8,-2,52,-1040
53,0.593241,5,7,9,-8,48,-1030
54,0.604422,1,4,6,-5,48,-1020
55,0.615605,0,5,9,-5,51,-1028
56,0.626786,6,8,7,-11,51,-1029
57,0.637969,3,3,8,-2,54,-1018
58,0.649166,1,7,10,-2,50,-1027
59,0.660347,3,5,9,-2,53,-1010
60,0.671529,2,4,8,-2,55,-1024
61,0.682714,2,5,7,-3,51,-1021
62,0.693897,3,5,9,-4,51,-1022
63,0.705052,4,8,9,-4,53,-1023
64,0.716237,1,7,8,0,50,-1018
65,0.727421,3,7,7,-1,49,-1021
66,0.738601,2,6,9,4,51,-1017
67,0.749781,1,5,9,5,48,-1018
68,0.760991,2,7,9,4,49,-1017
69,0.772178,1,6,9,0,53,-1021
70,0.783359,4,8,7,-3,50,-1027
71,0.794539,2,4,8,0,48,-1022
72,0.80572,2,5,9,-3,49,-1018
73,0.81687,3,4,8,-5,47,-1014
74,0.828053,2,7,7,-5,48,-1028
75,0.839238,0,4,11,-5,52,-1022
76,0.850433,2,5,8,-7,49,-1024
77,0.861627,3,4,7,-2,50,-1023
78,0.872819,2,6,9,-4,51,-1022
79,0.884007,2,6,8,-2,53,-1022
80,0.895202,4,9,9,-3,53,-1026
81,0.906388,2,6,9,-6,54,-1024
82,0.917579,3,6,8,-4,50,-1016
83,0.928776,3,6,10,-3,55,-1023
84,0.939958,3,4,6,-1,53,-1022
85,0.95114,5,7,9,0,55,-1022
86,0.962326,1,7,10,-8,51,-1020
87,0.973514,3,8,9,-5,50,-1020
88,0.984685,3,5,9,-4,51,-1023
89,0.995868,4,5,10,-2,48,-1017
90,1.007051,4,6,7,-2,52,-1022
91,1.018233,2,6,8,-1,49,-1020
92,1.029425,2,7,8,0,51,-1027
93,1.04067,3,5,9,-3,47,-1021
94,1.051868,0,3,8,-4,51,-1023
95,1.063062,3,7,9,-5,48,-1019
96,1.074256,3,5,9,-3,50,-1021
97,1.085425,3,6,8,-6,52,-1021
98,1.096613,3,7,9,-3,50,-1021
99,1.1078,3,2,8,-5,51,-1028
100,1.119003,3,5,10,0,51,-1018
101,1.130188,2,8,8,-3,54,-1020
102,1.141375,3,6,7,-4,51,-1019
103,1.152562,3,5,10,-8,53,-1024
104,1.16375,2,5,10,-4,51,-1028
105,1.174934,4,7,9,-5,50,-1016
106,1.186121,2,4,11,-2,49,-1023
107,1.197309,2,3,10,-3,51,-1020
108,1.208499,5,6,9,-4,47,-1024
109,1.219687,2,8,10,0,50,-1023
110,1.230884,4,7,9,0,53,-1018
111,1.24209,2,7,10,0,48,-1022
112,1.253244,3,6,8,-6,52,-1023
113,1.264431,4,10,10,-6,50,-1022
114,1.27562,2,7,11,-4,49,-1023
115,1.286806,2,7,10,-3,51,-1025
116,1.29799,3,7,12,-1,53,-1020
117,1.309181,3,5,7,0,50,-1020
118,1.320367,0,8,10,-4,51,-1018
119,1.331551,3,6,8,-3,45,-1024
120,1.342735,1,4,9,-2,50,-1023
121,1.353916,-3,9,8,-4,56,-998
122,1.365101,8,3,9,-3,49,-1025
123,1.376286,0,5,6,1,55,-1050
124,1.38747,1,7,10,0,42,-997
125,1.398653,0,5,7,-2,52,-1033
126,1.409835,7,7,7,-2,54,-1028
127,1.42102,3,5,9,-6,46,-1003
128,1.432201,7,7,9,0,52,-1016
129,1.443386,0,7,11,-2,47,-1010
130,1.454569,0,1,7,2,56,-1019
131,1.465751,6,0,8,3,49,-1020
132,1.476967,2,8,10,-3,42,-1031
133,1.488148,7,9,7,-12,58,-1028
134,1.499331,7,2,9,-20,53,-1029
135,1.510515,-3,3,8,-14,56,-1051
136,1.521697,9,9,9,-4,55,-1037
137,1.532873,10,4,11,0,40,-1005
138,1.544059,5,5,7,5,56,-1054
139,1.555243,9,8,11,-4,43,-1008
140,1.566429,0,11,8,-9,44,-997
141,1.577627,-3,5,9,-16,54,-1009
142,1.588819,8,0,11,0,43,-1017
143,1.600004,-5,10,10,6,46,-1007
144,1.611198,6,1,8,10,53,-1030
145,1.622382,4,9,9,7,48,-1020
146,1.633573,-3,3,6,0,46,-1005
147,1.644762,-5,5,10,-6,39,-969
148,1.655946,-3,8,10,0,55,-1017
149,1.667135,16,0,6,1,48,-1025
150,1.678321,-4,8,9,-5,45,-1025
151,1.689507,-3,11,10,0,54,-993
152,1.700693,2,10,9,-7,45,-1021
153,1.711878,0,8,9,-5,50,-1023
154,1.723071,0,8,7,-7,52,-1006
155,1.734254,6,5,8,-5,49,-1019
156,1.745427,-2,3,10,0,49,-1019
157,1.756616,12,8,8,-10,57,-1030
158,1.7678,-3,6,8,-2,44,-992
159,1.778982,5,4,9,0,59,-1052
160,1.790167,5,9,10,-1,50,-1019
161,1.801359,0,2,12,1,55,-1033
162,1.812545,9,8,8,-1,48,-1037
163,1.823728,0,6,10,-5,41,-1002
164,1.83492,0,5,10,-1,57,-1033
165,1.846102,7,6,9,0,52,-1032
166,1.857286,1,6,6,0,55,-1020
167,1.868467,9,2,8,0,55,-1034
168,1.879649,0,7,8,-6,44,-1025
169,1.890833,4,-1,9,-9,62,-1070
170,1.902015,3,6,7,-2,46,-946
171,1.913201,8,6,6,1,48,-1024
172,1.924387,0,9,9,-1,49,-1015
173,1.935571,0,4,8,-5,49,-1006
174,1.946755,6,5,6,-8,53,-1046
175,1.957941,2,11,7,-10,55,-1039
176,1.969129,-2,8,10,-4,55,-1024
177,1.980313,13,3,9,-5,57,-1048
178,1.991501,-1,7,10,0,41,-1024
179,2.002686,0,7,9,2,51,-1026
180,2.013872,5,2,7,-10,45,-1003
181,2.025061,-1,8,7,-13,55,-1040
182,2.036247,6,6,9,-9,53,-1010
183,2.047434,9,6,8,-3,45,-1034
184,2.058634,0,8,9,0,47,-1040
185,2.069818,4,11,9,6,51,-1031
186,2.081012,11,5,7,8,55,-1048
187,2.092194,0,10,9,-4,45,-1015
188,2.103385,-2,5,10,-2,54,-996
189,2.114573,9,0,8,0,60,-1057
190,2.125758,2,8,7,-5,56,-1025
191,2.136947,6,8,7,-8,47,-1012
192,2.148129,0,2,8,2,46,-1002
193,2.159312,2,2,12,-2,46,-1019
194,2.170494,-6,6,8,1,44,-1004
195,2.18168,12,4,8,-2,48,-1006
196,2.1929,-4,5,7,0,46,-1025
197,2.204081,1,9,7,-7,56,-1028
198,2.215276,9,7,8,-9,53,-1018
199,2.226454,-1,0,7,-1,57,-1022
200,2.237636,3,11,9,-7,52,-1007
201,2.248829,1,6,10,-2,49,-990
202,2.26001,1,6,9,4,51,-1020
203,2.27119,1,7,6,7,52,-1030
204,2.282376,4,7,8,-7,50,-1013
205,2.293559,3,4,8,-13,49,-1025
206,2.304748,2,8,8,-9,58,-1032
207,2.315936,7,7,9,-8,51,-1025
208,2.327119,0,2,9,-2,47,-1013
209,2.338304,-6,4,8,15,47,-945
210,2.349491,3,5,7,14,58,-1025
211,2.36068,-9,10,6,0,34,-944
212,2.371864,0,6,10,-9,66,-1050
213,2.383059,12,2,9,-12,48,-1005
214,2.394246,-4,9,10,1,51,-1006
215,2.405431,14,3,8,0,53,-1038
216,2.416621,-2,7,7,1,39,-1001
217,2.427808,-1,8,8,-3,54,-1023
218,2.438993,7,1,9,0,53,-990
219,2.450176,0,7,7,1,61,-1044
220,2.461371,11,2,10,0,49,-1011
221,2.472562,0,8,9,0,49,-1013
222,2.483746,-5,4,8,9,53,-982
223,2.494936,9,7,8,-11,42,-984
224,2.506119,-9,4,9,-12,51,-1016
225,2.517307,7,2,10,0,53,-1028
226,2.528501,12,8,6,-1,47,-1044
227,2.539683,-4,12,8,0,39,-984
228,2.550879,2,4,8,3,48,-1030
229,2.562061,0,12,9,-9,48,-1026
230,2.573241,0,8,8,-15,56,-1006
231,2.584423,6,4,6,-17,61,-1042
232,2.595608,4,5,8,-3,52,-1024
233,2.606791,4,6,8,6,52,-1020
234,2.617973,3,1,8,4,52,-1033
235,2.629163,0,8,9,-7,48,-1011
236,2.640345,1,7,6,-11,57,-1027
237,2.651527,6,7,9,-12,54,-1008
238,2.66271,1,8,9,-5,51,-1019
239,2.673889,4,6,10,7,49,-1019
240,2.68507,1,6,8,6,47,-1022
241,2.696253,2,8,7,2,50,-1013
242,2.707436,1,2,7,-4,51,-1016
243,2.718621,3,7,8,-4,48,-1022
244,2.729808,5,4,9,-7,50,-1024
245,2.740999,2,7,11,-2,49,-1021
246,2.752182,1,8,7,-3,46,-1022
247,2.763368,2,9,9,-5,51,-1022
248,2.774551,3,7,10,-6,52,-1026
249,2.785738,5,7,9,-5,50,-1019
250,2.796929,-1,9,8,-6,50,-1024
251,2.808124,3,5,4,-2,52,-1029
252,2.81931,0,6,9,0,52,-1012
253,2.830491,2,7,9,-5,58,-1026
254,2.841675,5,6,10,-8,53,-1021
255,2.852871,4,7,7,-5,53,-1020
256,2.864052,1,6,7,-8,53,-1024
257,2.875238,2,3,7,4,46,-1013
258,2.886425,-3,6,7,0,54,-1014
259,2.897613,5,4,7,8,44,-1018
260,2.908816,-6,10,8,-3,46,-986
261,2.92,7,8,9,0,48,-1004
262,2.931191,0,7,8,-3,53,-1029
263,2.94238,5,6,9,0,54,-1011
264,2.953566,3,4,9,-4,51,-1019
265,2.964752,-1,8,8,-1,52,-1027
266,2.975933,7,12,8,-4,51,-1015
267,2.98712,1,6,9,-3,56,-1029
268,2.998306,3,8,8,-2,48,-1020
269,3.009493,5,6,8,-3,50,-1017
270,3.020693,0,4,10,1,49,-1018
271,3.031874,-3,11,10,0,43,-995
272,3.043058,4,3,9,-2,58,-1044
273,3.054243,6,5,10,-2,42,-1009
274,3.065432,-2,4,9,-7,48,-1025
275,3.076617,4,7,10,-4,56,-1015
276,3.087802,-3,6,6,-9,49,-1018
277,3.09899,3,7,10,-3,57,-1022
278,3.110182,5,7,9,-2,49,-1019
279,3.121387,0,10,10,1,50,-1021
280,3.132625,1,7,6,1,49,-1024
281,3.143813,2,7,9,2,45,-1015
282,3.154998,2,0,8,2,46,-1030
283,3.166183,0,8,9,4,50,-994
284,3.177372,8,6,7,-8,49,-1043
285,3.188559,-3,17,10,-10,56,-1035
286,3.199743,5,2,7,0,43,-1016
287,3.210931,-2,10,9,-1,54,-1029
288,3.222114,6,7,7,-8,55,-1020
289,3.233305,5,4,9,-2,49,-1023
290,3.244537,5,8,10,-8,49,-999
291,3.255869,2,5,7,-3,52,-1019
292,3.267075,1,5,9,6,52,-1029
293,3.278272,3,4,10,-4,51,-1036
294,3.289436,2,3,9,-5,46,-1011
295,3.300627,3,5,8,-8,48,-1031
296,3.311811,5,8,11,-7,47,-1016
297,3.322995,1,7,7,-2,45,-1010
298,3.33418,3,5,7,1,49,-1021
299,3.345368,1,2,8,8,51,-981
300,3.356557,8,9,9,1,51,-1033
301,3.367743,0,10,9,-10,44,-1000
302,3.37893,5,3,8,-6,57,-1031
303,3.390115,4,3,8,3,43,-1022
304,3.401303,0,2,9,-2,49,-977
305,3.412499,6,0,7,4,45,-1031
306,3.423685,-2,10,8,-8,52,-1009
307,3.43487,7,6,8,-8,60,-1033
308,3.446053,6,5,8,0,42,-1006
309,3.457261,0,9,8,-3,49,-1003
310,3.468443,7,3,9,-13,48,-1020
311,3.479625,6,9,8,2,50,-1077
312,3.490811,6,2,10,-14,49,-982
313,3.501993,-1,4,9,-6,53,-1049
314,3.513185,-2,9,9,0,38,-1005
315,3.524368,0,3,8,-6,56,-1003
316,3.535555,14,4,10,-3,59,-1069
317,3.546743,1,10,9,-11,39,-965
318,3.557926,1,7,6,-8,54,-1011
319,3.569115,4,6,8,0,45,-1027
320,3.580301,1,7,8,4,49,-1026
321,3.591485,5,2,9,2,57,-1020
322,3.602675,1,2,6,5,53,-1002
323,3.613883,5,5,6,-11,60,-1035
324,3.625062,0,7,6,-10,53,-1004
325,3.636245,5,2,8,-7,55,-1019
326,3.647428,4,6,10,-5,52,-1042
327,3.658612,0,9,9,-4,43,-1011
328,3.669799,6,8,6,-4,43,-1031
329,3.681031,1,5,7,-2,43,-1013
330,3.692226,0,5,9,3,46,-1000
331,3.703417,8,2,8,2,45,-1022
332,3.714608,-5,11,7,0,44,-976
333,3.725795,11,3,8,0,49,-1029
334,3.736991,-5,8,8,-2,50,-1008
335,3.748174,3,5,8,-3,56,-1021
336,3.759364,12,1,9,-8,52,-1035
337,3.770565,-1,12,10,-10,50,-1031
338,3.781813,10,3,9,0,49,-1031
339,3.793008,-1,13,8,-6,49,-1014
340,3.804194,1,5,9,-2,52,-1031
341,3.815379,7,2,11,-2,54,-1034
342,3.826563,3,8,12,-6,54,-1007
343,3.837747,2,4,10,-3,52,-1010
344,3.848934,0,5,8,0,51,-1040
345,3.860117,3,8,8,-1,47,-1026
346,3.871299,7,7,10,-10,50,-1008
347,3.882485,3,8,10,-10,53,-1026
348,3.89367,5,6,9,-8,53,-1020
349,3.904876,6,9,9,-4,50,-1030
350,3.91606,0,3,11,2,45,-1002
351,3.927241,2,7,12,4,52,-1032
352,3.938424,0,7,7,2,50,-1017
353,3.949612,1,4,8,-4,55,-1015
354,3.960813,12,1,11,-2,58,-1036
355,3.972029,0,7,10,-10,49,-1007
356,3.983226,1,5,10,-3,55,-1017
357,3.994412,0,10,10,-2,51,-1027
358,4.005621,2,8,9,-4,52,-1019
359,4.016809,4,8,8,-3,48,-1025
360,4.027993,1,6,8,-2,47,-1012
361,4.039179,4,9,10,1,50,-1027
362,4.050362,0,5,8,1,49,-1020
363,4.06155,4,5,10,3,53,-1027
364,4.072735,4,6,9,-4,46,-1022
365,4.083917,3,5,9,-10,49,-1022
366,4.095102,2,6,10,-8,52,-1024
367,4.106287,3,5,8,-5,45,-1021
368,4.117474,5,6,9,0,48,-1027
369,4.128684,2,5,8,4,43,-1018
370,4.139865,5,8,10,0,48,-1042
371,4.151046,3,7,8,-2,52,-1031
372,4.162231,5,5,9,-7,53,-1023
373,4.173422,2,9,10,-10,54,-1025
374,4.184629,3,7,10,-9,60,-1020
375,4.195819,6,6,8,-6,53,-1019
376,4.207003,4,5,9,-1,57,-1027
377,4.218185,6,5,5,0,51,-1015
378,4.229375,0,6,9,4,50,-1014
379,4.24056,4,4,8,4,50,-1025
380,4.251746,3,1,6,0,48,-1015
381,4.262928,5,3,10,-4,50,-1028
382,4.27411,3,5,11,-3,45,-1021
383,4.285294,0,8,11,-7,48,-1021
384,4.296493,3,6,9,-2,48,-1023
385,4.307677,4,-1,9,-3,47,-1025
386,4.318869,0,5,6,-2,53,-1027
387,4.330066,3,5,7,-3,53,-1015
388,4.341245,1,6,8,-4,55,-1019
389,4.352432,1,7,8,-3,54,-1022
390,4.363617,4,5,9,-2,50,-1022
391,4.374801,2,6,9,-4,52,-1015
392,4.385986,3,5,9,-1,52,-1019
393,4.397173,1,6,7,-5,52,-1019
394,4.408358,2,6,9,-6,57,-1021
395,4.419543,1,8,9,-3,51,-1018
396,4.430731,2,6,8,-8,56,-1021
397,4.441919,7,8,9,-4,48,-1025
398,4.453109,1,6,9,-5,48,-1018
399,4.464293,6,10,6,14,49,-1024
400,4.475481,2,4,8,-3,45,-1019
401,4.48667,1,5,9,1,48,-1027
402,4.497852,2,6,7,-2,49,-1019
403,4.509052,1,4,8,0,49,-1026
404,4.520243,3,11,9,-5,51,-1025
405,4.531736,1,6,9,-6,51,-1016
406,4.543299,0,5,8,-5,50,-1033
407,4.554896,3,5,7,-3,50,-1022
408,4.566452,4,4,9,-1,52,-1015
409,4.578022,3,7,11,-6,57,-1019
410,4.589622,3,4,8,-5,52,-1029
411,4.601187,1,7,7,1,54,-1028
412,4.612781,3,4,8,-4,54,-1022
413,4.624341,1,7,8,2,45,-1013
414,4.635987,6,5,10,-4,48,-1023
415,4.647646,3,12,8,-8,46,-1027
416,4.659316,0,7,8,-4,46,-1013
417,4.670961,3,4,9,0,51,-1034
418,4.682606,4,9,8,0,45,-1024
419,4.694299,2,6,7,1,44,-1014
420,4.705966,5,6,7,0,48,-1018
421,4.717619,4,8,7,0,52,-1027
422,4.729325,2,5,10,-2,52,-1012
423,4.740985,3,6,10,-5,47,-1016
424,4.752557,2,7,9,0,49,-1028
425,4.764132,4,5,6,0,52,-1016
426,4.775689,5,2,9,-3,53,-1021
427,4.787262,3,5,7,-6,48,-1021
428,4.798802,2,10,9,-7,52,-1002
429,4.810343,1,5,11,-5,54,-1025
430,4.821902,2,4,7,2,49,-1022
431,4.83352,2,7,10,-1,52,-1029
432,4.845145,4,2,8,1,53,-1022
433,4.856806,4,7,7,1,55,-1033
434,4.86846,6,6,7,-8,48,-1011
435,4.880125,0,6,8,-11,54,-1031
436,4.891793,3,8,9,-2,51,-1019
437,4.903449,2,8,9,0,48,-1010
438,4.915105,3,7,8,2,54,-1030
439,4.926778,4,7,9,1,50,-1018
440,4.93846,3,5,8,-3,49,-1025
441,4.950115,0,5,10,-13,51,-1010
442,4.961682,0,5,7,-3,55,-1015
443,4.973266,3,4,8,6,48,-1028
444,4.984818,7,5,7,5,56,-1023
445,4.996387,4,5,7,8,49,-1024
446,5.007939,0,6,8,1,47,-1024
447,5.019508,7,6,10,-18,44,-1003
448,5.031045,-1,6,11,-16,51,-1024
449,5.042615,5,5,10,-10,51,-1028
450,5.054298,0,6,8,-2,47,-1019
451,5.066013,1,5,8,8,49,-1026
452,5.077714,1,6,8,3,49,-1022
453,5.08937,1,6,8,-6,53,-1025
454,5.101069,2,7,7,-14,53,-1016
455,5.112733,3,6,7,-3,52,-1018
456,5.124374,3,5,8,2,46,-1018
457,5.136025,4,8,9,6,51,-1027
458,5.147708,3,4,9,4,42,-1004
459,5.159362,5,7,8,-11,54,-1017
460,5.170918,0,8,8,-11,57,-1012
461,5.182462,5,5,9,-8,52,-1023
462,5.19401,2,7,8,2,47,-1027
463,5.205557,3,3,9,2,52,-1023
464,5.217104,1,5,6,4,50,-1016
465,5.228668,3,6,9,-3,49,-1029
466,5.240245,3,7,8,-8,46,-1020
467,5.251824,2,4,9,-6,51,-1030
468,5.263455,4,3,10,-3,46,-1015
469,5.275113,1,6,10,-3,46,-1019
470,5.286766,2,2,9,0,51,-1024
471,5.298444,1,6,9,-5,44,-1011
472,5.310098,1,6,9,-4,55,-1024
473,5.321749,6,5,7,-7,53,-1027
474,5.333437,0,3,5,14,57,-1042
475,5.345071,6,6,9,-4,54,-1015
476,5.356734,1,6,10,-9,52,-1012
477,5.36842,2,3,9,-5,56,-1032
478,5.37999,5,6,8,-5,45,-1001
479,5.391552,2,5,6,-3,48,-1020
480,5.403142,-1,8,9,2,45,-1025
481,5.414708,5,6,9,-1,52,-1029
482,5.426258,3,8,8,-6,53,-1030
483,5.437842,4,6,9,-4,53,-1017
484,5.449401,0,8,8,-6,47,-1012
485,5.460953,1,3,10,-4,55,-1026
486,5.472628,3,4,9,-1,45,-1003
487,5.484283,1,8,10,-1,50,-1019
488,5.495952,4,1,8,0,50,-1018
489,5.50759,0,8,7,-3,50,-1022
490,5.519239,1,3,7,-11,52,-1028
491,5.530923,0,8,9,-7,49,-1021
492,5.542562,4,5,6,-12,53,-1030
493,5.554205,4,7,9,-4,48,-1022
494,5.565857,3,6,9,0,55,-1021
495,5.577532,8,8,8,-4,53,-1021
496,5.589203,1,6,9,-4,49,-1020
497,5.600846,2,6,8,-9,52,-1024
498,5.612525,4,4,8,-6,46,-1043
499,5.624192,0,9,7,-4,51,-1012
500,5.635832,0,4,11,-3,48,-993
501,5.647485,2,3,9,0,51,-1032
502,5.659178,2,9,8,-4,44,-1009
503,5.670883,5,3,7,-1,50,-1015
504,5.682559,3,6,5,-2,50,-1037
505,5.694106,1,8,9,-7,48,-1010
506,5.705656,0,5,8,-1,56,-1018
507,5.717239,3,4,10,7,52,-1031
508,5.728783,13,5,9,-1,64,-1069
509,5.740358,0,1,7,0,68,-1058
510,5.751904,20,5,9,-6,62,-1021
511,5.763486,-3,10,10,-7,42,-999
512,5.775029,-2,6,10,-4,53,-1016
513,5.786649,12,2,8,-5,33,-985
514,5.798307,0,5,9,-1,56,-1046
515,5.809992,6,4,10,2,52,-1016
516,5.8217,6,6,9,3,52,-1034
517,5.833313,3,5,9,-1,50,-1038
518,5.844973,0,8,10,-5,54,-1010
519,5.856622,7,4,10,-6,55,-1027
520,5.868266,6,4,7,-7,49,-1023
521,5.879967,-2,8,9,-5,53,-1006
522,5.891624,3,4,9,-4,46,-1023
523,5.903173,-2,6,8,-1,52,-1038
524,5.914723,8,8,12,-6,54,-1029
525,5.926289,-12,3,8,0,55,-1051
526,5.93786,5,11,9,3,52,-1012
527,5.949413,2,5,9,1,49,-1018
528,5.96101,0,5,8,-1,50,-1016
529,5.97254,5,7,9,-7,54,-996
530,5.984119,3,5,10,-7,56,-1030
531,5.995739,4,6,9,-2,55,-1035
532,6.007413,2,7,9,-12,47,-1022
533,6.019074,5,3,7,-2,51,-1023
534,6.030727,2,6,9,-2,47,-1024
535,6.042389,3,8,8,0,50,-1022
536,6.054068,1,7,10,0,47,-1012
537,6.06574,3,7,6,-1,48,-1032
538,6.077448,3,7,10,-5,49,-1013
539,6.08912,3,6,11,1,50,-1023
540,6.100789,2,7,8,-4,52,-1031
541,6.112369,4,7,8,-11,52,-1022
542,6.123918,0,5,10,-3,45,-1026
543,6.13549,0,8,9,-6,51,-1012
544,6.147022,7,7,8,0,48,-1034
545,6.158557,-3,10,7,1,57,-1035
546,6.170118,11,3,7,-4,53,-1021
547,6.181662,1,6,9,-8,47,-1009
548,6.193259,1,7,7,-4,53,-1034
549,6.204955,0,7,10,-2,46,-993
550,6.216627,-4,4,8,4,51,-1012
551,6.228286,9,9,8,-9,62,-1051
552,6.239949,1,6,11,-2,54,-1033
553,6.251593,12,1,8,1,55,-1039
554,6.263248,0,9,9,-3,40,-1003
555,6.274923,-1,8,9,0,56,-1024
556,6.286564,12,2,8,-2,41,-996
557,6.298222,0,10,7,-1,51,-1026
558,6.309903,10,3,9,1,47,-1011
559,6.321564,-2,10,9,-4,49,-1037
560,6.333216,9,6,9,-2,52,-1015
561,6.344925,4,6,7,-2,60,-1039
562,6.356562,5,8,10,-1,51,-1032
563,6.368215,1,7,10,-4,44,-1000
564,6.379859,6,5,9,-2,52,-1023
565,6.391561,0,7,9,-2,46,-1016
566,6.403279,1,7,11,0,51,-1020
567,6.414953,3,6,9,0,47,-1028
568,6.42654,-7,14,7,-1,52,-965
569,6.43812,12,-3,8,0,58,-1075
570,6.449683,0,7,9,-10,50,-1024
571,6.461255,8,7,9,-9,62,-1060
572,6.472777,1,3,8,4,51,-1048
573,6.48432,5,10,9,-5,53,-1047
574,6.495873,6,4,7,-9,40,-991
575,6.507435,-1,4,9,-3,55,-1038
576,6.519059,-2,7,8,0,49,-1004
577,6.530709,6,4,10,1,56,-1043
578,6.542402,4,8,8,0,44,-1016
579,6.554067,0,7,8,0,57,-1037
580,6.565721,5,8,11,-10,53,-1025
581,6.577404,2,6,8,-10,52,-1009
582,6.589065,0,6,9,-6,55,-1017
583,6.600723,7,4,10,0,45,-1024
584,6.612378,10,6,9,15,50,-1088
585,6.624049,10,2,10,0,45,-1006
586,6.635601,-6,11,7,-4,56,-1052
587,6.647149,15,5,7,-8,39,-1002
588,6.658724,-2,5,8,-7,55,-1035
589,6.670267,13,4,8,-6,54,-1066
590,6.681842,-1,10,9,-9,36,-958
591,6.69339,0,2,7,1,52,-1009
592,6.704929,4,7,8,-1,52,-1037
593,6.716481,2,7,8,-2,51,-1011
594,6.728095,-2,5,9,-6,59,-1000
595,6.739737,7,3,8,-12,52,-1003
596,6.751378,2,8,12,-7,58,-1036
597,6.763038,6,3,10,1,54,-998
598,6.774678,1,3,10,7,48,-1026
599,6.786328,1,5,8,-7,49,-1007
600,6.798001,1,6,8,-9,45,-1015
601,6.809685,3,9,6,-17,55,-1046
602,6.821355,6,7,8,-6,46,-1014
603,6.833028,3,6,11,6,55,-1030
604,6.844574,2,6,9,4,51,-1010
605,6.856124,2,5,10,7,51,-1010
606,6.867679,2,5,7,0,55,-1039
607,6.879243,4,4,7,-12,53,-1027
608,6.890788,3,4,9,-6,55,-1014
609,6.902339,2,7,7,-5,51,-1023
610,6.913913,4,5,10,-7,49,-1026
611,6.925503,1,5,9,-3,51,-1017
612,6.937209,4,5,10,-1,50,-1029
613,6.948884,3,7,9,-5,53,-1017
614,6.960547,2,5,11,1,50,-1015
615,6.972193,1,6,9,1,47,-1020
616,6.98384,1,4,10,-2,49,-1025
617,6.995477,5,6,7,-5,55,-1018
618,7.00712,0,4,11,-6,47,-1046
619,7.018783,12,3,11,-5,46,-1016
620,7.030452,-11,10,9,-9,51,-1031
621,7.042108,15,1,8,4,53,-1059
622,7.053778,1,9,9,0,53,-1029
623,7.065438,11,7,8,-8,55,-1033
624,7.077062,7,3,9,-8,42,-987
625,7.088706,-8,5,7,0,46,-1039
626,7.10036,7,1,10,4,46,-1002
627,7.111999,-2,6,9,4,48,-1031
628,7.123655,3,4,10,8,56,-1022
629,7.135299,7,5,10,-5,52,-1018
630,7.146867,0,5,11,-11,55,-1048
631,7.15841,6,5,11,-5,54,-1015
632,7.169984,-1,9,10,-7,46,-985
633,7.181511,2,5,10,3,55,-1025
634,7.193201,8,9,9,2,47,-1017
635,7.20493,3,10,5,-2,50,-1005
636,7.216539,8,2,10,-13,51,-1023
637,7.228129,-1,8,9,-14,45,-1024
638,7.239816,5,7,10,2,50,-1023
639,7.251537,4,8,8,7,47,-1040
640,7.263195,-4,14,6,13,43,-996
641,7.274862,5,0,7,3,53,-1013
642,7.286564,-8,11,10,-12,41,-981
643,7.298213,3,4,10,-14,61,-1033
644,7.309833,12,2,10,-3,48,-1021
645,7.321492,-7,13,9,-2,43,-1012
646,7.333173,8,1,9,3,55,-1034
647,7.34477,-5,12,11,0,42,-1018
648,7.356318,-1,10,9,-14,59,-1015
649,7.36787,11,4,10,-9,58,-1009
650,7.379423,-1,6,9,2,51,-1024
651,7.390991,-4,4,10,6,45,-974
652,7.402538,13,5,9,9,48,-1029
653,7.414078,-13,16,8,-13,46,-992
654,7.425631,6,2,9,-3,45,-1014
655,7.437197,0,6,9,-2,48,-1029
656,7.448875,3,9,8,-5,50,-1018
657,7.460557,8,2,7,-7,52,-1039
658,7.472204,7,12,10,-17,68,-1022
659,7.483875,18,0,10,-7,47,-1062
660,7.495539,-14,11,10,-6,54,-1043
661,7.507183,13,4,11,0,39,-993
662,7.51884,-3,6,8,-6,46,-1029
663,7.530507,3,9,8,-11,62,-1042
664,7.54216,11,5,8,-17,42,-997
665,7.55374,-6,8,9,-9,52,-1045
666,7.565258,10,6,9,-4,52,-1073
667,7.576769,0,9,10,-2,33,-963
668,7.588311,-1,6,8,2,56,-1048
669,7.599865,15,4,7,-13,43,-1021
670,7.611415,0,7,8,-16,58,-1033
671,7.622984,14,-2,9,-14,59,-1070
672,7.63454,-7,12,9,1,36,-957
673,7.646172,0,5,9,6,50,-1009
674,7.65786,-3,12,9,-3,47,-1038
675,7.66958,-2,6,6,-4,54,-1001
676,7.681252,8,0,8,-7,55,-1036
677,7.692932,5,9,11,-3,52,-1022
678,7.704593,6,3,8,3,45,-1023
679,7.71626,0,4,9,7,44,-1012
680,7.727926,0,6,7,0,53,-1027
681,7.739598,0,5,8,-9,50,-1028
682,7.751279,1,9,9,-16,55,-1018
683,7.762852,8,6,6,-9,55,-1029
684,7.774447,-1,9,6,-6,49,-1010
685,7.786,5,5,9,0,51,-1022
686,7.797611,1,5,7,-1,44,-1017
687,7.809176,7,4,9,0,50,-1064
688,7.820757,4,6,8,-10,46,-1034
689,7.832302,-3,2,8,10,54,-1013
690,7.843866,10,3,7,14,52,-1052
691,7.855535,2,10,9,-6,41,-1013
692,7.867185,-2,5,8,-11,51,-996
693,7.878831,3,12,8,-20,45,-1014
694,7.890517,0,7,9,-3,51,-1044
695,7.902174,13,0,9,0,52,-1014
696,7.913847,-4,7,11,6,56,-1027
697,7.925523,-1,6,6,8,44,-1001
698,7.937194,4,4,10,2,55,-1041
699,7.948869,12,8,7,-7,55,-1045
700,7.960558,-2,8,9,-14,61,-1062
701,7.972125,15,8,9,-13,59,-1052
702,7.983687,4,9,8,-7,48,-1013
703,7.995237,-6,2,7,-3,47,-1002
704,8.00678,3,3,8,1,49,-1044
705,8.018329,-4,13,10,-11,34,-978
706,8.029913,-3,1,9,-10,53,-1034
707,8.041495,10,4,9,-7,49,-1028
708,8.053099,1,11,11,-1,49,-1023
709,8.064794,-1,5,10,10,58,-1052
710,8.076447,12,7,9,25,49,-1030
711,8.088123,-7,10,8,9,49,-973
712,8.099792,11,5,6,-18,54,-1028
713,8.111444,-5,8,11,-16,50,-999
714,8.123113,0,6,11,-13,70,-1062
715,8.134774,19,3,10,-6,48,-1020
716,8.146459,-1,8,8,13,50,-1044
717,8.158096,7,6,7,6,50,-1014
718,8.169653,5,5,7,-8,46,-1015
719,8.181229,-3,5,10,-13,53,-1027
720,8.192776,9,3,9,-16,53,-1047
721,8.204318,-5,7,10,-7,40,-1002
722,8.215867,6,1,9,4,59,-1064
723,8.227412,11,8,9,1,52,-1030
724,8.238974,-5,6,7,-6,58,-1022
725,8.250538,16,4,11,-14,56,-1055
726,8.262149,0,11,9,-12,40,-1013
727,8.273825,0,8,9,-5,51,-1004
728,8.285476,4,7,10,2,47,-1016
729,8.297142,-1,6,11,5,46,-1027
730,8.308804,4,6,9,-4,58,-1013
731,8.320438,6,2,7,-4,54,-1027
732,8.332084,2,6,8,-8,53,-1009
733,8.343754,1,5,9,0,57,-1012
734,8.355418,9,4,7,0,52,-1034
735,8.367075,-1,10,9,7,47,-1002
736,8.378639,15,1,9,7,51,-1051
737,8.390221,0,10,8,-7,35,-994
738,8.401774,2,6,9,-4,51,-1023
739,8.413376,9,3,8,-9,47,-1055
740,8.424953,5,11,8,-10,47,-1014
741,8.436517,2,6,8,-10,50,-1022
742,8.448056,2,7,9,0,50,-1044
743,8.459617,4,10,10,-9,51,-1008
744,8.471259,4,7,9,0,58,-1040
745,8.482915,4,7,11,-1,49,-1012
746,8.49457,0,6,7,1,49,-1022
747,8.506234,4,2,7,3,45,-1022
748,8.517921,-2,6,10,-4,50,-998
749,8.529572,2,7,8,-4,54,-1026
750,8.541269,6,7,7,-8,45,-1028
751,8.552997,14,5,7,-2,54,-1030
752,8.564677,3,6,8,-2,47,-1019
753,8.57623,2,7,10,2,54,-1027
754,8.587776,3,9,7,-2,52,-1030
755,8.599325,1,6,9,-4,55,-1027
756,8.610868,2,6,7,-6,52,-1001
757,8.622448,0,6,9,0,50,-1016
758,8.633995,6,8,10,-2,45,-1034
759,8.645586,6,3,7,6,49,-1037
760,8.657155,3,5,9,-6,47,-1011
761,8.668884,4,4,9,-6,50,-1026
762,8.680544,1,8,9,-13,48,-1024
763,8.69219,0,7,9,-7,47,-1025
764,8.703839,3,7,11,0,50,-1021
765,8.715511,3,4,8,3,51,-1012
766,8.727155,0,7,7,1,55,-1005
767,8.738803,-3,9,7,-3,47,-989
768,8.750453,5,8,8,-5,54,-1021
769,8.762116,5,3,9,-2,48,-1015
770,8.773815,-4,6,8,-7,48,-1026
771,8.785493,-2,1,10,0,39,-996
772,8.797182,-2,11,9,-4,55,-1029
773,8.808808,7,6,6,-3,44,-983
774,8.820472,-4,9,10,0,62,-1033
775,8.832133,7,5,9,2,54,-1014
776,8.843788,0,5,9,-1,44,-996
777,8.85543,0,6,6,4,57,-1044
778,8.867078,3,11,7,2,54,-1023
779,8.878752,3,-3,7,-7,50,-1042
780,8.890407,5,7,8,-3,55,-1066
781,8.902096,8,4,12,-7,49,-1005
782,8.913767,1,6,8,-4,49,-1034
783,8.925435,5,10,6,-9,52,-1034
784,8.937062,5,7,7,-16,49,-991
785,8.948726,0,5,9,-9,54,-1040
786,8.960408,6,5,7,-3,50,-1021
787,8.972057,2,6,8,-1,53,-1033
788,8.983752,-1,3,7,5,50,-1004
789,8.995407,6,7,8,3,51,-1030
790,9.007054,1,7,7,-10,50,-1014
791,9.018714,3,6,7,-10,57,-1050
792,9.030377,8,7,10,-12,55,-1042
793,9.042051,3,6,9,-2,41,-1033
794,9.053748,3,8,7,6,48,-1037
795,9.065426,4,9,7,-3,46,-1016
796,9.077062,3,8,8,-8,51,-1024
797,9.088761,0,10,7,-8,58,-1036
798,9.100425,4,8,9,-5,57,-1044
799,9.111988,2,4,8,4,49,-1028
800,9.123541,1,4,9,7,54,-1029
801,9.13512,6,4,8,-1,50,-1032
802,9.146705,-4,8,9,-16,47,-987
803,9.158257,6,2,7,-9,52,-1056
804,9.16981,4,8,8,-11,46,-1016
805,9.181387,0,8,8,2,48,-1004
806,9.19298,1,3,9,5,46,-1031
807,9.204627,1,12,7,6,50,-1033
808,9.216286,4,5,8,1,49,-1008
809,9.227938,-1,4,7,-10,57,-1028
810,9.239607,4,4,9,-13,49,-1018
811,9.251292,-3,7,10,-13,53,-1009
812,9.26294,7,5,9,-4,53,-1034
813,9.27459,5,5,8,8,55,-1031
814,9.286261,-5,11,9,9,37,-961
815,9.297921,2,6,7,5,54,-1032
816,9.309657,5,5,9,2,46,-1007
817,9.321252,5,4,10,-1,61,-1021
818,9.332861,11,1,8,-5,49,-1031
819,9.344418,-9,9,9,0,44,-1013
820,9.355971,7,5,7,-10,63,-1043
821,9.367515,-4,5,5,7,44,-984
822,9.379091,-2,5,8,-1,59,-1027
823,9.390636,13,6,8,-2,58,-1024
824,9.402194,0,4,7,-2,35,-1004
825,9.413877,10,2,11,-1,50,-1032
826,9.42559,-4,9,8,-11,42,-974
827,9.43727,0,5,9,-9,57,-1025
828,9.448936,14,5,10,-2,51,-1009
829,9.46063,-11,5,9,4,53,-976
830,9.472273,6,1,9,-1,64,-1017
831,9.483923,5,7,9,-4,44,-1032
832,9.495593,-12,13,8,-8,59,-1029
833,9.507305,13,6,8,-3,44,-1025
834,9.51898,-7,13,8,-3,40,-1001
835,9.530533,2,8,10,-3,59,-1022
836,9.542093,18,1,7,5,35,-1004
837,9.553641,-1,9,8,6,61,-1068
838,9.565202,12,3,8,9,49,-983
839,9.576773,-6,4,9,11,48,-1025
840,9.588319,4,4,7,-8,57,-1043
841,9.599862,1,8,10,-14,51,-1002
842,9.611454,5,3,8,-13,58,-1044
843,9.623076,4,5,9,-9,44,-1013
844,9.634751,3,8,9,-3,43,-1009
845,9.646399,0,9,7,-3,51,-1022
846,9.658084,9,2,6,-2,52,-1016
847,9.66976,0,8,8,0,46,-1026
848,9.681437,3,7,9,-10,53,-1017
849,9.693066,7,4,9,-9,52,-1015
850,9.70472,-1,7,9,-1,51,-1033
851,9.716384,3,8,7,-1,50,-1017
852,9.72804,0,7,10,-3,44,-1018
853,9.739606,0,9,7,-2,48,-1035
854,9.751162,7,7,8,-7,49,-1021
855,9.762728,1,7,9,-4,46,-1020
856,9.774307,6,6,11,3,46,-1028
857,9.785883,0,7,7,4,48,-1020
858,9.797462,1,8,8,7,49,-1025
859,9.80901,4,5,9,5,49,-1024
860,9.820619,-3,9,10,0,53,-1030
861,9.832266,11,-5,7,-7,50,-991
862,9.843953,-3,5,9,-7,56,-1042
863,9.855612,14,4,8,-7,58,-1049
864,9.867275,0,4,7,-1,54,-1026
865,9.878948,10,7,11,-1,53,-1070
866,9.890594,-1,12,9,-14,39,-965
867,9.902245,-3,5,8,0,54,-1026
868,9.913916,-1,11,8,0,41,-1001
869,9.925582,-1,7,9,3,48,-1010
870,9.937244,4,5,7,9,54,-1025
871,9.948845,6,7,8,-13,51,-1001
872,9.960395,4,5,7,-6,55,-1035
873,9.97194,4,10,7,-7,51,-1017
874,9.983493,4,6,11,0,43,-1014
875,9.99505,-1,8,9,6,47,-1042
876,10.006602,-3,8,9,-5,49,-1008
877,10.018147,5,4,11,0,56,-1042
878,10.029743,6,5,8,0,48,-1028
879,10.041368,0,9,9,-7,56,-992
880,10.053046,8,7,9,0,53,-1022
881,10.064712,-1,10,8,-11,43,-993
882,10.076386,2,3,7,-4,57,-1026
883,10.088031,9,2,9,3,46,-1026
884,10.099687,1,4,8,-1,56,-1024
885,10.111393,6,5,8,-8,49,-1019
886,10.123051,0,6,8,-5,47,-1052
887,10.134741,4,0,9,0,48,-1008
888,10.146409,-5,7,8,7,47,-1025
889,10.158004,10,5,9,6,52,-1046
890,10.169586,3,9,6,-3,44,-1010
891,10.181141,3,6,7,-1,56,-1049
892,10.192713,10,6,10,-5,47,-1019
893,10.204265,-7,9,9,-8,47,-981
894,10.215831,1,4,7,-5,62,-1035
895,10.227372,-4,12,9,2,44,-1007
896,10.238926,0,10,10,0,61,-1023
897,10.25057,12,0,8,-1,53,-1037
898,10.262208,-5,12,10,-1,42,-1016
899,10.273913,8,3,8,-8,42,-980
900,10.285568,-2,3,11,-3,52,-1037
901,10.297272,8,4,8,0,55,-1053
902,10.308957,1,7,9,-4,46,-968
903,10.320623,7,5,8,0,52,-1045
904,10.332309,-2,10,11,-7,46,-989
905,10.344116,4,4,8,-6,58,-1024
906,10.355716,6,5,9,-1,45,-1005
907,10.367294,7,4,10,5,56,-1038
908,10.378856,0,2,7,9,43,-971
909,10.390404,1,3,8,9,56,-1051
910,10.401995,-1,12,8,-6,54,-1043
911,10.413556,2,1,9,-2,43,-1009
912,10.425134,4,4,9,-5,48,-1054
913,10.436708,0,12,9,-8,53,-994
914,10.448272,7,0,6,2,47,-1030
915,10.459944,5,7,9,-2,55,-1014
916,10.471645,9,5,7,1,45,-1014
917,10.483299,-2,5,8,-6,46,-1026
918,10.494983,5,7,7,-5,42,-993
919,10.506644,-4,2,7,-6,43,-1009
920,10.518304,4,6,8,0,60,-1036
921,10.529959,9,4,8,-5,52,-1017
922,10.54157,-2,4,10,-4,56,-1035
923,10.55327,9,8,10,-4,50,-1018
924,10.564934,0,9,8,-11,45,-1017
925,10.576521,4,6,8,-2,54,-1038
926,10.58811,1,4,10,0,47,-1019
927,10.600895,4,7,8,2,50,-1024
928,10.616169,1,10,8,-3,51,-1009
929,10.632115,2,1,8,-4,55,-1018
930,10.646703,1,6,7,-6,51,-1029
931,10.660181,-2,5,7,-9,48,-1004
932,10.671477,5,5,9,-7,46,-1017
933,10.682678,-2,6,8,-4,48,-1023
934,10.693874,1,5,9,-6,54,-1020
935,10.70506,7,8,9,-11,56,-1016
936,10.716247,0,5,7,-10,46,-1017
937,10.727431,5,6,8,-6,57,-1026
938,10.738643,3,8,11,2,46,-1008
939,10.749831,-2,11,10,-3,54,-1024
940,10.761018,8,4,7,-3,57,-1037
941,10.772203,-1,11,9,-5,53,-1009
942,10.783389,12,2,9,4,53,-1045
943,10.794572,-2,12,9,-5,41,-998
944,10.805758,-2,10,7,0,54,-1027
945,10.816947,8,5,9,-2,50,-1026
946,10.828132,5,11,8,2,52,-1017
947,10.839315,5,2,9,3,52,-1021
948,10.8505,3,2,10,2,42,-1025
949,10.861687,-5,9,9,1,51,-1006
950,10.872871,4,3,8,-3,56,-1008
951,10.884055,-6,6,8,-8,38,-980
952,10.89524,-4,7,7,-4,68,-1034
953,10.906428,18,3,9,-5,57,-1032
954,10.917609,-2,8,7,-8,41,-1000
955,10.928803,-5,8,8,-7,54,-1021
956,10.939986,5,10,10,-7,37,-998
957,10.951171,-8,8,8,-7,54,-1034
958,10.962364,7,6,9,-8,58,-1023
959,10.973555,9,1,9,0,49,-1019
960,10.984745,3,10,9,-4,56,-1007
961,10.995944,17,1,9,-3,61,-1057
962,11.007129,0,4,7,0,41,-1004
963,11.018312,-4,9,9,-6,55,-1037
964,11.029499,9,8,8,-1,57,-1010
965,11.040684,7,2,13,-3,45,-1029
966,11.051867,3,6,10,-4,54,-1017
967,11.063053,6,4,9,3,49,-1024
968,11.074243,4,4,8,3,43,-1021
969,11.085427,-1,6,9,1,52,-1019
970,11.096621,4,5,7,2,49,-1024
971,11.107803,3,-1,8,-3,53,-1035
972,11.118986,-2,5,9,-4,52,-1015
973,11.130174,10,-1,10,-4,61,-1029
974,11.141369,4,3,8,-12,47,-1021
975,11.152564,7,4,10,-7,54,-1037
976,11.163748,6,6,7,-9,47,-1012
977,11.174951,-1,6,8,-6,49,-1022
978,11.186138,4,6,10,-4,54,-1025
979,11.197327,4,9,11,1,47,-1020
980,11.208496,0,5,7,-1,49,-1020
981,11.219683,4,6,10,-3,53,-1022
982,11.230865,2,7,9,2,53,-1025
983,11.242049,2,8,9,-4,50,-1023
984,11.253238,4,0,8,-9,52,-1020
985,11.264421,0,6,9,-15,50,-1022
986,11.275611,1,5,11,-8,56,-1025
987,11.286797,4,6,9,0,49,-1022
988,11.29798,0,8,9,8,48,-1019
989,11.309171,2,4,8,11,46,-1014
990,11.320355,0,7,6,1,46,-1017
991,11.331544,3,4,10,-11,51,-1029
992,11.342734,5,7,10,-17,52,-1015
993,11.353933,-1,7,9,-12,47,-1018
994,11.365121,3,9,7,-2,51,-1020
995,11.376305,2,2,10,1,47,-1018
996,11.387492,-1,7,9,0,50,-1016
997,11.398676,6,6,10,-4,53,-1028
998,11.40986,4,9,8,-11,54,-1013
999,11.421057,6,3,8,-8,57,-1028
1000,11.432241,1,7,9,-4,49,-1006
1001,11.443426,1,4,9,2,54,-1029
1002,11.454609,5,5,11,1,54,-1028
1003,11.465794,5,12,9,-1,49,-1031
1004,11.476987,4,7,10,-4,53,-1028
1005,11.488173,3,8,10,-6,48,-1022
1006,11.499354,1,6,7,-9,51,-1020
1007,11.510542,3,7,9,-3,48,-1027
1008,11.521725,0,10,7,2,50,-1015
1009,11.532918,2,2,8,-1,53,-1011
1010,11.544105,0,7,9,0,52,-1028
1011,11.55529,6,6,8,1,52,-1031
1012,11.566436,1,5,6,-4,48,-1013
1013,11.577619,6,4,8,-9,55,-1028
1014,11.588809,3,8,8,-14,48,-1018
1015,11.600002,0,5,8,-15,51,-1023
1016,11.611186,0,5,8,-7,55,-1027
1017,11.622371,6,6,7,-4,52,-1025
1018,11.633557,0,5,8,0,49,-1019
1019,11.644744,9,7,10,0,56,-1031
1020,11.655928,4,9,9,-3,46,-1015
1021,11.66711,-4,7,10,-3,52,-1012
1022,11.678295,2,1,6,-9,52,-1020
1023,11.689486,-3,8,8,-4,52,-1006
1024,11.700685,4,5,9,3,55,-1029
1025,11.711882,8,6,9,5,50,-1028
1026,11.723067,-1,8,7,3,43,-1020
1027,11.734248,-2,5,10,-5,56,-1024
1028,11.745423,4,5,8,-13,52,-1021
1029,11.756618,0,7,7,-13,59,-1028
1030,11.767799,2,8,8,-8,49,-1016
1031,11.778982,4,6,8,1,49,-1030
1032,11.790166,2,7,9,9,47,-1015
1033,11.801357,5,4,7,7,47,-1020
1034,11.812548,7,6,10,-14,52,-1038
1035,11.823729,0,6,10,-12,44,-1004
1036,11.834934,3,5,9,-12,53,-1026
1037,11.846187,0,9,9,0,43,-1018
1038,11.857388,1,3,8,4,53,-1033
1039,11.868573,5,0,8,4,58,-1022
1040,11.879757,4,9,7,-7,52,-1004
1041,11.89094,-1,3,11,-9,62,-1017
1042,11.902125,8,4,10,6,51,-1034
1043,11.913308,0,9,7,11,41,-1008
1044,11.924499,0,4,8,5,53,-1023
1045,11.93568,4,5,8,2,50,-1026
1046,11.946865,0,11,11,-11,55,-1039
1047,11.958046,1,4,10,-9,39,-997
1048,11.969238,-2,8,7,-2,55,-1027
1049,11.980425,10,2,8,1,50,-1022
1050,11.991607,2,6,9,1,39,-1017
1051,12.002792,13,6,7,-2,58,-1027
1052,12.013975,2,10,10,-14,55,-1024
1053,12.025191,2,8,9,-9,57,-1047
1054,12.036373,5,4,9,0,54,-1031
1055,12.047557,0,3,9,0,56,-1022
1056,12.058755,0,7,9,0,41,-1015
1057,12.069943,-3,7,6,-10,53,-1018
1058,12.081131,10,4,7,-15,58,-1030
1059,12.092311,3,3,8,-9,45,-1005
1060,12.103494,-5,2,8,-4,51,-1026
1061,12.114676,9,2,8,3,43,-1019
1062,12.125859,-4,8,8,7,44,-1023
1063,12.137049,0,2,9,0,51,-1003
1064,12.148234,13,7,9,-4,55,-1043
1065,12.159421,-3,2,10,-10,60,-1034
1066,12.170611,12,-1,8,-1,51,-1021
1067,12.181796,0,10,6,-6,44,-1026
1068,12.19299,0,11,9,0,48,-1004
1069,12.204171,5,6,9,-2,56,-1029
1070,12.215354,2,12,8,-9,56,-1028
1071,12.226544,1,6,8,-6,44,-999
1072,12.237725,5,4,8,-1,55,-1043
1073,12.24887,4,6,7,2,44,-1026
1074,12.260051,-2,5,10,2,47,-1012
1075,12.27124,3,13,7,-9,48,-1004
1076,12.282438,-4,7,7,-5,52,-1006
1077,12.293628,6,5,10,-7,61,-1040
1078,12.304816,7,8,9,-4,46,-1033
1079,12.316002,0,7,7,-4,48,-1012
1080,12.327185,4,5,8,-1,49,-1021
1081,12.338373,3,5,10,0,49,-1026
1082,12.349558,0,7,7,-2,49,-1026
1083,12.360745,3,8,8,-3,54,-1026
1084,12.371939,0,2,10,-3,51,-991
1085,12.383179,7,4,7,0,42,-1038
1086,12.394371,-4,10,10,-7,46,-1015
1087,12.405556,9,5,10,-2,49,-1035
1088,12.416767,2,3,9,-1,49,-1008
1089,12.427955,5,10,8,-6,51,-1025
1090,12.439138,0,4,10,-10,44,-990
1091,12.450331,0,4,9,-6,57,-1039
1092,12.46152,7,9,11,-9,55,-1045
1093,12.472685,1,5,9,0,48,-1000
1094,12.483868,9,1,7,11,51,-1040
1095,12.495053,1,10,9,5,46,-1012
1096,12.506235,2,7,8,-10,51,-1013
1097,12.517423,7,6,7,-19,58,-1051
1098,12.528612,4,3,10,-26,50,-1003
1099,12.539795,6,4,7,-1,52,-1022
1100,12.55098,1,6,11,-1,44,-1011
1101,12.562168,-2,6,10,11,49,-1010
1102,12.573358,1,1,8,15,42,-1015
1103,12.5845,-1,8,11,-2,52,-1037
1104,12.595681,-1,10,11,-7,48,-1020
1105,12.606861,2,5,9,-5,53,-1016
1106,12.618042,1,4,8,-1,43,-1001
1107,12.629265,5,2,12,0,51,-1054
1108,12.640501,1,0,11,-7,50,-1016
1109,12.651689,2,5,8,-8,57,-1023
1110,12.662874,5,6,7,-10,51,-1028
1111,12.674059,-1,7,11,-2,51,-1003
1112,12.685237,7,5,9,4,48,-1033
1113,12.696419,0,3,10,7,51,-1033
1114,12.707602,5,3,10,8,52,-1031
1115,12.718787,0,9,7,-8,45,-1020
1116,12.729971,5,9,7,-9,55,-1016
1117,12.741167,4,0,10,-11,52,-1025
1118,12.752354,3,9,8,-8,50,-1016
1119,12.763535,1,5,9,-4,50,-1021
1120,12.774743,2,8,8,-3,52,-1040
1121,12.785926,4,7,9,-5,55,-1020
1122,12.797108,4,10,7,3,48,-1022
1123,12.80829,3,7,9,-4,50,-1027
1124,12.819471,1,5,9,-1,47,-1016
1125,12.830658,0,7,9,0,52,-1021
1126,12.841847,4,5,8,0,50,-1025
1127,12.85305,2,8,8,-6,50,-1028
1128,12.864233,2,7,9,-3,47,-1018
1129,12.875429,4,5,9,-4,51,-1041
1130,12.886615,0,9,5,-12,53,-1007
1131,12.897796,3,3,7,-3,49,-1033
1132,12.908984,0,6,8,1,53,-1033
1133,12.920166,3,7,9,3,48,-1008
1134,12.931351,-1,3,8,4,52,-1027
1135,12.942537,5,5,11,2,53,-1034
1136,12.953738,2,5,7,-9,52,-1001
1137,12.965002,5,2,9,-11,56,-1038
1138,12.976189,5,6,9,-5,46,-1012
1139,12.987374,0,6,10,-3,49,-1033
1140,12.998561,4,8,7,-1,48,-1022
1141,13.009744,3,5,10,-3,48,-1018
1142,13.02093,4,6,9,-7,48,-1021
1143,13.032112,2,6,9,-9,50,-1022
1144,13.043294,0,5,8,-10,51,-1014
1145,13.054479,0,6,9,1,47,-1008
1146,13.065663,4,7,7,7,55,-1030
1147,13.076865,2,5,8,5,56,-1014
1148,13.088048,3,4,8,0,51,-1017
1149,13.099231,4,4,7,-5,51,-1027
1150,13.110425,2,7,8,-8,56,-1009
1151,13.121607,4,6,9,-11,49,-1017
1152,13.132819,1,4,8,-6,51,-1033
1153,13.144002,5,7,8,0,47,-1023
1154,13.155185,1,8,7,0,46,-1017
1155,13.166365,1,6,8,-5,56,-1012
1156,13.177552,3,8,8,-2,53,-1027
1157,13.188744,2,7,9,-1,55,-1026
1158,13.19993,1,6,7,-4,44,-1008
1159,13.211112,0,4,8,-5,52,-1032
1160,13.222296,5,3,9,-1,59,-1037
1161,13.233486,2,3,10,-1,52,-1035
1162,13.244694,5,7,10,5,48,-1027
1163,13.255884,2,6,9,-1,48,-1018
1164,13.267071,5,3,9,-2,48,-1023
1165,13.278252,7,7,9,-11,48,-1021
1166,13.289425,2,7,9,-14,61,-1017
1167,13.300613,4,2,8,-5,51,-1024
1168,13.311812,1,7,8,-3,48,-1028
1169,13.322995,3,6,10,5,57,-1017
1170,13.334176,8,9,8,0,45,-1021
1171,13.345363,2,6,11,-10,56,-1054
1172,13.356545,1,9,9,-12,48,-994
1173,13.36775,3,2,9,-9,49,-1026
1174,13.378977,5,5,10,4,46,-1026
1175,13.390167,3,6,9,10,49,-1006
1176,13.401357,3,3,7,4,41,-1028
1177,13.4125,0,5,7,2,47,-1030
1178,13.423683,6,7,8,-18,50,-1031
1179,13.434865,2,7,6,-17,45,-1004
1180,13.446047,3,8,9,-2,50,-1014
1181,13.457236,4,7,8,-1,47,-1022
1182,13.468421,1,8,8,6,54,-1025
1183,13.479602,6,6,8,-1,53,-1029
1184,13.490808,0,10,4,-8,54,-1015
1185,13.501989,1,5,7,-6,50,-1026
1186,13.513175,2,9,9,-9,55,-1015
1187,13.524356,2,8,10,9,49,-1017
1188,13.535538,3,3,8,12,50,-1019
1189,13.546725,5,7,10,3,53,-1013
1190,13.557905,0,7,8,-17,53,-1017
1191,13.569056,2,3,5,-12,54,-1019
1192,13.580237,2,7,9,-19,57,-1017
1193,13.59142,5,8,10,-10,56,-1023
1194,13.602603,4,9,10,9,49,-1024
1195,13.613785,6,7,8,10,50,-1027
1196,13.624982,1,9,9,1,48,-1013
1197,13.636163,1,7,8,-10,45,-1016
1198,13.647344,2,4,11,-12,49,-1022
1199,13.658529,2,6,8,1,49,-1014
1200,13.669712,2,3,8,6,51,-1022
1201,13.68087,0,5,8,16,47,-1032
1202,13.692053,3,7,8,0,51,-1034
1203,13.703233,3,7,9,-7,55,-1022
1204,13.714432,1,7,9,-20,53,-1021
1205,13.725628,2,9,9,-15,56,-1010
1206,13.736815,2,5,9,-1,45,-1020
1207,13.748,1,8,7,12,50,-1025
1208,13.759183,-4,6,8,12,50,-1055
1209,13.770363,-13,13,6,0,45,-992
1210,13.78155,8,6,9,-6,59,-1064
1211,13.792736,7,5,7,-9,41,-982
1212,13.803917,-3,8,8,-17,51,-1033
1213,13.8151,3,12,10,-7,49,-1014
1214,13.826283,-6,10,8,-2,50,-1041
1215,13.837422,5,5,12,3,56,-1009
1216,13.848621,5,8,7,0,52,-1009
1217,13.8598,4,6,8,-5,50,-1022
1218,13.870987,4,6,9,-7,52,-1017
1219,13.88217,2,5,8,-5,51,-1020
1220,13.893356,-1,9,9,-1,55,-1031
1221,13.904499,4,7,9,-2,52,-1019
1222,13.91568,1,4,10,0,51,-1019
1223,13.926862,3,6,9,-6,51,-1018
1224,13.938044,3,4,8,-7,47,-1018
1225,13.949236,3,6,7,-4,55,-1026
1226,13.960419,6,5,7,-5,50,-1026
1227,13.971599,3,10,10,-4,52,-1018
1228,13.982783,4,8,9,-2,50,-1025
1229,13.993964,4,5,9,-2,48,-1023
1230,14.005164,0,8,7,-5,52,-1031
1231,14.016348,4,4,9,-1,50,-1009
1232,14.02753,-3,12,7,2,54,-1071
1233,14.038719,4,7,9,-2,45,-1010
1234,14.049901,0,8,9,-5,47,-1017
1235,14.061054,3,2,7,-6,51,-1026
1236,14.072233,7,5,10,-3,48,-1039
1237,14.083417,7,4,9,-9,55,-1031
1238,14.094599,1,7,7,0,47,-1018
1239,14.10578,-3,2,8,3,42,-1005
1240,14.116976,7,5,8,6,60,-1049
1241,14.128157,6,4,8,0,52,-1012
1242,14.139337,7,0,8,-4,55,-1032
1243,14.15054,4,5,8,-8,49,-1036
1244,14.161726,0,10,8,-11,51,-1014
1245,14.172875,8,3,8,-9,49,-1013
1246,14.184062,2,10,9,-4,54,-1048
1247,14.195256,0,7,8,2,51,-1016
1248,14.206472,6,2,8,0,49,-1032
1249,14.217657,1,8,9,-1,45,-1039
1250,14.228847,3,10,9,-13,60,-1031
1251,14.240033,7,2,4,-1,56,-1007
1252,14.251219,11,8,9,-1,59,-1057
1253,14.262409,2,9,9,-4,40,-987
1254,14.273606,0,4,8,-4,53,-1029
1255,14.284796,5,3,7,-1,48,-1038
1256,14.295981,2,10,8,-9,49,-1025
1257,14.307166,5,4,8,-1,48,-1032
1258,14.318349,6,0,8,-4,54,-1043
1259,14.329536,6,2,8,5,50,-1016
1260,14.340685,0,6,8,1,55,-1023
1261,14.351871,4,6,8,-5,51,-1033
1262,14.363051,3,8,8,-3,50,-1030
1263,14.374234,1,10,9,-7,53,-1002
1264,14.385434,3,5,7,-11,49,-1031
1265,14.396659,-1,6,8,-6,46,-995
1266,14.407848,5,8,9,-1,48,-1005
1267,14.419033,-3,0,12,4,39,-966
1268,14.430232,1,12,8,7,60,-1071
1269,14.44143,13,7,10,-11,44,-1011
1270,14.452621,-6,16,9,-4,55,-1018
1271,14.46381,3,9,10,-6,50,-1054
1272,14.474993,1,10,7,-4,48,-989
1273,14.486176,6,-1,7,0,53,-1038
1274,14.497365,1,6,8,2,46,-1017
1275,14.508554,5,12,9,-1,50,-1040
1276,14.519738,2,2,8,-7,45,-1012
1277,14.530923,-4,7,10,-2,55,-1052
1278,14.542107,18,4,9,-7,56,-1046
1279,14.553293,-2,12,7,-9,40,-1003
1280,14.564518,13,2,10,7,52,-1060
1281,14.575712,0,12,9,-4,39,-978
1282,14.586896,0,2,7,-3,54,-1040
1283,14.598085,2,4,8,-5,56,-1013
1284,14.609237,1,7,9,-4,53,-1011
1285,14.620418,-1,8,8,-8,52,-1020
1286,14.631601,5,5,11,-2,57,-1014
1287,14.642787,7,0,7,-3,49,-999
1288,14.653969,0,4,10,-5,49,-1050
1289,14.665164,3,14,5,-15,53,-1013
1290,14.676347,0,4,9,-4,45,-1031
1291,14.687531,0,8,7,0,51,-1021
1292,14.698716,10,6,9,-3,51,-1026
1293,14.709899,0,9,8,0,45,-1000
1294,14.721054,-1,4,6,-5,51,-1024
1295,14.732238,8,5,9,-2,53,-1054
1296,14.74342,4,8,9,0,44,-1011
1297,14.754602,-2,6,9,-2,55,-1026
1298,14.765786,12,4,9,4,59,-1040
1299,14.77698,3,9,8,-1,51,-1012
1300,14.788163,6,4,10,-7,56,-1040
1301,14.799359,4,6,7,-10,47,-1006
1302,14.810628,0,8,8,-10,47,-1019
1303,14.821825,1,7,8,-3,56,-1025
1304,14.833033,-2,5,10,8,47,-1019
1305,14.844261,-3,9,8,4,53,-1017
1306,14.85546,9,5,9,0,55,-1030
1307,14.866649,1,8,8,-7,50,-1009
1308,14.877836,-2,1,11,-11,57,-1022
1309,14.889025,3,7,9,-5,45,-1011
1310,14.90021,-3,5,10,-2,48,-1025
1311,14.911443,6,4,8,-1,52,-1020
1312,14.922638,4,8,10,-5,50,-1020
1313,14.933826,3,9,6,-6,52,-1018
1314,14.945021,6,7,8,-4,50,-1019
1315,14.956204,0,7,10,-5,53,-1014
1316,14.967391,3,5,7,-4,52,-1022
1317,14.978576,4,5,9,-6,48,-1017
1318,14.989764,3,6,9,2,51,-1020
1319,15.000956,4,6,10,0,44,-1020
1320,15.012139,1,6,11,-1,46,-1024
1321,15.023338,4,5,8,-5,46,-1023
1322,15.034528,1,5,8,-7,44,-1018
1323,15.045712,-1,4,10,-4,43,-1011
1324,15.056869,2,5,9,0,51,-1033
1325,15.068055,1,4,9,-2,49,-1009
1326,15.079244,0,7,9,-3,48,-1027
1327,15.090431,4,1,8,-2,54,-1014
1328,15.101613,1,8,10,-4,55,-1007
1329,15.112805,5,8,9,-7,56,-1029
1330,15.123989,0,6,8,-10,47,-1007
1331,15.135173,5,7,7,-8,56,-1034
1332,15.146358,2,2,9,-2,52,-1027
1333,15.157543,2,4,10,0,48,-1013
1334,15.168686,3,3,8,1,48,-1025
1335,15.179872,4,7,9,2,50,-1028
1336,15.191057,4,4,9,-4,43,-1011
1337,15.202243,2,8,10,-8,57,-1028
1338,15.213422,4,5,8,-5,54,-1018
1339,15.224612,3,6,12,-6,54,-1019
1340,15.235817,0,5,7,-3,52,-1016
1341,15.247167,8,2,10,-1,52,-1019
1342,15.258532,2,2,9,0,50,-1021
1343,15.269848,2,6,8,-1,49,-1015
1344,15.281065,4,5,8,-2,46,-1013
1345,15.292258,0,6,9,-5,47,-1019
1346,15.303454,-2,3,12,-3,50,-1031
1347,15.314644,4,6,10,-2,47,-1022
1348,15.325831,1,7,9,-1,52,-1021
1349,15.337021,3,8,8,-7,52,-1026
1350,15.348209,1,6,8,-5,53,-1017
1351,15.359393,2,7,8,-12,51,-1018
1352,15.370576,4,4,11,-6,50,-1019
1353,15.381762,1,8,10,3,50,-1015
1354,15.392957,3,7,10,0,52,-1013
1355,15.404141,3,6,5,8,50,-1020
1356,15.415324,4,3,6,-7,53,-1047
1357,15.42652,4,4,9,-1,47,-1016
1358,15.437705,1,9,9,-9,54,-1025
1359,15.44887,2,4,8,0,52,-1018
1360,15.46008,3,7,7,0,52,-1022
1361,15.471267,4,5,8,-12,49,-1019
1362,15.482453,0,8,9,-13,53,-1013
1363,15.493637,5,5,8,-9,52,-1025
1364,15.504828,0,6,9,0,47,-1014
1365,15.516009,6,6,6,2,47,-1020
1366,15.527198,1,5,8,0,49,-1020
1367,15.538382,5,6,10,-3,51,-1030
1368,15.549568,2,7,9,-8,43,-1014
1369,15.560759,1,6,10,-10,41,-1015
1370,15.571946,3,7,7,-3,50,-1024
1371,15.583137,3,7,6,-5,51,-1022
1372,15.594328,0,7,7,-2,50,-1026
1373,15.605516,5,7,8,-3,52,-1029
1374,15.616691,0,7,7,-3,51,-1017
1375,15.627904,2,4,7,-4,54,-1016
1376,15.63909,3,5,9,-2,52,-1020
1377,15.650273,0,6,9,0,51,-1021
1378,15.661443,5,6,7,2,51,-1025
1379,15.673001,4,5,8,-10,47,-1021
1380,15.684697,5,3,8,-10,53,-1042
1381,15.696363,5,0,9,-8,43,-1018
1382,15.70802,4,10,9,-6,44,-1020
1383,15.719692,-1,6,9,4,49,-1030
1384,15.731352,6,4,10,1,45,-1027
1385,15.74301,-3,9,7,0,47,-1017
1386,15.754687,8,5,8,-6,55,-1024
1387,15.766376,6,5,8,-12,49,-1025
1388,15.778036,6,7,9,-9,54,-1022
1389,15.789661,2,4,8,-2,48,-988
1390,15.801228,1,8,8,4,54,-1058
1391,15.812786,1,5,9,0,55,-1020
1392,15.824345,3,0,8,2,52,-1009
1393,15.835901,5,6,7,0,56,-1053
1394,15.847444,1,13,9,-3,47,-979
1395,15.858983,5,8,11,-3,56,-1058
1396,15.870549,12,7,6,-7,47,-1053
1397,15.882227,-6,8,7,-12,46,-984
1398,15.893964,11,4,7,-3,59,-1076
1399,15.905626,-5,7,10,-10,48,-1016
1400,15.917317,4,5,10,-3,54,-1033
1401,15.928975,6,6,9,-4,44,-1019
1402,15.940621,0,6,11,-4,47,-1021
1403,15.952278,3,9,8,2,50,-1009
1404,15.963917,3,6,10,0,48,-1018
1405,15.975597,0,3,8,0,50,-994
1406,15.987271,3,12,9,-10,57,-1039
1407,15.998856,1,7,10,-6,58,-1054
1408,16.010443,8,7,9,-1,55,-1024
1409,16.021994,2,7,7,-1,47,-1012
1410,16.033621,0,8,8,-2,50,-1024
1411,16.045197,2,10,10,-13,56,-1019
1412,16.056776,12,-3,8,-4,48,-1067
1413,16.068331,-6,11,10,-8,49,-1044
1414,16.079928,8,6,8,4,43,-988
1415,16.091611,-1,2,9,16,45,-1031
1416,16.103286,3,10,8,0,53,-1055
1417,16.114951,8,5,7,-8,46,-990
1418,16.126602,-1,5,10,-11,49,-1025
1419,16.138254,1,10,9,-7,59,-1046
1420,16.149922,7,1,10,1,47,-1021
1421,16.161583,-3,8,7,2,51,-1032
1422,16.173239,6,4,9,2,53,-1033
1423,16.184951,7,6,8,-3,55,-1020
1424,16.196607,3,11,7,-11,50,-1024
1425,16.208255,3,8,10,-17,49,-991
1426,16.219921,2,10,10,-5,45,-1010
1427,16.231595,-2,6,7,1,48,-1011
1428,16.243339,8,4,9,5,50,-1020
1429,16.255095,0,9,8,1,52,-1017
1430,16.266762,-1,8,9,-2,53,-989
1431,16.278455,3,7,8,3,52,-1057
1432,16.290117,8,5,9,-7,52,-1023
1433,16.301775,0,10,8,-3,56,-1037
1434,16.313463,5,7,8,0,51,-1022
1435,16.325134,0,8,10,-9,45,-1013
1436,16.336817,7,5,8,-8,55,-1043
1437,16.348481,5,5,9,-3,48,-1033
1438,16.360141,-3,7,7,0,50,-978
1439,16.371814,9,6,9,20,49,-1036
1440,16.383469,-10,11,8,-1,43,-990
1441,16.395141,5,1,10,-3,45,-1006
1442,16.406824,0,4,8,-8,53,-1036
1443,16.418392,3,10,9,-16,55,-1016
1444,16.430065,6,2,7,-28,46,-1013
1445,16.44166,4,12,10,-4,47,-995
1446,16.453208,3,6,7,2,46,-1009
1447,16.464787,2,7,11,4,50,-1028
1448,16.47633,3,9,7,0,50,-1031
1449,16.487868,2,5,9,-2,52,-1025
1450,16.499437,4,8,8,-5,53,-1023
1451,16.511113,4,7,8,-5,50,-1012
1452,16.522774,1,6,9,-1,50,-1020
1453,16.534456,5,6,10,0,48,-1024
1454,16.546124,1,6,7,-2,52,-1021
1455,16.557812,0,5,9,-1,49,-1006
1456,16.569478,-2,3,10,-2,52,-988
1457,16.58114,-1,13,9,-7,46,-1015
1458,16.592824,5,5,10,-1,55,-1017
1459,16.604485,3,5,7,2,39,-1016
1460,16.616148,-3,5,9,0,48,-1020
1461,16.627705,5,4,10,-16,50,-1006
1462,16.639282,-3,6,9,-8,57,-1041
1463,16.650826,6,3,8,-11,49,-1016
1464,16.662373,4,8,10,-8,54,-1012
1465,16.673924,0,5,8,3,53,-1004
1466,16.685493,4,3,8,4,56,-1024
1467,16.697015,5,7,9,2,52,-1034
1468,16.708547,0,11,11,0,49,-1025
1469,16.720238,1,4,9,3,41,-1028
1470,16.731901,-2,8,9,-1,48,-1002
1471,16.74361,5,8,7,3,49,-1037
1472,16.755261,8,2,7,-3,52,-1038
1473,16.766941,12,3,9,1,55,-1049
1474,16.778592,2,7,10,-13,49,-999
1475,16.79026,0,5,11,-3,58,-1024
1476,16.801929,7,4,10,-10,44,-1004
1477,16.813592,0,4,11,0,58,-1044
1478,16.825306,7,5,10,0,50,-1038
1479,16.836921,-2,3,8,3,48,-1011
1480,16.848538,3,8,8,-6,43,-966
1481,16.860097,7,4,8,-8,56,-1050
1482,16.871658,7,7,7,-10,40,-1013
1483,16.883203,0,8,8,-13,53,-1027
1484,16.894757,4,3,9,-8,49,-1034
1485,16.906318,-5,5,7,1,44,-1023
1486,16.917892,10,5,7,1,60,-1034
1487,16.929553,-4,2,9,9,40,-961
1488,16.941219,10,6,8,-1,48,-1012
1489,16.952879,0,7,10,1,49,-1004
1490,16.964545,1,4,7,-6,51,-1027
1491,16.976196,13,9,7,-14,48,-1037
1492,16.987852,-1,7,7,-8,55,-1023
1493,16.999493,5,6,10,2,46,-1027
1494,17.011136,1,7,9,4,39,-1007
1495,17.022838,0,12,6,6,52,-1036
1496,17.034485,2,0,7,0,49,-1025
1497,17.046034,2,6,8,-2,55,-1033
1498,17.057612,7,7,8,-11,54,-1024
1499,17.069175,2,6,11,-13,46,-993
1500,17.080721,1,7,8,-4,45,-1028
1501,17.092273,4,5,8,-9,50,-1020
1502,17.103818,1,7,9,-5,49,-1019
1503,17.115398,5,6,8,-8,52,-1047
1504,17.126958,0,6,9,1,55,-1025
1505,17.138617,5,7,7,5,49,-1019
1506,17.150292,2,9,7,0,56,-1030
1507,17.161975,2,7,9,-3,54,-1030
1508,17.173625,2,4,9,0,57,-1023
1509,17.185309,4,6,6,-7,51,-1021
1510,17.196964,2,4,6,-4,44,-1009
1511,17.208607,2,7,9,-2,51,-1020
1512,17.220283,3,6,7,-3,46,-1022
1513,17.231941,2,8,8,-5,54,-1026
1514,17.243503,-3,11,8,-3,51,-1004
1515,17.255062,5,1,8,3,48,-1037
1516,17.266616,8,9,8,3,53,-1019
1517,17.278305,1,4,11,0,45,-1006
1518,17.289895,0,4,6,0,51,-1026
1519,17.301453,5,5,7,-15,47,-1000
1520,17.313031,3,4,10,-13,57,-1036
1521,17.324577,7,5,10,-10,52,-1022
1522,17.336128,0,11,9,-6,51,-1019
1523,17.347807,3,8,10,1,51,-1020
1524,17.35946,3,6,10,10,49,-1020
1525,17.371104,5,7,9,4,47,-1022
1526,17.382745,-9,10,8,10,49,-941
1527,17.394411,-13,10,9,7,34,-953
1528,17.406086,4,9,8,2,63,-1062
1529,17.41774,9,6,7,0,53,-986
1530,17.42941,-3,6,9,-3,50,-1030
1531,17.441085,14,1,8,-10,60,-1028
1532,17.452665,-3,7,9,-6,41,-1014
1533,17.464288,0,3,9,-9,58,-1019
1534,17.475872,9,4,8,-1,48,-1028
1535,17.487459,6,-4,8,-3,42,-1016
1536,17.499015,-6,7,10,8,58,-1039
1537,17.510569,20,3,7,-2,63,-1069
1538,17.522142,0,10,7,-12,37,-970
1539,17.533713,10,6,9,-8,66,-1062
1540,17.545334,11,11,8,-15,42,-982
1541,17.556996,-8,7,10,-2,50,-1033
1542,17.56868,6,2,8,4,53,-1022
1543,17.580333,-2,6,9,7,32,-972
1544,17.591984,-6,8,7,7,58,-1027
1545,17.603629,11,5,9,10,50,-1028
1546,17.615296,2,9,9,8,47,-1028
1547,17.626945,9,4,7,-4,56,-1048
1548,17.638598,5,8,9,-11,40,-979
1549,17.650257,-3,5,9,-14,54,-1025
1550,17.661815,4,3,11,-10,51,-1024
1551,17.67339,0,7,7,2,49,-1013
1552,17.684942,6,7,7,3,52,-1029
1553,17.69649,0,8,9,1,48,-1007
1554,17.708035,4,6,8,-8,51,-1018
1555,17.719616,0,9,7,-8,52,-1020
1556,17.731162,9,4,9,-6,61,-1036
1557,17.742726,10,3,11,-3,53,-1047
1558,17.754337,-6,10,8,0,53,-1033
1559,17.766,9,2,9,-3,43,-1008
1560,17.777644,0,10,10,-10,47,-1042
1561,17.789318,-5,11,9,-23,54,-984
1562,17.800975,3,7,9,0,45,-1009
1563,17.812621,-3,10,10,6,53,-1030
1564,17.824266,6,7,9,8,52,-1005
1565,17.835936,3,6,8,8,52,-1022
1566,17.847618,6,4,7,-6,55,-1030
1567,17.859276,4,3,11,-11,48,-1006
1568,17.870838,1,6,9,-14,51,-1030
1569,17.882396,7,4,8,-4,54,-1027
1570,17.893971,7,-1,9,-2,50,-1033
1571,17.905502,0,6,8,3,47,-1044
1572,17.917023,6,11,10,0,47,-1019
1573,17.928592,2,10,9,2,48,-998
1574,17.940149,1,7,8,4,51,-1042
1575,17.95171,0,7,6,-6,45,-988
1576,17.963331,3,3,7,0,52,-1016
1577,17.974988,4,4,8,-4,49,-1020
1578,17.986627,6,5,9,-2,50,-1015
1579,17.998274,5,6,10,-2,48,-1022
1580,18.009966,0,8,10,-4,43,-1030
1581,18.021618,6,7,9,-8,55,-1016
1582,18.033303,0,8,7,-9,50,-1024
1583,18.044967,3,6,10,-9,53,-1031
1584,18.05663,5,7,8,-1,54,-1040
1585,18.06829,0,8,9,10,48,-1034
1586,18.079886,5,5,8,5,48,-1018
1587,18.091489,-1,7,8,-1,49,-1013
1588,18.103038,3,5,7,-8,56,-1014
1589,18.11458,7,2,8,-12,49,-1015
1590,18.126145,5,5,10,-9,52,-1032
1591,18.137752,5,6,9,0,43,-1014
1592,18.149299,0,5,8,-2,52,-1025
1593,18.160856,3,5,8,0,49,-1020
1594,18.172472,1,5,9,0,47,-1016
1595,18.184116,0,5,8,-3,52,-1028
1596,18.195761,2,4,8,-3,49,-1018
1597,18.207434,2,5,9,-3,57,-1023
1598,18.219105,1,8,9,-6,53,-1020
1599,18.230753,3,4,10,-3,55,-1016
1600,18.242458,2,7,7,-7,51,-1026
1601,18.254101,2,7,10,-1,49,-1023
1602,18.26577,4,5,10,0,45,-1014
1603,18.277434,3,6,9,2,46,-1018
1604,18.289026,4,7,10,5,52,-1019
1605,18.300595,2,4,9,-6,47,-1016
1606,18.312155,2,3,10,-2,55,-1024
1607,18.323763,3,5,9,-2,53,-1017
1608,18.335309,3,7,9,-1,47,-1022
1609,18.346854,1,5,7,-4,50,-1021
1610,18.358409,4,7,9,-5,50,-1017
1611,18.36999,3,7,7,-1,53,-1020
1612,18.381617,1,5,11,-6,54,-1013
1613,18.396067,3,5,8,-5,50,-1018
1614,18.407767,4,7,9,-2,49,-1024
1615,18.419438,2,6,8,-1,51,-1027
1616,18.431082,0,6,9,-1,48,-1019
1617,18.442735,1,7,9,2,52,-1019
1618,18.454375,1,7,9,-4,56,-1018
1619,18.466023,4,6,8,-4,51,-1023
1620,18.477704,3,7,7,-3,54,-1024
1621,18.489259,3,8,8,-6,50,-1018
1622,18.500776,3,5,9,-3,49,-1022
1623,18.51235,2,5,9,-4,32,-1023
1624,18.523898,4,6,9,1,51,-1013
1625,18.535444,2,7,9,-1,47,-1015
1626,18.54701,3,7,8,-6,52,-1023
1627,18.558589,4,6,8,-5,55,-1018
1628,18.570135,1,7,9,-6,54,-1027
1629,18.581781,3,5,10,-3,56,-1024
1630,18.593461,2,7,8,-3,49,-1027
1631,18.605116,3,6,9,-3,52,-1018
1632,18.616845,2,6,8,1,48,-1022
1633,18.628496,3,7,9,-4,51,-1019
1634,18.640168,3,6,9,-4,52,-1030
1635,18.651822,4,8,8,-1,50,-1021
1636,18.663475,1,6,11,-4,52,-1025
1637,18.675151,2,5,9,-5,55,-1016
1638,18.686816,3,8,9,-5,52,-1021
1639,18.69839,0,7,7,-4,55,-1024
1640,18.709999,2,4,9,-5,50,-1024
1641,18.721549,1,5,8,-7,50,-1023
1642,18.733094,3,6,9,-4,47,-1022
1643,18.744667,4,7,8,-6,47,-1018
1644,18.756212,3,7,10,-2,52,-1017
1645,18.767753,2,6,7,-5,53,-1013
1646,18.779313,3,6,9,-2,52,-1025
1647,18.790939,0,5,9,0,54,-1019
1648,18.802592,3,6,7,-1,53,-1029
1649,18.814246,3,4,10,3,52,-1022
1650,18.825898,3,6,10,-2,52,-1021
1651,18.837571,1,6,9,-5,51,-1016
1652,18.849235,2,5,8,-1,50,-1022
1653,18.860879,2,5,10,-5,53,-1024
1654,18.872549,3,6,11,-4,49,-1021
1655,18.884213,3,7,9,-2,54,-1025
1656,18.895868,2,7,9,-5,50,-1018
1657,18.907437,2,5,9,-2,49,-1020
1658,18.919022,2,6,8,-5,51,-1020
1659,18.930579,1,5,9,-1,53,-1019
1660,18.942137,4,7,8,-4,48,-1021
1661,18.953683,1,6,10,-2,55,-1024
1662,18.96526,3,6,10,-5,47,-1029
1663,18.976783,3,6,10,0,52,-1026
1664,18.988363,2,6,10,-1,48,-1023
1665,18.999985,4,6,10,-3,50,-1024
1666,19.011633,4,7,10,-2,49,-1024
1667,19.023318,4,6,9,-4,48,-1022
1668,19.034977,5,5,8,-1,50,-1024
1669,19.046641,1,6,9,-2,56,-1021
1670,19.058306,1,7,9,-4,53,-1025
1671,19.070061,2,7,9,-4,52,-1023
1672,19.081724,2,5,6,-5,53,-1021
1673,19.093375,2,6,9,0,49,-1020
1674,19.105099,3,8,11,-5,54,-1021
1675,19.116828,2,4,9,0,55,-1021
1676,19.128472,1,5,8,-6,49,-1021
1677,19.140123,3,4,9,-1,48,-1029
1678,19.151774,3,7,9,-5,52,-1021
1679,19.163445,4,6,9,-2,49,-1020
1680,19.175104,2,5,9,-3,50,-1017
1681,19.186758,3,6,8,-5,52,-1020
1682,19.198448,1,7,10,-4,52,-1024
1683,19.210136,0,7,9,-1,53,-1025
1684,19.221755,3,6,10,-2,50,-1019
1685,19.233307,4,5,8,-3,50,-1018
1686,19.244856,3,5,9,-2,51,-1025
1687,19.256406,4,7,7,-4,50,-1019
1688,19.267948,3,5,10,-2,51,-1023
1689,19.279492,2,7,7,0,52,-1023
1690,19.291041,4,5,8,-1,52,-1017
1691,19.302633,2,4,8,-6,48,-1022
1692,19.314259,3,4,10,1,50,-1020
1693,19.326098,3,4,8,-2,52,-1017
1694,19.337779,2,7,8,-6,46,-1022
1695,19.349464,3,6,8,0,46,-1023
1696,19.361178,2,5,7,-5,51,-1018
1697,19.372809,4,7,8,-4,50,-1018
1698,19.384457,2,6,8,-3,47,-1016
1699,19.39611,3,4,9,-7,51,-1025
1700,19.407776,2,4,7,-5,53,-1027
1701,19.419444,2,5,9,-8,53,-1022
1702,19.431087,2,6,10,-3,49,-1024
1703,19.442734,1,6,7,-4,53,-1016
1704,19.454401,1,7,8,-3,48,-1022
1705,19.466079,4,5,10,-3,51,-1023
1706,19.477733,1,6,10,-3,52,-1021
1707,19.48941,2,6,9,1,52,-1017
1708,19.501073,3,8,8,-2,53,-1022
1709,19.512763,4,8,9,-8,51,-1029
1710,19.52444,1,9,9,-3,47,-1019
1711,19.536079,3,8,6,-5,48,-1026
1712,19.547727,1,8,11,-3,53,-1017
1713,19.559398,3,8,8,-7,52,-1017
1714,19.571053,4,6,8,-6,51,-1020
1715,19.582705,3,7,7,-2,49,-1020
1716,19.594353,1,7,9,-2,50,-1020
1717,19.606023,1,7,9,-1,51,-1018
1718,19.617718,2,7,9,-4,51,-1023
1719,19.629394,3,6,9,-3,50,-1021
1720,19.641065,0,6,8,-2,53,-1024
1721,19.652712,3,8,10,-4,49,-1024
1722,19.66435,4,5,7,-3,51,-1025
1723,19.675995,4,5,9,-1,51,-1023
1724,19.687668,3,5,7,1,52,-1023
1725,19.699312,4,6,7,-1,51,-1024
1726,19.710958,3,4,6,-3,49,-1023
1727,19.722661,0,5,10,-6,51,-1016
1728,19.734273,4,5,8,-1,51,-1019
1729,19.745851,5,7,9,-1,53,-1018
1730,19.757409,3,6,7,-3,49,-1025
1731,19.769009,2,7,10,-6,49,-1022
1732,19.780537,4,5,8,-1,52,-1020
1733,19.792074,3,6,9,-4,52,-1021
1734,19.80362,3,5,8,-1,48,-1019
1735,19.815163,4,6,8,-3,52,-1017
1736,19.82672,2,4,10,-3,53,-1020
1737,19.83834,4,6,8,-5,51,-1020
1738,19.850003,2,5,7,-6,47,-1022
1739,19.861703,4,4,8,-4,49,-1025
1740,19.873357,0,5,9,-1,48,-1015
1741,19.885039,2,7,8,-4,52,-1016
1742,19.896699,4,7,10,-4,49,-1024
1743,19.90834,2,4,8,-2,48,-1024
1744,19.919996,3,5,9,-2,49,-1024
1745,19.93165,2,6,9,-5,51,-1020
1746,19.943321,3,6,8,-5,53,-1023
1747,19.954889,1,7,8,-1,51,-1017
1748,19.966435,4,5,10,-8,50,-1022
1749,19.978014,1,4,9,-6,51,-1016
1750,19.989582,1,7,7,-1,48,-1019
1751,20.001143,3,6,8,-3,51,-1025
1752,20.012722,4,6,10,1,51,-1031
1753,20.024271,1,7,9,-4,46,-1017
1754,20.035831,2,7,8,0,51,-1023
1755,20.047445,1,6,6,-5,50,-1019
1756,20.059108,2,6,9,-2,46,-1026
1757,20.070762,4,5,9,-2,52,-1018
1758,20.082451,3,4,9,0,51,-1024
1759,20.094112,2,4,6,-2,53,-1028
1760,20.105785,3,6,10,-2,52,-1024
1761,20.117454,2,7,7,-4,47,-1028
1762,20.129123,3,7,8,-1,51,-1027
1763,20.14081,3,5,8,-2,51,-1023
1764,20.152535,2,6,10,-5,49,-1021
1765,20.164117,5,5,9,-7,54,-1019
1766,20.175675,4,5,9,-3,49,-1020
1767,20.187254,4,4,10,-6,49,-1015
1768,20.1988,2,5,9,-1,50,-1016
1769,20.210361,2,7,10,-5,51,-1021
1770,20.2219,3,4,8,-6,53,-1020
1771,20.233462,3,4,6,-5,49,-1019
1772,20.245033,4,2,8,-1,47,-1019
1773,20.256678,3,5,11,-4,48,-1021
1774,20.268328,2,6,10,0,48,-1026
1775,20.279982,2,8,8,-4,52,-1032
1776,20.291653,2,5,7,-3,52,-1011
1777,20.303308,2,5,7,-1,49,-1027
1778,20.31496,2,6,11,-2,52,-1020
1779,20.326613,3,5,10,-4,50,-1016
1780,20.338254,1,3,9,-3,50,-1019
1781,20.350084,3,6,8,0,50,-1013
1782,20.361764,4,5,10,-4,49,-1023
1783,20.373377,2,6,8,-2,53,-1021
1784,20.384964,1,5,8,-2,48,-1019
1785,20.39654,3,7,9,-3,50,-1027
1786,20.408116,3,6,11,-3,51,-1023
1787,20.419667,3,5,9,0,52,-1022
1788,20.431256,4,5,11,-1,51,-1022
1789,20.442844,2,6,6,1,51,-1021
1790,20.454444,2,7,8,-1,53,-1016
1791,20.466063,0,7,11,-3,50,-1027
1792,20.477735,4,6,9,-2,49,-1012
1793,20.489442,4,4,8,2,48,-1019
1794,20.501111,2,6,7,-5,50,-1023
1795,20.512798,1,6,7,-6,50,-1018
1796,20.524454,3,6,9,-1,52,-1029
1797,20.536124,3,5,9,0,50,-1023
1798,20.547786,2,7,8,0,49,-1014
1799,20.559454,3,5,7,-3,51,-1021
1800,20.571157,1,4,6,-4,53,-1025
1801,20.58281,2,5,10,-1,53,-1022
1802,20.594454,2,7,9,1,48,-1029
1803,20.606013,2,5,8,-1,49,-1018
1804,20.61758,3,6,7,-2,51,-1016
1805,20.629154,3,5,9,-2,44,-1023
1806,20.64071,2,5,10,-9,50,-1020
1807,20.652264,0,7,9,-3,50,-1020
1808,20.66385,1,6,8,0,51,-1021
1809,20.675512,2,9,9,-3,52,-1023
1810,20.687179,3,6,9,-2,55,-1023
1811,20.698836,2,5,8,0,48,-1023
1812,20.710491,3,7,10,-3,51,-1024
1813,20.722151,5,6,12,-3,55,-1027
1814,20.733841,1,8,8,-1,53,-1016
1815,20.745491,5,6,7,-1,47,-1025
1816,20.75718,1,6,10,-2,49,-1015
1817,20.768826,1,6,8,-3,52,-1021
1818,20.780486,1,6,8,-1,49,-1023
1819,20.792051,3,7,10,-9,53,-1024
1820,20.803622,3,5,9,-3,49,-1017
1821,20.815173,1,5,9,-5,47,-1021
1822,20.826746,4,6,10,-1,47,-1016
1823,20.838318,2,5,9,0,50,-1010
1824,20.849873,3,4,9,-4,47,-1026
1825,20.861419,4,6,9,-3,48,-1021
1826,20.872978,2,4,8,-5,50,-1026
1827,20.8846,3,8,7,-2,51,-1020
1828,20.896248,2,8,10,-3,50,-1021
1829,20.907918,3,5,9,-5,49,-1024
1830,20.919565,3,5,10,-2,51,-1023
1831,20.931216,2,9,7,-6,51,-1023
1832,20.942909,5,5,11,-3,50,-1015
1833,20.954556,2,6,10,0,52,-1021
1834,20.966206,2,8,8,-5,52,-1016
1835,20.977817,3,5,7,-3,49,-1016
1836,20.98938,3,7,9,-3,54,-1024
1837,21.000932,3,6,9,-1,48,-1019
1838,21.012522,4,8,9,0,50,-1023
1839,21.02406,3,7,6,-2,49,-1015
1840,21.035607,1,4,8,-6,48,-1019
1841,21.047151,3,6,7,1,50,-1016
1842,21.058694,2,7,9,-5,53,-1016
1843,21.070235,3,7,9,-2,51,-1020
1844,21.081798,2,4,8,-3,53,-1024
1845,21.093444,0,7,10,0,49,-1021
1846,21.105116,2,7,10,-6,51,-1019
1847,21.116839,4,5,7,-7,48,-1022
1848,21.128545,2,5,8,-3,48,-1022
1849,21.140197,2,7,9,-7,51,-1025
1850,21.151853,4,7,9,0,52,-1021
1851,21.16355,3,3,10,0,53,-1019
1852,21.175199,4,6,9,0,53,-1021
1853,21.186868,3,4,10,-2,47,-1032
1854,21.198551,3,6,10,-4,52,-1023
1855,21.210232,3,6,9,0,50,-1023
1856,21.221899,3,4,8,-2,50,-1020
1857,21.233585,3,7,8,-2,47,-1022
1858,21.245563,2,7,8,0,50,-1022
1859,21.257339,3,5,9,-4,53,-1026
1860,21.269059,2,8,8,-1,47,-1025
1861,21.280717,2,6,7,-6,48,-1024
1862,21.29246,4,5,9,-2,50,-1018
1863,21.304135,3,4,8,-3,47,-1027
1864,21.315798,2,7,9,-6,50,-1026
1865,21.327462,3,4,8,-2,50,-1024
1866,21.339135,2,7,8,-2,53,-1023
1867,21.350792,4,5,8,0,49,-1022
1868,21.36247,4,5,9,-4,51,-1021
1869,21.374236,3,6,11,-6,49,-1018
1870,21.385903,2,6,9,-7,56,-1019
1871,21.397577,2,6,7,-2,53,-1018
1872,21.409139,1,7,8,-5,54,-1017
1873,21.420686,4,4,9,-5,51,-1021
1874,21.432237,2,7,8,0,50,-1020
1875,21.443784,2,8,7,-1,50,-1015
1876,21.455363,3,7,7,-1,51,-1020
1877,21.466902,3,8,8,-1,49,-1020
1878,21.478445,3,8,8,-1,49,-1025
1879,21.489992,4,7,8,-4,50,-1020
1880,21.501558,4,7,7,-7,47,-1022
1881,21.513239,4,8,6,0,51,-1022
1882,21.524936,3,6,8,-7,49,-1017
1883,21.5366,3,6,9,-2,48,-1019
1884,21.548281,2,7,8,-7,54,-1023
1885,21.559935,5,6,10,0,49,-1024
1886,21.571589,2,6,9,-5,51,-1014
1887,21.583302,4,5,8,0,52,-1028
1888,21.594942,1,7,9,0,52,-1026
1889,21.606612,1,6,7,-6,51,-1022
1890,21.618295,3,8,7,-1,50,-1024
1891,21.629867,3,6,9,0,50,-1018
1892,21.64142,4,5,12,-5,47,-1020
1893,21.653009,3,7,9,0,53,-1017
1894,21.664537,2,5,8,-1,55,-1017
1895,21.676085,4,7,9,0,50,-1018
1896,21.687631,3,5,9,-2,51,-1021
1897,21.699234,1,7,9,-3,49,-1020
1898,21.710792,1,7,10,0,47,-1018
1899,21.722444,2,5,8,-4,50,-1016
1900,21.734126,1,5,7,-6,54,-1027
1901,21.745822,2,4,10,-4,54,-1019
1902,21.75751,3,5,9,-4,46,-1021
1903,21.76919,2,6,11,-2,52,-1019
1904,21.780853,4,4,9,0,51,-1018
1905,21.792554,3,5,12,2,49,-1018
1906,21.804202,2,7,9,-2,45,-1024
1907,21.815878,4,7,7,-1,50,-1019
1908,21.827554,3,5,10,-1,53,-1023
1909,21.839127,2,4,8,1,49,-1024
1910,21.850675,2,5,8,0,52,-1022
1911,21.862221,3,8,8,0,50,-1018
1912,21.873832,6,6,8,0,50,-1023
1913,21.885388,3,8,7,-5,52,-1018
1914,21.896971,1,5,10,-3,53,-1023
1915,21.90853,2,6,8,0,51,-1024
1916,21.920089,2,4,8,1,49,-1019
1917,21.931705,3,7,10,-9,51,-1021
1918,21.943348,1,5,6,1,50,-1014
1919,21.955026,5,4,8,-6,53,-1018
1920,21.966679,1,5,7,-3,49,-1013
1921,21.978331,2,6,8,-2,52,-1021
1922,21.990001,2,7,10,0,51,-1017
1923,22.001695,3,6,8,0,52,-1020
1924,22.01332,4,7,8,-1,50,-1022
1925,22.024995,0,6,9,-1,51,-1018
1926,22.036663,3,6,9,-4,49,-1022
1927,22.048224,2,7,6,0,54,-1020
1928,22.059781,2,3,7,-6,50,-1023
1929,22.071355,2,7,9,-2,53,-1025
1930,22.082915,1,6,9,-5,49,-1024
1931,22.094509,1,5,7,-2,48,-1018
1932,22.10608,1,5,9,-3,46,-1021
1933,22.117633,3,6,8,-4,51,-1019
1934,22.129196,3,6,8,-1,53,-1024
1935,22.140818,4,5,8,0,49,-1017
1936,22.152473,2,5,10,-5,50,-1020
1937,22.164121,3,5,7,-2,48,-1020
1938,22.175809,2,6,6,-4,47,-1018
1939,22.187449,1,4,7,-5,51,-1021
1940,22.199099,3,7,9,-6,47,-1025
1941,22.210779,0,8,10,4,52,-1023
1942,22.222436,2,6,9,1,47,-1020
1943,22.234107,2,6,8,-7,50,-1025
1944,22.245763,4,5,9,0,51,-1017
1945,22.257358,3,4,9,-3,46,-1026
1946,22.268916,2,5,8,-3,51,-1020
1947,22.280479,3,7,8,-1,48,-1022
1948,22.292015,1,5,8,-3,52,-1021
1949,22.303567,2,4,8,-1,47,-1025
1950,22.315117,2,7,7,-6,50,-1018
1951,22.326684,4,5,7,-3,50,-1022
1952,22.338254,4,4,7,-6,50,-1015
1953,22.349949,0,7,8,-4,51,-1020
1954,22.361583,1,6,10,-1,50,-1013
1955,22.373254,2,5,7,-3,51,-1017
1956,22.384941,3,6,9,0,54,-1028
1957,22.396613,2,4,8,0,51,-1023
1958,22.408292,5,7,9,-2,52,-1018
1959,22.419926,1,7,11,-6,53,-1019
1960,22.431574,2,5,9,-2,50,-1020
1961,22.443259,2,7,7,-15,52,-1019
1962,22.454917,2,6,8,-3,51,-1023
1963,22.466493,2,5,8,-5,49,-1020
1964,22.478043,2,7,9,-4,50,-1016
1965,22.489627,2,6,8,-1,50,-1021
1966,22.501215,1,8,9,0,52,-1015
1967,22.512771,2,4,10,-5,50,-1023
1968,22.524311,3,6,8,-4,50,-1021
1969,22.535861,3,6,6,-2,51,-1012
1970,22.547417,3,8,8,-5,50,-1022
1971,22.559033,2,6,6,0,53,-1025
1972,22.570683,1,5,10,-4,52,-1020
1973,22.582334,3,4,8,-2,52,-1022
1974,22.594003,1,5,8,-8,53,-1021
1975,22.605691,3,6,9,-1,54,-1020
1976,22.617321,4,6,6,0,50,-1017
1977,22.628996,3,5,11,-1,50,-1021
1978,22.64067,3,6,10,-5,49,-1025
1979,22.652334,2,5,8,-3,49,-1021
1980,22.663995,3,5,8,-2,50,-1018
1981,22.67557,1,7,8,-1,48,-1019
1982,22.687123,2,6,7,0,51,-1023
1983,22.69874,3,4,10,-6,51,-1023
1984,22.710291,1,5,8,1,53,-1017
1985,22.721858,1,6,8,-5,51,-1022
1986,22.733409,1,6,9,-3,51,-1024
1987,22.745009,0,5,8,-1,47,-1020
1988,22.756602,2,5,8,-6,51,-1024
1989,22.768219,3,6,9,-1,53,-1019
1990,22.77989,2,5,9,-4,53,-1024
1991,22.791575,2,6,10,-4,51,-1015
1992,22.803231,4,6,9,-1,52,-1016
1993,22.814914,2,7,6,-7,52,-1016
1994,22.826572,4,7,8,-3,49,-1018
1995,22.838246,2,5,8,-2,53,-1020
1996,22.849912,1,7,8,-1,49,-1028
1997,22.861592,1,5,9,-4,48,-1019
1998,22.873266,5,6,6,-3,52,-1020
1999,22.884858,1,9,12,-3,50,-1019
