sample,t_s,gyro_x,gyro_y,gyro_z,accel_x,accel_y,accel_z
0,1.4e-05,1,-1,0,1018,2,-1529
1,0.011242,1,0,2,1019,0,-1533
2,0.022435,2,0,0,1014,1,-1531
3,0.033627,2,0,0,1019,3,-1531
4,0.044813,3,3,-1,1017,0,-1529
5,0.056003,1,0,1,1019,0,-1533
6,0.06719,-1,1,1,1018,-2,-1535
7,0.078375,0,1,0,1021,-1,-1538
8,0.089572,0,1,-1,1023,2,-1528
9,0.100755,0,-1,0,1019,-2,-1534
10,0.111944,1,-1,2,1017,1,-1529
11,0.123132,-1,0,2,1020,-1,-1528
12,0.134317,0,1,0,1020,1,-1530
13,0.145506,0,0,3,1016,0,-1532
14,0.156694,1,0,-1,1019,3,-1529
15,0.167878,-2,-1,4,1019,4,-1531
16,0.179063,2,0,1,1013,0,-1532
17,0.19025,1,-3,0,1021,0,-1530
18,0.201444,0,0,3,1022,0,-1546
19,0.212627,-3,3,0,1016,-2,-1502
20,0.223818,4,-6,-1,1017,7,-1549
21,0.235006,0,0,0,1019,2,-1528
22,0.246188,1,2,0,1018,4,-1532
23,0.257386,0,-6,2,1018,-3,-1541
24,0.268569,0,2,1,1021,0,-1532
25,0.27976,1,1,-1,1012,0,-1514
26,0.290952,-2,0,1,1020,3,-1524
27,0.302139,1,2,-1,1021,6,-1548
28,0.313368,2,-3,1,1019,5,-1530
29,0.324552,-3,-1,2,1017,1,-1529
30,0.335747,5,0,1,1018,4,-1554
31,0.346933,1,2,2,1011,1,-1503
32,0.358125,-5,-1,2,1017,0,-1509
33,0.369319,-1,4,-1,1023,-4,-1521
34,0.380502,-1,1,0,1022,2,-1528
35,0.391688,0,-2,1,1023,-1,-1525
36,0.40287,4,-1,-1,1022,-1,-1539
37,0.414063,-1,1,3,1015,1,-1537
38,0.425253,0,-2,0,1021,-1,-1529
39,0.436436,3,-2,0,1021,-2,-1528
40,0.447622,-2,3,1,1018,3,-1531
41,0.458805,3,-3,0,1016,5,-1542
42,0.469996,-4,-2,2,1018,4,-1537
43,0.481197,4,-1,1,1023,4,-1537
44,0.492381,1,2,-1,1020,-2,-1517
45,0.503562,0,0,-1,1018,0,-1537
46,0.514746,3,0,1,1018,1,-1536
47,0.525932,-1,-3,-1,1012,-2,-1531
48,0.537123,1,1,-1,1017,2,-1530
49,0.548309,1,-1,1,1021,0,-1533
50,0.559494,1,0,0,1023,-3,-1523
51,0.570679,1,-2,1,1023,0,-1531
52,0.581865,0,-1,2,1022,0,-1527
53,0.593066,3,-1,-1,1017,-2,-1527
54,0.604251,-1,0,1,1020,0,-1536
55,0.615435,1,0,0,1020,2,-1533
56,0.626619,1,-4,0,1016,-1,-1535
57,0.637812,0,1,-1,1014,-1,-1527
58,0.648994,1,0,0,1018,3,-1535
59,0.660179,2,-1,-3,1021,0,-1534
60,0.671366,2,5,-1,1022,3,-1526
61,0.682549,0,-2,-1,1012,4,-1524
62,0.693744,0,-1,0,1022,-1,-1531
63,0.704927,1,0,-3,1020,2,-1536
64,0.716114,1,1,1,1023,0,-1529
65,0.727299,0,2,1,1019,0,-1534
66,0.738486,-1,-2,2,1016,0,-1526
67,0.749677,0,0,1,1021,1,-1530
68,0.760862,1,0,1,1018,3,-1536
69,0.772048,0,0,2,1017,-2,-1534
70,0.78326,1,0,2,1015,-3,-1531
71,0.794444,-1,-1,0,1020,1,-1530
72,0.805622,0,0,1,1018,-1,-1522
73,0.816815,1,-2,-1,1020,0,-1536
74,0.828001,2,0,-2,1021,3,-1532
75,0.839189,-1,2,-1,1018,0,-1527
76,0.850373,-1,0,0,1016,0,-1528
77,0.861571,2,-1,-1,1017,2,-1537
78,0.872755,1,-1,-1,1014,0,-1532
79,0.883934,-2,2,0,1017,-1,-1527
80,0.89512,2,1,1,1021,0,-1528
81,0.906306,0,2,1,1020,4,-1537
82,0.917493,0,3,1,1019,0,-1529
83,0.928677,1,0,0,1018,-2,-1535
84,0.939863,-1,-1,0,1019,1,-1530
85,0.951047,1,6,1,1022,0,-1529
86,0.96223,2,-1,1,1015,-1,-1528
87,0.973419,2,1,1,1021,2,-1531
88,0.984642,1,-2,1,1019,0,-1527
89,0.995953,2,-1,0,1018,0,-1532
90,1.007149,0,0,0,1019,0,-1533
91,1.018336,1,1,4,1015,-4,-1533
92,1.029523,0,-1,2,1013,4,-1532
93,1.040712,0,1,0,1017,2,-1532
94,1.051895,1,-1,-1,1019,0,-1530
95,1.06308,1,1,1,1020,1,-1526
96,1.074265,-1,2,2,1017,4,-1527
97,1.085442,1,-1,1,1020,0,-1528
98,1.096626,0,0,3,1020,4,-1528
99,1.107812,2,1,1,1017,-1,-1532
100,1.119005,0,0,1,1017,-1,-1531
101,1.130191,1,-1,-1,1017,1,-1529
102,1.141381,-2,-2,-1,1025,-3,-1529
103,1.152563,0,-2,0,1018,0,-1528
104,1.163751,-1,1,5,1018,0,-1530
105,1.174938,0,0,0,1014,1,-1534
106,1.186129,0,0,1,1014,2,-1527
107,1.197319,0,1,-1,1019,-3,-1529
108,1.208509,-1,2,0,1018,0,-1533
109,1.219699,1,0,1,1020,1,-1523
110,1.230882,0,0,2,1019,0,-1517
111,1.242069,2,2,2,1019,0,-1532
112,1.253255,1,0,0,1015,1,-1533
113,1.264467,1,3,2,1019,1,-1526
114,1.275657,0,-1,1,1020,-2,-1529
115,1.286841,2,0,1,1019,0,-1525
116,1.297992,1,-1,1,1017,4,-1525
117,1.309181,1,0,0,1019,-1,-1539
118,1.320366,-2,0,3,1019,2,-1530
119,1.331553,1,-1,1,1015,0,-1535
120,1.342739,-2,-1,2,1013,0,-1530
121,1.353926,-1,-2,0,1014,1,-1533
122,1.365117,0,1,1,1020,1,-1534
123,1.376303,-2,-2,2,1020,0,-1530
124,1.387493,-1,0,2,1020,-3,-1528
125,1.39868,0,0,3,1016,-4,-1526
126,1.409865,0,0,-1,1016,2,-1529
127,1.421069,0,1,1,1019,0,-1530
128,1.432254,4,2,2,1022,0,-1532
129,1.443446,-2,-1,1,1021,-4,-1513
130,1.45463,0,3,0,1027,0,-1547
131,1.465812,0,2,2,1014,-1,-1515
132,1.476999,-2,-1,-1,1018,3,-1533
133,1.488182,1,-2,0,1019,-4,-1527
134,1.499371,-2,1,0,1018,0,-1515
135,1.510555,7,-1,-1,1015,10,-1538
136,1.521752,-2,0,2,1012,2,-1524
137,1.532943,-2,1,0,1011,10,-1533
138,1.544126,-2,1,1,1019,-1,-1517
139,1.555311,-1,1,3,1029,0,-1535
140,1.566497,2,-3,0,1026,-2,-1535
141,1.577687,-2,0,0,1024,-4,-1523
142,1.588878,3,5,0,1010,1,-1532
143,1.600062,-2,2,0,1010,1,-1531
144,1.611251,1,3,1,1016,0,-1535
145,1.622436,1,-2,2,1019,-3,-1528
146,1.633623,-2,0,-2,1020,3,-1534
147,1.64481,3,6,-2,1025,0,-1524
148,1.655991,-2,0,0,1022,7,-1525
149,1.667182,1,1,1,1017,1,-1534
150,1.678366,2,1,0,1014,3,-1523
151,1.689552,1,-2,0,1012,2,-1531
152,1.700738,1,1,3,1022,0,-1525
153,1.711919,-1,1,0,1021,3,-1522
154,1.723107,-16,-6,1,1032,-12,-1417
155,1.734293,8,-9,3,1031,10,-1577
156,1.745484,-1,8,3,1018,-17,-1506
157,1.756671,4,-8,-1,1023,-4,-1506
158,1.767856,-1,-3,0,1027,-4,-1554
159,1.779045,-1,5,1,1016,4,-1526
160,1.790233,6,-3,-2,1008,-5,-1524
161,1.801437,-5,-2,2,1012,6,-1539
162,1.81262,-1,0,2,1011,-4,-1505
163,1.823804,-1,0,2,1020,5,-1525
164,1.834999,2,-4,-1,1023,3,-1542
165,1.846184,0,1,1,1022,7,-1537
166,1.857377,1,-3,0,1021,4,-1524
167,1.868561,-1,0,0,1022,2,-1534
168,1.879767,1,0,2,1016,5,-1534
169,1.890952,3,-1,0,1011,-1,-1517
170,1.902141,-2,0,2,1013,0,-1529
171,1.913327,1,0,2,1022,2,-1534
172,1.924509,0,0,-2,1017,-3,-1527
173,1.935694,1,0,0,1017,5,-1533
174,1.946873,2,1,2,1018,0,-1530
175,1.958059,2,1,0,1017,3,-1529
176,1.969251,1,0,0,1021,0,-1538
177,1.980432,2,1,0,1021,1,-1530
178,1.991615,-2,-1,-1,1022,0,-1527
179,2.002799,2,0,0,1021,4,-1533
180,2.01399,4,-2,-1,1017,-1,-1532
181,2.02518,2,0,0,1014,-1,-1535
182,2.036367,4,-1,1,1016,0,-1529
183,2.04755,-2,0,0,1014,2,-1529
184,2.058736,1,3,3,1020,6,-1529
185,2.069931,5,1,-2,1020,0,-1535
186,2.081118,-1,1,-1,1021,5,-1527
187,2.092302,3,1,1,1017,4,-1532
188,2.103488,3,2,-1,1018,-2,-1538
189,2.114671,-3,2,-1,1017,1,-1515
190,2.125862,6,2,0,1018,0,-1528
191,2.13706,-2,4,3,1018,3,-1542
192,2.148244,1,2,-1,1019,5,-1529
193,2.15943,6,3,2,1019,-3,-1541
194,2.170613,-8,1,-1,1022,-7,-1501
195,2.181806,15,3,-1,1016,1,-1527
196,2.192991,-5,0,3,1017,-2,-1505
197,2.204177,-7,-2,-1,1021,5,-1536
198,2.215365,10,-1,2,1015,12,-1540
199,2.226561,8,1,3,1011,0,-1531
200,2.237747,-2,0,1,1028,5,-1527
201,2.248932,3,1,-2,1027,2,-1530
202,2.260114,9,-1,-1,1020,-2,-1529
203,2.271304,-3,0,0,1008,-5,-1529
204,2.28249,-5,0,1,1014,4,-1540
205,2.293679,4,-1,3,1020,-5,-1526
206,2.304872,-5,2,1,1022,-5,-1528
207,2.316055,1,0,-1,1029,3,-1538
208,2.327237,3,1,0,1021,2,-1518
209,2.338418,-2,2,2,1012,5,-1528
210,2.349617,2,3,2,1012,5,-1530
211,2.3608,1,-3,1,1019,0,-1529
212,2.371985,-3,1,1,1019,-4,-1520
213,2.383179,-2,-2,3,1022,0,-1533
214,2.394361,3,-4,0,1029,-2,-1544
215,2.40556,-2,-1,-2,1023,0,-1529
216,2.41674,1,1,0,1014,4,-1525
217,2.427923,3,0,2,1010,-1,-1529
218,2.43911,-3,-3,1,1016,3,-1528
219,2.450293,-1,2,3,1018,1,-1520
220,2.461488,-2,1,2,1018,0,-1529
221,2.47267,2,-1,0,1021,0,-1536
222,2.483855,1,1,1,1017,0,-1534
223,2.495045,-2,-4,2,1018,-2,-1535
224,2.506228,-1,2,2,1017,-2,-1533
225,2.517428,-2,-1,0,1016,0,-1523
226,2.528613,0,-1,-2,1016,2,-1531
227,2.539798,-1,1,1,1012,3,-1524
228,2.550997,-1,-3,0,1018,4,-1525
229,2.562182,-2,-2,2,1025,5,-1533
230,2.573369,3,-1,0,1027,1,-1535
231,2.584569,-1,-2,-1,1026,7,-1517
232,2.595753,0,-2,0,1024,6,-1530
233,2.606939,2,1,1,1011,0,-1535
234,2.618124,2,0,2,1010,0,-1528
235,2.629307,2,-1,1,1005,1,-1534
236,2.640489,2,1,0,1008,4,-1532
237,2.651675,2,3,2,1014,2,-1523
238,2.662856,-1,0,2,1026,1,-1529
239,2.674047,1,1,0,1025,0,-1528
240,2.685247,4,-2,1,1021,0,-1534
241,2.696431,0,1,-1,1020,-2,-1525
242,2.707615,0,0,1,1014,2,-1524
243,2.718799,-2,-1,2,1022,-5,-1525
244,2.729992,-1,0,1,1024,-3,-1533
245,2.741181,3,-1,1,1021,-5,-1528
246,2.752364,1,0,1,1017,-3,-1538
247,2.763551,-3,-1,3,1016,-1,-1527
248,2.774733,4,-1,1,1017,-5,-1534
249,2.785921,-2,2,1,1021,-3,-1533
250,2.797068,1,1,2,1022,4,-1526
251,2.808249,2,-2,0,1026,-1,-1533
252,2.819434,0,-1,2,1016,2,-1531
253,2.830616,4,-2,1,1015,3,-1531
254,2.841806,2,-1,0,1011,4,-1533
255,2.85299,-1,-1,1,1011,0,-1532
256,2.864175,2,1,-2,1014,2,-1531
257,2.875357,0,3,1,1015,-1,-1531
258,2.886542,2,1,1,1021,2,-1532
259,2.897738,1,0,1,1021,-2,-1527
260,2.908924,-1,0,2,1019,-1,-1536
261,2.920108,2,1,-1,1021,-1,-1535
262,2.931292,-1,-1,0,1019,-5,-1523
263,2.942493,1,0,1,1021,0,-1530
264,2.953679,2,1,-1,1020,-3,-1531
265,2.96486,-1,-3,0,1017,0,-1524
266,2.976043,3,5,0,1016,4,-1534
267,2.987229,-2,0,1,1019,0,-1527
268,2.998412,0,0,1,1021,-1,-1531
269,3.009605,3,-2,1,1022,-3,-1532
270,3.020787,0,1,1,1020,0,-1532
271,3.031972,1,2,3,1020,0,-1527
272,3.043172,2,-1,1,1023,-2,-1530
273,3.054357,0,-3,1,1020,0,-1528
274,3.065549,1,0,1,1022,2,-1527
275,3.076732,1,2,2,1020,-3,-1534
276,3.087913,1,0,-1,1015,0,-1536
277,3.099101,0,-1,-1,1014,-2,-1537
278,3.110289,2,-1,1,1019,-3,-1535
279,3.121438,-1,0,-1,1016,-2,-1526
280,3.13262,1,-3,2,1016,-1,-1528
281,3.143803,-1,-2,2,1014,-1,-1530
282,3.154992,0,-1,1,1019,4,-1535
283,3.166173,1,-1,1,1020,4,-1535
284,3.177367,-1,2,1,1017,2,-1529
285,3.18855,2,3,0,1021,5,-1526
286,3.199767,-1,-1,2,1019,1,-1521
287,3.21115,2,0,4,1021,3,-1534
288,3.222366,0,0,0,1021,-3,-1523
289,3.233559,1,-2,3,1019,0,-1534
290,3.244747,4,6,-1,1020,1,-1533
291,3.255932,-1,-1,2,1020,-1,-1525
292,3.267114,2,1,0,1020,-2,-1537
293,3.278299,1,0,-2,1019,0,-1524
294,3.289486,1,1,0,1016,1,-1535
295,3.300695,1,-1,1,1020,4,-1533
296,3.311882,0,2,2,1017,3,-1531
297,3.323067,2,-1,0,1018,0,-1534
298,3.33425,1,-1,2,1016,0,-1530
299,3.345439,0,1,3,1020,0,-1530
300,3.35662,1,0,0,1017,1,-1538
301,3.367803,-1,1,1,1021,0,-1527
302,3.379002,-1,1,1,1019,-1,-1529
303,3.390185,1,1,-1,1020,-1,-1531
304,3.401374,-1,0,3,1021,-1,-1531
305,3.412556,-1,-3,0,1018,-2,-1531
306,3.423748,0,-1,0,1023,3,-1533
307,3.434933,-1,-1,2,1019,1,-1532
308,3.446118,0,-2,2,1016,1,-1525
309,3.457313,0,-2,1,1020,0,-1535
310,3.468495,0,1,3,1020,1,-1533
311,3.479679,0,1,0,1021,0,-1528
312,3.490872,3,-3,1,1021,3,-1533
313,3.50206,1,1,1,1016,-1,-1531
314,3.513254,4,-2,0,1017,1,-1529
315,3.524438,-1,0,1,1019,3,-1524
316,3.535621,2,0,0,1018,2,-1524
317,3.546804,2,1,0,1019,0,-1538
318,3.557994,-1,-2,2,1018,2,-1536
319,3.569182,1,0,1,1017,2,-1526
320,3.580367,-1,0,0,1016,2,-1529
321,3.591552,0,2,1,1015,0,-1530
322,3.602734,2,3,0,1020,0,-1523
323,3.613919,0,-1,1,1020,3,-1521
324,3.625069,0,0,0,1022,0,-1530
325,3.636251,0,0,0,1021,0,-1527
326,3.647434,1,2,-1,1019,0,-1535
327,3.658627,1,-2,1,1020,0,-1529
328,3.669807,-2,3,3,1017,0,-1534
329,3.680989,0,-2,0,1021,0,-1536
330,3.692171,1,-1,-2,1017,0,-1533
331,3.703361,-1,2,2,1021,-3,-1535
332,3.714544,1,1,2,1019,-2,-1530
333,3.725737,2,0,1,1017,1,-1535
334,3.736925,2,-1,1,1017,0,-1528
335,3.748108,1,0,-1,1016,0,-1532
336,3.759294,1,-1,-1,1020,0,-1533
337,3.77048,2,1,0,1019,0,-1532
338,3.781677,0,2,0,1015,6,-1527
339,3.792862,-1,0,2,1016,-3,-1530
340,3.804046,-1,0,-1,1021,4,-1537
341,3.815232,1,-1,2,1019,0,-1533
342,3.826414,1,0,1,1021,1,-1523
343,3.837617,2,-1,0,1017,-2,-1531
344,3.848799,1,0,0,1019,3,-1533
345,3.859981,1,-1,1,1018,0,-1533
346,3.871166,0,-2,0,1016,-1,-1531
347,3.88235,3,4,2,1016,3,-1532
348,3.89355,1,-2,0,1018,-1,-1531
349,3.904731,1,-2,-1,1018,1,-1538
350,3.915915,0,0,-1,1019,2,-1535
351,3.927111,0,-1,1,1020,-1,-1524
352,3.938682,0,1,0,1019,0,-1532
353,3.950359,0,-1,-1,1021,3,-1527
354,3.96204,0,0,0,1020,3,-1527
355,3.973701,-1,-2,1,1019,4,-1534
356,3.985383,1,0,2,1021,4,-1528
357,3.997033,0,2,2,1017,0,-1533
358,4.008685,0,1,3,1019,-1,-1533
359,4.020369,1,1,0,1015,4,-1536
360,4.032042,0,1,-1,1021,0,-1528
361,4.04372,-2,0,3,1019,-2,-1533
362,4.055277,1,-1,3,1020,-3,-1533
363,4.066855,0,0,-1,1018,5,-1537
364,4.078453,2,1,0,1021,1,-1531
365,4.090012,0,2,0,1016,1,-1533
366,4.101593,1,2,2,1019,3,-1528
367,4.113154,1,2,1,1020,-2,-1531
368,4.124707,-1,-1,1,1019,-3,-1527
369,4.136277,1,-1,2,1019,1,-1531
370,4.147937,0,0,1,1018,1,-1532
371,4.159606,0,-2,0,1020,2,-1533
372,4.171264,-1,2,0,1017,-3,-1527
373,4.182937,1,2,0,1021,4,-1532
374,4.1946,2,0,-1,1021,0,-1531
375,4.206275,0,1,0,1019,4,-1525
376,4.217943,0,1,1,1020,4,-1527
377,4.229637,-2,-1,1,1020,1,-1529
378,4.241294,2,2,1,1019,3,-1531
379,4.252871,0,-2,1,1018,-2,-1531
380,4.264414,1,0,-1,1020,-1,-1533
381,4.275961,0,-3,1,1022,-2,-1526
382,4.287511,1,-1,0,1020,0,-1530
383,4.299059,2,-1,0,1022,0,-1526
384,4.310605,1,0,1,1020,1,-1536
385,4.322194,2,0,0,1020,2,-1532
386,4.333756,1,-1,2,1019,0,-1528
387,4.345335,0,1,-3,1015,1,-1535
388,4.356993,-1,1,1,1020,4,-1534
389,4.368643,-1,0,3,1021,1,-1535
390,4.3803,0,0,1,1016,0,-1532
391,4.39198,2,0,1,1018,1,-1529
392,4.403656,2,0,0,1017,2,-1527
393,4.415304,2,-2,1,1016,1,-1532
394,4.426954,2,1,1,1019,3,-1533
395,4.438664,3,1,0,1019,1,-1525
396,4.450316,1,1,1,1017,6,-1525
397,4.461968,1,2,-1,1019,-1,-1536
398,4.473646,1,0,-2,1021,0,-1528
399,4.485302,-1,0,1,1022,1,-1530
400,4.496949,-1,-2,3,1021,2,-1539
401,4.508604,2,-1,1,1014,0,-1527
402,4.520291,0,1,1,1020,3,-1535
403,4.531947,0,1,0,1020,0,-1529
404,4.543607,-1,0,0,1015,1,-1530
405,4.555282,2,-1,0,1019,3,-1535
406,4.566863,-1,1,2,1021,3,-1525
407,4.578426,1,-1,2,1019,1,-1530
408,4.590001,0,0,1,1016,2,-1532
409,4.601585,-1,0,1,1019,0,-1530
410,4.613106,1,0,0,1019,0,-1528
411,4.624649,0,-1,1,1018,-1,-1534
412,4.636197,2,-2,-1,1020,0,-1531
413,4.647761,0,3,1,1016,-3,-1527
414,4.659398,0,-1,-1,1018,0,-1531
415,4.671051,0,-1,1,1019,3,-1533
416,4.6827,1,1,1,1021,0,-1529
417,4.694393,2,0,1,1021,2,-1537
418,4.706049,1,1,1,1017,3,-1532
419,4.717705,0,0,0,1019,0,-1539
420,4.729382,0,0,0,1021,1,-1530
421,4.741028,0,1,1,1018,0,-1525
422,4.752669,1,-1,0,1014,-3,-1528
423,4.764242,1,1,3,1019,0,-1530
424,4.775789,1,-1,2,1017,0,-1540
425,4.787359,3,-1,1,1016,-3,-1522
426,4.798919,2,0,0,1018,2,-1532
427,4.81049,1,1,3,1015,1,-1527
428,4.82207,-2,-2,1,1021,3,-1528
429,4.833628,1,0,0,1020,2,-1529
430,4.845226,-1,0,1,1018,3,-1531
431,4.856785,1,0,-1,1018,2,-1532
432,4.868426,2,-1,0,1018,2,-1532
433,4.880089,0,-1,1,1021,1,-1535
434,4.891771,1,0,2,1019,0,-1526
435,4.903429,2,-1,2,1017,1,-1530
436,4.915084,0,1,0,1015,0,-1526
437,4.926729,1,-2,2,1015,2,-1539
438,4.938408,2,-1,0,1017,5,-1532
439,4.950075,2,-1,2,1019,1,-1526
440,4.961768,2,0,0,1018,-2,-1525
441,4.973431,-1,-1,0,1020,2,-1536
442,4.984997,1,2,1,1020,0,-1531
443,4.996587,1,-1,0,1021,1,-1531
444,5.008138,1,0,0,1020,1,-1527
445,5.019719,2,-2,0,1022,-1,-1533
446,5.031263,2,-2,-1,1018,1,-1533
447,5.042807,0,1,-1,1018,6,-1531
448,5.05436,0,0,0,1023,1,-1531
449,5.065914,1,-1,1,1017,-1,-1532
450,5.077555,-1,2,0,1017,-1,-1535
451,5.089236,0,-1,2,1023,0,-1530
452,5.100888,2,-1,2,1022,0,-1532
453,5.112541,1,-1,0,1019,-4,-1532
454,5.124215,1,-1,0,1018,1,-1532
455,5.135864,1,-1,2,1019,-5,-1533
456,5.147521,1,0,1,1016,1,-1538
457,5.159179,1,-1,1,1023,0,-1532
458,5.170831,3,2,-1,1020,-3,-1530
459,5.182535,1,-1,2,1017,-1,-1529
460,5.194102,-2,1,1,1015,3,-1523
461,5.205661,0,0,-1,1020,-1,-1525
462,5.217224,1,0,-1,1019,1,-1532
463,5.228783,3,-1,1,1019,1,-1541
464,5.240335,0,0,-1,1018,1,-1531
465,5.251919,2,-1,0,1016,2,-1529
466,5.263495,-1,1,1,1019,0,-1524
467,5.275061,1,-1,1,1016,0,-1533
468,5.286678,1,0,-1,1020,-1,-1535
469,5.298341,0,1,2,1021,0,-1535
470,5.310009,0,3,2,1019,-1,-1522
471,5.321678,-1,1,1,1021,0,-1533
472,5.333371,0,1,2,1020,0,-1535
473,5.345023,-1,1,2,1022,0,-1530
474,5.356667,1,0,3,1021,0,-1529
475,5.368319,0,-1,-1,1021,-3,-1530
476,5.379998,0,1,1,1018,-2,-1534
477,5.391669,0,-1,3,1016,-3,-1534
478,5.403237,0,0,0,1020,-1,-1533
479,5.414793,0,3,3,1018,0,-1529
480,5.426345,1,0,1,1019,0,-1530
481,5.437902,0,-3,1,1021,6,-1525
482,5.449491,0,1,-1,1016,2,-1528
483,5.46103,1,1,1,1015,3,-1529
484,5.472566,2,-2,1,1021,-1,-1526
485,5.484128,-1,1,1,1015,3,-1531
486,5.495772,1,-2,2,1018,0,-1531
487,5.507428,0,-2,1,1016,0,-1529
488,5.519078,2,-1,-1,1019,1,-1530
489,5.530869,0,0,1,1017,3,-1534
490,5.542535,0,-1,2,1018,-3,-1531
491,5.554195,0,0,-2,1021,1,-1534
492,5.565893,2,0,1,1021,2,-1524
493,5.577545,1,-1,0,1020,4,-1533
494,5.589185,0,-1,-1,1021,0,-1525
495,5.600738,0,-2,0,1018,2,-1530
496,5.612291,2,-2,-1,1020,0,-1532
497,5.623873,0,0,2,1019,0,-1531
498,5.635421,0,0,0,1018,-3,-1530
499,5.647009,0,-2,0,1021,-1,-1530
500,5.65855,1,-1,1,1019,3,-1525
501,5.670066,-1,2,3,1021,0,-1531
502,5.681588,2,0,3,1019,4,-1527
503,5.693118,0,2,2,1018,1,-1529
504,5.704734,-1,0,2,1019,-1,-1529
505,5.716381,2,-1,0,1021,1,-1527
506,5.728041,-2,-1,-1,1021,0,-1537
507,5.73969,-1,-2,1,1017,0,-1527
508,5.751328,-2,-1,0,1017,2,-1528
509,5.762971,1,-2,0,1015,2,-1531
510,5.774662,2,0,0,1013,0,-1529
511,5.786312,0,0,1,1021,1,-1528
512,5.797975,2,0,1,1016,3,-1529
513,5.809632,1,-1,1,1021,0,-1528
514,5.821248,0,-1,0,1018,3,-1525
515,5.832808,2,0,-1,1016,3,-1535
516,5.844358,0,0,3,1017,1,-1528
517,5.855904,0,2,2,1011,5,-1532
518,5.867513,0,-2,3,1018,0,-1532
519,5.879091,1,-2,-1,1018,-1,-1532
520,5.890632,0,2,2,1018,-1,-1536
521,5.902219,2,-1,2,1019,3,-1532
522,5.913873,0,2,3,1020,2,-1532
523,5.925534,0,-1,1,1022,1,-1530
524,5.937186,2,0,3,1019,-1,-1534
525,5.948838,-1,-1,0,1021,2,-1532
526,5.960475,1,1,1,1021,-1,-1533
527,5.972152,1,-2,0,1023,2,-1528
528,5.983803,0,0,1,1017,-1,-1533
529,5.995466,1,0,-1,1019,3,-1527
530,6.007148,1,0,1,1012,0,-1527
531,6.0188,1,2,1,1019,2,-1526
532,6.030363,1,0,4,1015,0,-1538
533,6.04191,1,0,0,1020,3,-1529
534,6.053469,-1,0,1,1016,4,-1526
535,6.065016,2,-1,-2,1018,3,-1531
536,6.076594,1,-2,1,1019,0,-1531
537,6.088138,2,0,2,1019,-1,-1529
538,6.099717,0,1,1,1018,2,-1529
539,6.111272,0,-1,3,1021,-1,-1525
540,6.122901,1,1,-1,1018,-2,-1528
541,6.134561,2,1,-1,1020,0,-1533
542,6.146216,1,1,1,1020,-1,-1522
543,6.157883,1,-1,0,1022,0,-1526
544,6.169541,2,0,0,1020,2,-1530
545,6.181187,-1,0,0,1020,2,-1536
546,6.192825,1,0,2,1018,0,-1527
547,6.204468,2,0,2,1014,0,-1532
548,6.216151,2,0,-1,1015,0,-1532
549,6.227802,3,1,0,1017,1,-1522
550,6.239388,1,1,1,1020,0,-1533
551,6.250931,0,3,1,1018,-1,-1531
552,6.262486,1,-2,1,1018,1,-1532
553,6.274059,2,0,1,1018,4,-1528
554,6.285587,0,3,0,1017,3,-1530
555,6.297107,0,2,1,1014,0,-1531
556,6.308674,0,0,1,1015,-3,-1521
557,6.320246,1,-3,2,1019,2,-1530
558,6.331905,0,-1,0,1019,0,-1528
559,6.343564,0,2,2,1016,-1,-1530
560,6.355209,0,1,0,1018,0,-1531
561,6.3669,-1,0,1,1010,6,-1536
562,6.378561,3,2,-1,1020,0,-1533
563,6.390241,-1,-1,3,1017,2,-1525
564,6.401881,0,0,0,1017,1,-1523
565,6.41354,0,-2,-1,1016,3,-1531
566,6.425203,0,-1,0,1018,0,-1527
567,6.436856,1,2,2,1019,3,-1533
568,6.448422,1,-2,0,1017,0,-1532
569,6.459984,1,0,0,1017,0,-1533
570,6.471535,2,0,1,1019,-1,-1536
571,6.483105,0,2,0,1015,2,-1529
572,6.494646,0,-2,2,1020,-1,-1527
573,6.506199,0,-1,-1,1020,0,-1522
574,6.517749,1,-3,0,1019,2,-1533
575,6.529339,-1,1,2,1019,1,-1527
576,6.540983,0,0,-1,1020,1,-1522
577,6.55263,2,0,2,1019,0,-1529
578,6.564291,2,4,0,1017,0,-1531
579,6.575937,1,-1,0,1016,4,-1534
580,6.58758,0,0,0,1016,2,-1532
581,6.599226,0,0,0,1021,4,-1532
582,6.610913,1,-2,0,1016,0,-1528
583,6.622564,0,-1,-1,1018,0,-1526
584,6.634238,0,-1,0,1016,2,-1527
585,6.645892,0,-2,3,1021,0,-1536
586,6.657471,2,0,1,1018,0,-1534
587,6.669022,2,0,-1,1017,3,-1535
588,6.680569,1,-1,2,1017,-2,-1536
589,6.692115,-1,1,0,1014,4,-1534
590,6.703708,0,1,-1,1020,-2,-1528
591,6.715255,-1,0,-1,1018,2,-1525
592,6.726825,-1,-1,1,1023,0,-1531
593,6.738407,0,1,-1,1021,0,-1533
594,6.750045,1,1,1,1020,1,-1526
595,6.761698,0,-2,3,1018,-3,-1530
596,6.773407,1,0,-1,1017,0,-1537
597,6.785174,0,0,1,1016,-3,-1529
598,6.796846,1,1,-1,1018,0,-1535
599,6.808502,1,1,3,1018,1,-1528
600,6.820168,1,-1,0,1020,0,-1534
601,6.831821,3,1,2,1020,4,-1534
602,6.843489,-1,0,3,1020,-1,-1521
603,6.855165,1,0,-1,1020,0,-1538
604,6.866727,1,0,-1,1016,1,-1536
605,6.878303,-1,2,2,1019,0,-1521
606,6.889826,2,0,3,1016,4,-1528
607,6.901357,0,-1,1,1019,0,-1532
608,6.91291,0,-1,-1,1018,-1,-1537
609,6.924469,0,-1,1,1020,0,-1536
610,6.936008,-1,0,1,1023,3,-1538
611,6.94756,1,0,1,1014,0,-1526
612,6.959173,-1,0,-1,1021,1,-1532
613,6.970811,-1,1,0,1016,3,-1537
614,6.982505,0,0,2,1022,-1,-1530
615,6.994153,1,-1,1,1019,0,-1531
616,7.005804,1,-1,2,1014,5,-1532
617,7.017453,0,-1,2,1020,1,-1533
618,7.029121,1,2,2,1017,3,-1530
619,7.040779,1,-1,-1,1014,3,-1528
620,7.052444,3,0,-1,1018,1,-1528
621,7.064131,0,-1,-1,1019,0,-1531
622,7.0757,0,0,1,1020,0,-1530
623,7.087256,0,0,0,1019,2,-1531
624,7.098804,2,0,1,1019,0,-1524
625,7.110389,0,0,1,1019,1,-1526
626,7.121979,0,1,0,1018,-3,-1532
627,7.133534,0,0,-1,1021,0,-1528
628,7.145105,1,-1,1,1016,0,-1526
629,7.156686,1,1,0,1021,-2,-1535
630,7.168312,0,0,2,1020,1,-1528
631,7.179991,3,-1,0,1022,-1,-1535
632,7.191648,0,0,1,1022,1,-1534
633,7.203304,1,-1,1,1021,-1,-1527
634,7.215026,2,2,1,1019,0,-1534
635,7.226675,-1,1,1,1020,0,-1526
636,7.238332,0,0,2,1020,-1,-1534
637,7.250017,-1,2,2,1016,-5,-1533
638,7.261683,0,0,3,1019,2,-1529
639,7.273357,2,1,1,1016,2,-1533
640,7.284928,2,-1,2,1016,-1,-1531
641,7.296477,2,0,2,1017,2,-1531
642,7.308019,1,-2,0,1018,1,-1535
643,7.319576,1,1,-1,1018,1,-1531
644,7.331122,0,-2,1,1019,4,-1530
645,7.342667,1,-2,0,1015,1,-1530
646,7.354239,1,0,-1,1021,0,-1529
647,7.365861,-1,1,0,1019,1,-1531
648,7.37752,1,2,0,1022,3,-1534
649,7.389184,2,1,-1,1021,0,-1529
650,7.400831,3,0,1,1015,0,-1534
651,7.412498,1,-1,1,1018,-2,-1534
652,7.424156,1,-1,-1,1021,0,-1537
653,7.435805,1,-3,-2,1021,-1,-1536
654,7.447456,-1,-1,2,1015,6,-1531
655,7.459111,-1,2,0,1016,2,-1525
656,7.470773,1,1,1,1018,-1,-1533
657,7.482455,2,0,-1,1018,3,-1526
658,7.494015,2,-1,-2,1017,1,-1531
659,7.505597,1,-2,0,1022,-2,-1530
660,7.517106,3,2,1,1016,0,-1526
661,7.528646,-1,1,1,1017,-1,-1538
662,7.540192,1,-1,2,1018,0,-1532
663,7.55174,2,1,1,1016,0,-1529
664,7.563288,1,1,1,1018,0,-1533
665,7.574863,1,-1,2,1018,0,-1529
666,7.58647,-1,-1,0,1018,2,-1533
667,7.598051,1,2,0,1019,1,-1535
668,7.609596,-1,3,1,1017,0,-1532
669,7.621106,1,-1,0,1017,2,-1529
670,7.632644,0,0,0,1018,2,-1534
671,7.64419,0,3,0,1021,2,-1529
672,7.655738,-1,-3,-1,1016,2,-1532
673,7.667299,0,0,1,1019,1,-1536
674,7.678906,0,-1,1,1017,0,-1528
675,7.690538,1,2,1,1021,0,-1534
676,7.702204,1,-1,0,1017,3,-1535
677,7.713899,-1,-1,1,1018,0,-1535
678,7.725584,0,-1,-1,1020,3,-1533
679,7.73725,2,0,1,1019,2,-1527
680,7.748909,0,1,3,1015,-1,-1529
681,7.760546,3,1,2,1019,3,-1527
682,7.772189,0,-1,1,1020,3,-1531
683,7.783874,1,2,-1,1019,0,-1531
684,7.795527,2,-1,2,1015,2,-1532
685,7.807174,1,0,0,1017,0,-1529
686,7.818835,0,1,1,1016,0,-1535
687,7.830516,0,0,0,1017,1,-1535
688,7.842145,1,0,0,1020,0,-1535
689,7.853821,3,-2,1,1016,3,-1531
690,7.865498,-1,0,1,1021,-3,-1530
691,7.877153,0,-1,0,1017,4,-1532
692,7.888833,0,0,1,1019,0,-1530
693,7.900499,0,2,0,1017,-1,-1526
694,7.912158,4,-1,2,1016,0,-1532
695,7.923801,1,-2,2,1012,2,-1528
696,7.935443,1,2,2,1017,-1,-1529
697,7.947107,2,-2,2,1018,0,-1519
698,7.958753,0,-2,2,1017,4,-1526
699,7.970403,2,-1,2,1016,0,-1531
700,7.982052,1,0,2,1020,-3,-1531
701,7.993742,-1,0,2,1019,-1,-1530
702,8.005377,0,0,1,1019,0,-1534
703,8.017026,1,3,0,1019,2,-1534
704,8.028679,0,0,1,1015,3,-1533
705,8.040319,-2,-3,3,1020,0,-1533
706,8.05196,1,1,0,1018,-2,-1531
707,8.063639,2,1,1,1018,2,-1528
708,8.075278,-1,0,2,1021,2,-1531
709,8.086943,-1,0,0,1019,5,-1530
710,8.098629,0,1,1,1015,-1,-1526
711,8.110289,-1,0,2,1021,-2,-1529
712,8.121836,1,2,-1,1020,0,-1533
713,8.133406,1,0,1,1017,-1,-1532
714,8.144989,-2,0,2,1016,1,-1535
715,8.156559,1,0,0,1019,1,-1535
716,8.168104,2,0,1,1017,0,-1531
717,8.179713,1,-1,0,1019,0,-1538
718,8.191262,2,0,2,1016,0,-1534
719,8.202839,1,0,0,1016,0,-1533
720,8.214486,1,3,-1,1020,-1,-1538
721,8.226144,1,1,-1,1018,4,-1534
722,8.237807,2,-2,0,1020,0,-1533
723,8.249505,2,1,2,1021,-3,-1533
724,8.261118,0,-1,0,1019,3,-1525
725,8.272784,-1,-1,3,1020,0,-1531
726,8.28444,0,1,2,1016,2,-1530
727,8.296106,1,-1,2,1021,5,-1529
728,8.307769,2,0,-2,1020,0,-1535
729,8.319427,3,-1,2,1020,1,-1533
730,8.330981,0,1,-2,1019,-2,-1530
731,8.342583,1,1,1,1016,0,-1530
732,8.354137,0,1,2,1021,0,-1526
733,8.365715,1,-1,0,1015,1,-1529
734,8.377259,0,-1,0,1016,0,-1530
735,8.3888,0,2,0,1020,3,-1532
736,8.400347,1,-2,0,1019,2,-1531
737,8.411946,-1,0,0,1020,2,-1533
738,8.423577,2,2,-1,1019,-1,-1534
739,8.435232,1,1,-1,1020,3,-1529
740,8.446897,1,-1,-2,1021,0,-1532
741,8.458579,0,0,1,1017,0,-1536
742,8.47027,0,1,1,1014,0,-1531
743,8.481931,1,1,1,1018,0,-1533
744,8.493611,0,2,-1,1019,2,-1529
745,8.505267,0,-2,0,1018,0,-1531
746,8.516932,1,0,1,1020,0,-1527
747,8.528586,1,-1,0,1019,0,-1527
748,8.540142,-1,1,2,1021,0,-1535
749,8.5517,0,3,0,1018,1,-1527
750,8.56325,1,-2,1,1019,0,-1530
751,8.574827,3,0,-2,1019,0,-1534
752,8.586404,0,1,-1,1017,-3,-1526
753,8.597966,0,-2,0,1020,0,-1533
754,8.609519,1,2,-1,1019,-2,-1530
755,8.621108,-2,-1,1,1019,0,-1530
756,8.63273,2,-1,2,1016,0,-1539
757,8.644399,0,-2,0,1017,2,-1532
758,8.656044,0,-1,2,1018,-3,-1538
759,8.667704,-1,1,0,1016,0,-1533
760,8.679359,1,-1,1,1019,2,-1532
761,8.691019,1,0,2,1018,0,-1530
762,8.702669,-1,2,1,1020,1,-1530
763,8.714343,0,0,-2,1013,1,-1534
764,8.72603,-1,1,1,1018,0,-1525
765,8.737679,0,0,1,1018,-2,-1532
766,8.749248,1,1,1,1020,0,-1533
767,8.760794,1,0,0,1018,1,-1534
768,8.772336,0,0,1,1017,-3,-1533
769,8.783944,0,0,1,1019,-3,-1538
770,8.795626,0,0,1,1017,-1,-1525
771,8.807227,-1,0,-1,1021,1,-1525
772,8.81879,1,3,3,1013,-1,-1523
773,8.83039,2,0,0,1019,1,-1531
774,8.841964,2,0,0,1016,-2,-1529
775,8.853509,0,0,2,1020,2,-1523
776,8.865061,2,-1,0,1018,1,-1528
777,8.876607,3,-1,1,1019,0,-1534
778,8.888151,1,0,1,1020,0,-1524
779,8.899695,2,0,1,1015,-2,-1529
780,8.911242,-1,-1,0,1020,-1,-1529
781,8.922819,-1,1,1,1017,0,-1526
782,8.934454,4,2,2,1021,0,-1531
783,8.946101,0,-2,0,1017,-1,-1529
784,8.957787,3,1,2,1015,0,-1531
785,8.96945,-1,0,-1,1021,0,-1532
786,8.981117,-1,-1,1,1019,1,-1529
787,8.992767,1,-1,-2,1018,1,-1529
788,9.004417,2,0,1,1021,-1,-1523
789,9.016059,1,1,0,1022,-1,-1533
790,9.027709,1,0,0,1015,-3,-1531
791,9.039391,1,1,2,1019,0,-1529
792,9.051033,1,-1,-1,1019,0,-1538
793,9.062617,0,0,1,1021,-4,-1533
794,9.074215,-2,0,0,1021,0,-1534
795,9.085839,2,-1,2,1016,-1,-1535
796,9.097404,0,1,0,1020,0,-1534
797,9.108974,0,0,0,1018,5,-1532
798,9.120528,1,0,-1,1019,0,-1527
799,9.132078,0,-1,2,1017,2,-1531
800,9.143651,0,2,0,1022,1,-1530
801,9.155222,1,-1,2,1018,2,-1525
802,9.166784,0,0,-1,1016,0,-1537
803,9.178331,-1,1,0,1021,-1,-1532
804,9.189879,1,1,0,1018,0,-1529
805,9.201557,1,2,2,1015,0,-1528
806,9.213299,1,-1,1,1018,2,-1525
807,9.224872,2,-1,2,1019,0,-1525
808,9.236448,0,-1,1,1020,2,-1530
809,9.248063,1,0,1,1015,-4,-1533
810,9.259618,1,-1,0,1015,0,-1534
811,9.271163,0,-1,0,1021,0,-1529
812,9.28272,1,0,1,1020,3,-1530
813,9.294316,1,-1,-1,1021,1,-1533
814,9.305885,0,0,2,1020,-5,-1536
815,9.317481,-2,0,2,1021,3,-1531
816,9.329108,1,0,-1,1015,1,-1528
817,9.34065,0,0,3,1017,1,-1528
818,9.352211,0,2,1,1016,1,-1531
819,9.363905,2,1,-2,1021,-1,-1525
820,9.375567,-1,0,-1,1018,1,-1532
821,9.387227,2,-1,0,1016,2,-1525
822,9.398892,1,1,1,1021,1,-1533
823,9.410539,3,1,0,1017,0,-1532
824,9.422196,-2,1,1,1014,2,-1526
825,9.433891,2,1,1,1017,-3,-1534
826,9.445545,-1,0,0,1021,-2,-1527
827,9.457262,1,0,1,1017,2,-1527
828,9.468933,1,1,1,1015,-1,-1531
829,9.480505,-1,-1,2,1021,-1,-1530
830,9.492078,1,1,0,1020,3,-1531
831,9.503629,1,-1,-2,1017,0,-1525
832,9.5152,0,2,-1,1017,0,-1533
833,9.526747,0,3,0,1021,1,-1537
834,9.538314,0,0,2,1016,0,-1535
835,9.54983,1,0,1,1020,0,-1531
836,9.561364,0,-1,0,1018,0,-1537
837,9.573031,1,2,0,1016,1,-1530
838,9.584683,0,-1,0,1018,0,-1537
839,9.596352,0,-2,0,1020,-1,-1534
840,9.607997,-2,0,1,1015,1,-1527
841,9.619649,2,1,0,1017,-3,-1531
842,9.631312,1,2,2,1023,0,-1533
843,9.642957,0,0,1,1020,0,-1528
844,9.654645,1,2,1,1018,-1,-1533
845,9.666321,1,1,1,1016,3,-1531
846,9.677981,1,-1,2,1016,1,-1532
847,9.689588,0,-1,1,1019,-3,-1534
848,9.701233,1,-2,0,1014,-2,-1528
849,9.712782,0,-1,-1,1016,2,-1523
850,9.724332,0,0,-2,1016,2,-1534
851,9.735926,2,0,0,1020,3,-1530
852,9.747477,3,-2,-1,1019,3,-1535
853,9.75905,-1,1,1,1019,-3,-1534
854,9.770608,0,0,0,1016,3,-1527
855,9.782272,2,-2,1,1016,5,-1532
856,9.793929,0,2,-1,1016,3,-1526
857,9.805629,1,-2,0,1020,0,-1532
858,9.817291,0,0,2,1017,0,-1529
859,9.828939,-1,3,1,1018,3,-1537
860,9.840583,-1,-1,-1,1019,3,-1531
861,9.85228,0,-1,2,1018,-2,-1530
862,9.863923,3,-1,0,1019,0,-1531
863,9.875608,-1,-2,0,1015,-1,-1527
864,9.887274,2,0,1,1016,3,-1534
865,9.89883,1,2,-1,1022,0,-1532
866,9.910381,1,-2,2,1021,1,-1532
867,9.921951,0,-2,0,1020,0,-1526
868,9.933506,2,-4,1,1021,0,-1539
869,9.945126,1,2,2,1023,0,-1535
870,9.956699,-2,-2,2,1019,0,-1527
871,9.968253,1,2,0,1016,1,-1530
872,9.979822,-1,2,2,1017,0,-1529
873,9.991543,0,-2,-1,1017,3,-1530
874,10.003211,2,1,2,1016,2,-1536
875,10.014883,0,0,1,1019,2,-1536
876,10.026543,-1,1,4,1019,-3,-1527
877,10.038197,1,-1,1,1019,1,-1533
878,10.049889,0,0,2,1018,0,-1531
879,10.061553,2,1,0,1017,-1,-1528
880,10.073276,0,2,0,1017,3,-1533
881,10.084932,1,1,1,1021,-2,-1536
882,10.096481,1,1,0,1017,1,-1526
883,10.108041,0,0,1,1020,0,-1533
884,10.119592,-2,0,1,1017,0,-1527
885,10.131189,1,0,0,1024,0,-1530
886,10.142743,3,-2,-1,1017,0,-1526
887,10.154322,2,1,1,1019,3,-1526
888,10.16587,2,0,0,1019,0,-1530
889,10.177424,1,0,0,1019,3,-1535
890,10.188983,1,-1,-2,1019,0,-1529
891,10.200658,-2,0,1,1022,3,-1528
892,10.212317,0,0,0,1020,0,-1529
893,10.223986,0,0,1,1015,0,-1524
894,10.235638,0,-2,1,1021,1,-1532
895,10.247284,1,1,-1,1018,2,-1530
896,10.258949,0,1,2,1023,1,-1532
897,10.270605,0,-1,2,1018,7,-1531
898,10.282271,1,1,1,1020,0,-1526
899,10.293954,1,0,1,1017,1,-1531
900,10.305616,0,0,-1,1016,0,-1531
901,10.317255,2,0,0,1017,1,-1525
902,10.328819,1,-2,0,1020,-2,-1532
903,10.340361,2,2,0,1017,0,-1532
904,10.351906,1,-1,1,1021,3,-1532
905,10.363458,0,-1,1,1020,2,-1531
906,10.375007,1,-1,0,1018,-1,-1538
907,10.38655,-1,3,0,1018,-2,-1530
908,10.398077,2,1,-1,1018,1,-1534
909,10.409781,0,1,1,1020,0,-1530
910,10.421465,-1,0,-1,1018,1,-1528
911,10.433124,1,1,1,1017,-3,-1533
912,10.444806,1,0,0,1015,3,-1541
913,10.456449,0,-1,1,1017,2,-1533
914,10.468118,0,2,2,1014,2,-1528
915,10.47977,1,-2,1,1019,0,-1532
916,10.491439,-2,0,0,1022,-4,-1538
917,10.503121,0,-2,1,1021,0,-1533
918,10.514775,0,0,1,1015,0,-1531
919,10.526409,0,0,-1,1020,4,-1529
920,10.53809,0,0,0,1017,-1,-1531
921,10.549761,2,1,1,1019,2,-1530
922,10.561435,2,1,1,1020,0,-1529
923,10.573117,0,0,2,1017,0,-1522
924,10.584768,1,0,0,1018,-1,-1539
925,10.596422,0,0,-1,1020,-1,-1530
926,10.608153,2,-1,3,1021,1,-1536
927,10.61982,0,-1,0,1018,2,-1527
928,10.63143,1,-1,-1,1016,1,-1527
929,10.643016,3,0,1,1019,1,-1540
930,10.654582,1,2,0,1015,2,-1528
931,10.666167,0,1,1,1014,1,-1529
932,10.677721,0,0,1,1017,4,-1526
933,10.689291,0,-1,1,1017,0,-1532
934,10.700837,0,0,1,1021,0,-1523
935,10.712392,0,1,0,1018,1,-1528
936,10.724005,0,1,1,1020,2,-1532
937,10.73566,0,0,1,1020,1,-1534
938,10.747306,2,-2,1,1020,3,-1531
939,10.758959,-1,0,2,1018,0,-1530
940,10.770652,0,-1,0,1018,0,-1528
941,10.782302,2,-1,1,1019,0,-1524
942,10.793958,0,1,3,1017,3,-1529
943,10.805631,0,2,0,1018,0,-1532
944,10.817312,1,2,1,1018,0,-1529
945,10.828979,0,-2,-1,1019,1,-1527
946,10.840536,-1,-1,0,1018,0,-1534
947,10.852087,3,0,0,1017,1,-1529
948,10.863691,0,2,-1,1020,1,-1534
949,10.875244,2,0,1,1021,-1,-1526
950,10.886809,1,0,-1,1020,4,-1531
951,10.898354,0,-2,-1,1016,6,-1530
952,10.909899,0,1,1,1021,4,-1530
953,10.921478,0,-3,1,1019,4,-1529
954,10.93313,-1,1,2,1018,1,-1526
955,10.944786,0,0,3,1018,1,-1531
956,10.956458,-1,1,1,1014,1,-1530
957,10.968122,0,0,2,1019,4,-1532
958,10.979769,0,1,-1,1021,-2,-1524
959,10.991411,1,1,0,1017,-1,-1525
960,11.003082,0,1,2,1019,-1,-1529
961,11.014744,2,1,2,1018,-2,-1529
962,11.026409,1,0,2,1016,0,-1524
963,11.038071,1,2,1,1020,0,-1531
964,11.049659,3,0,0,1018,-1,-1530
965,11.061228,0,-1,3,1016,3,-1530
966,11.072769,1,0,1,1018,0,-1531
967,11.084319,0,-2,1,1020,1,-1534
968,11.095864,0,1,1,1016,0,-1527
969,11.107409,-1,0,1,1017,0,-1527
970,11.118956,2,-2,3,1018,4,-1529
971,11.130573,1,-2,2,1019,1,-1528
972,11.142266,2,1,2,1018,2,-1529
973,11.153938,1,0,1,1017,2,-1528
974,11.165622,1,-1,2,1017,4,-1532
975,11.177304,-1,3,2,1017,-1,-1540
976,11.188972,2,-3,2,1019,0,-1528
977,11.20063,2,-1,1,1016,1,-1530
978,11.212279,1,2,0,1018,-4,-1529
979,11.223934,0,0,-1,1020,0,-1527
980,11.235609,0,1,-1,1016,3,-1529
981,11.247258,1,0,1,1013,0,-1526
982,11.258903,0,-1,0,1019,-3,-1532
983,11.270584,0,1,0,1018,2,-1534
984,11.282268,0,-1,2,1017,0,-1529
985,11.293926,-1,2,1,1018,0,-1534
986,11.305627,2,0,0,1019,-1,-1531
987,11.317274,2,-2,0,1017,0,-1529
988,11.32892,0,2,0,1014,0,-1532
989,11.340624,-1,1,2,1013,-1,-1530
990,11.352269,1,-1,2,1017,0,-1529
991,11.363919,0,-1,0,1021,3,-1532
992,11.37559,2,0,1,1017,2,-1523
993,11.387244,2,3,4,1018,4,-1535
994,11.398895,0,-3,2,1020,0,-1530
995,11.410566,0,-1,2,1021,2,-1540
996,11.422308,0,1,0,1019,1,-1537
997,11.433968,1,1,1,1021,1,-1535
998,11.445643,1,0,2,1017,0,-1538
999,11.457307,0,0,0,1017,0,-1533
1000,11.468864,1,1,1,1019,3,-1530
1001,11.480418,0,-1,2,1018,0,-1532
1002,11.491969,0,0,0,1016,-1,-1528
1003,11.503558,2,-1,0,1017,2,-1533
1004,11.515102,1,1,2,1018,0,-1533
1005,11.526647,1,-1,0,1019,2,-1533
1006,11.53821,0,2,-2,1020,0,-1535
1007,11.549843,2,-1,2,1017,1,-1534
1008,11.561542,0,2,-1,1018,0,-1530
1009,11.573243,0,0,-1,1015,2,-1527
1010,11.584882,0,-1,0,1020,0,-1529
1011,11.596532,0,0,-2,1019,1,-1524
1012,11.608213,-1,0,3,1015,0,-1531
1013,11.619859,0,0,0,1017,1,-1535
1014,11.631505,2,4,0,1013,1,-1528
1015,11.64316,1,-2,1,1018,1,-1531
1016,11.65484,2,-3,3,1021,1,-1531
1017,11.666504,-1,0,-1,1015,0,-1525
1018,11.678076,0,0,0,1020,0,-1535
1019,11.689702,0,-2,-1,1021,0,-1529
1020,11.701276,0,-2,2,1021,-2,-1534
1021,11.712819,1,2,3,1016,0,-1534
1022,11.724365,1,1,3,1018,-1,-1532
1023,11.735909,1,-1,0,1021,0,-1535
1024,11.747459,0,0,3,1020,0,-1526
1025,11.759052,0,2,-1,1016,2,-1535
1026,11.770668,1,-2,-1,1018,0,-1535
1027,11.782343,1,1,2,1019,2,-1531
1028,11.794048,2,1,1,1020,-1,-1530
1029,11.80576,0,3,2,1016,5,-1528
1030,11.817372,0,-1,0,1016,2,-1528
1031,11.829019,-1,1,2,1019,0,-1534
1032,11.840688,2,-1,0,1020,0,-1534
1033,11.852344,1,1,1,1020,0,-1534
1034,11.86401,2,1,-1,1019,6,-1538
1035,11.875667,1,-1,1,1019,-1,-1529
1036,11.887225,-1,-1,0,1017,2,-1533
1037,11.898798,2,-1,1,1013,-3,-1533
1038,11.910355,1,-2,1,1021,-2,-1530
1039,11.921939,0,0,1,1019,1,-1527
1040,11.933492,1,2,2,1019,3,-1531
1041,11.945053,0,2,0,1017,2,-1525
1042,11.956594,1,-2,-1,1020,3,-1528
1043,11.968153,1,-1,0,1020,-2,-1539
1044,11.979767,2,-1,0,1022,1,-1530
1045,11.991417,1,1,0,1021,0,-1535
1046,12.00309,-1,0,0,1019,2,-1528
1047,12.014738,1,0,0,1018,4,-1533
1048,12.026416,0,-1,0,1016,1,-1531
1049,12.038064,0,-1,1,1016,-2,-1532
1050,12.04975,0,0,0,1020,0,-1533
1051,12.061376,-1,1,2,1021,1,-1531
1052,12.073074,1,3,3,1020,1,-1534
1053,12.084738,2,-1,-1,1022,0,-1533
1054,12.096286,0,1,2,1022,1,-1533
1055,12.107832,1,-1,2,1018,1,-1532
1056,12.119376,1,0,1,1018,1,-1531
1057,12.130916,1,0,1,1019,-1,-1527
1058,12.142469,1,1,0,1020,4,-1528
1059,12.154066,-2,-1,1,1016,-1,-1533
1060,12.165611,0,-2,2,1021,1,-1531
1061,12.17719,0,1,0,1020,0,-1527
1062,12.188808,2,1,0,1019,0,-1534
1063,12.200467,2,0,0,1019,2,-1523
1064,12.212126,-1,-1,0,1015,1,-1529
1065,12.223773,1,-1,2,1022,0,-1527
1066,12.235442,0,-1,0,1019,2,-1528
1067,12.247096,0,1,-1,1014,-2,-1526
1068,12.258748,0,0,1,1019,1,-1533
1069,12.270399,2,0,1,1017,-3,-1524
1070,12.282085,-1,-2,-1,1016,2,-1532
1071,12.293734,0,0,1,1016,3,-1534
1072,12.30534,1,0,-1,1020,0,-1530
1073,12.316944,1,-1,3,1018,-3,-1532
1074,12.328516,1,-1,-1,1017,-4,-1530
1075,12.340064,0,0,1,1018,-1,-1534
1076,12.351606,2,2,0,1021,2,-1535
1077,12.36316,1,-1,2,1020,0,-1525
1078,12.37472,0,0,3,1020,2,-1530
1079,12.386302,1,0,1,1018,2,-1540
1080,12.397961,0,1,1,1021,0,-1532
1081,12.409648,1,0,1,1015,-1,-1533
1082,12.421305,0,-1,1,1014,-1,-1527
1083,12.432941,2,0,0,1016,3,-1530
1084,12.444609,0,-1,2,1017,2,-1531
1085,12.456252,0,0,1,1019,1,-1529
1086,12.467895,-1,0,1,1021,-1,-1526
1087,12.479566,-1,0,1,1017,0,-1528
1088,12.491238,3,1,1,1019,1,-1533
1089,12.502891,1,-1,2,1019,0,-1534
1090,12.514452,-1,0,-2,1020,3,-1533
1091,12.526042,-1,-2,2,1019,0,-1532
1092,12.53761,0,0,0,1021,-3,-1527
1093,12.549162,1,-1,1,1018,-1,-1532
1094,12.560721,0,0,-1,1016,2,-1533
1095,12.572267,0,1,2,1015,0,-1535
1096,12.583814,0,-2,3,1019,3,-1532
1097,12.595397,-1,-1,2,1019,-1,-1531
1098,12.607023,-1,-1,-1,1019,2,-1529
1099,12.618693,2,1,0,1023,0,-1533
1100,12.630374,0,0,2,1017,-1,-1525
1101,12.642037,0,-1,0,1019,-1,-1528
1102,12.653754,0,1,2,1013,1,-1531
1103,12.665429,1,1,2,1019,4,-1523
1104,12.677109,0,-2,2,1018,2,-1531
1105,12.688762,0,-1,0,1016,3,-1524
1106,12.700455,3,-2,0,1019,1,-1527
1107,12.712108,1,0,1,1021,-1,-1536
1108,12.723667,0,1,0,1018,-3,-1532
1109,12.735218,2,0,-1,1016,0,-1531
1110,12.746791,1,0,0,1020,-5,-1529
1111,12.758313,0,-1,0,1017,2,-1535
1112,12.7699,1,0,0,1021,0,-1536
1113,12.781466,-2,0,-1,1016,1,-1534
1114,12.793039,1,-1,2,1021,0,-1530
1115,12.804598,0,-2,1,1022,0,-1528
1116,12.816218,0,-2,1,1021,1,-1529
1117,12.827875,-2,0,-2,1021,-1,-1529
1118,12.83952,0,0,1,1021,-1,-1536
1119,12.851167,1,-1,1,1021,0,-1529
1120,12.862841,0,-1,-2,1016,0,-1532
1121,12.874515,0,2,1,1021,0,-1524
1122,12.886144,0,1,1,1020,-2,-1530
1123,12.897815,2,-1,1,1016,0,-1529
1124,12.90954,2,2,1,1016,3,-1524
1125,12.9212,0,1,1,1016,2,-1534
1126,12.932757,-2,0,-1,1021,0,-1529
1127,12.944305,0,2,-1,1012,-3,-1537
1128,12.955896,1,-2,2,1018,0,-1530
1129,12.967448,-1,0,0,1020,0,-1532
1130,12.97901,1,0,1,1022,1,-1530
1131,12.990552,0,0,2,1021,1,-1522
1132,13.002064,1,0,1,1017,-1,-1531
1133,13.0136,-1,1,1,1021,0,-1529
1134,13.025293,2,1,0,1013,0,-1533
1135,13.036981,-2,-1,2,1014,-1,-1525
1136,13.048624,2,1,0,1021,-2,-1523
1137,13.060271,-2,-1,2,1021,2,-1530
1138,13.071947,2,-1,2,1018,-1,-1530
1139,13.083598,0,-2,-1,1016,-3,-1535
1140,13.095252,1,-1,1,1016,3,-1538
1141,13.106926,0,0,2,1017,2,-1530
1142,13.118599,0,1,2,1019,4,-1537
1143,13.13026,1,2,1,1015,1,-1531
1144,13.141834,0,0,0,1014,4,-1534
1145,13.153421,-2,1,2,1020,-2,-1529
1146,13.164962,2,1,0,1017,0,-1526
1147,13.176501,1,-1,2,1023,-1,-1532
1148,13.18805,-1,1,-1,1020,-3,-1532
1149,13.199598,-1,2,0,1021,1,-1532
1150,13.211187,2,0,2,1022,3,-1525
1151,13.222782,2,2,0,1012,1,-1528
1152,13.234405,2,1,2,1019,2,-1528
1153,13.246088,1,1,0,1021,4,-1525
1154,13.257765,2,0,0,1023,0,-1534
1155,13.269413,0,1,1,1021,-2,-1520
1156,13.281142,2,-2,1,1017,0,-1524
1157,13.292816,0,0,0,1014,1,-1535
1158,13.30447,-1,-2,1,1017,1,-1529
1159,13.316122,1,-3,3,1021,2,-1542
1160,13.327767,1,2,1,1022,-1,-1529
1161,13.339318,-7,-2,2,1024,-3,-1498
1162,13.350865,3,-5,1,1022,5,-1546
1163,13.362431,7,-1,1,1008,-2,-1511
1164,13.37402,6,-4,0,1013,8,-1528
1165,13.385596,6,-2,1,1021,-1,-1540
1166,13.397189,-3,3,3,1020,0,-1532
1167,13.408736,1,2,0,1023,0,-1520
1168,13.420298,-2,1,0,1020,-3,-1535
1169,13.43192,-4,2,-1,1016,1,-1516
1170,13.443583,7,-1,2,1014,5,-1546
1171,13.455227,5,-1,0,1018,0,-1526
1172,13.466885,2,-1,-1,1020,4,-1539
1173,13.478541,7,-3,0,1025,-2,-1528
1174,13.490204,-4,4,-1,1023,-3,-1527
1175,13.501884,1,0,1,1013,-1,-1518
1176,13.513539,-2,1,-1,1017,3,-1522
1177,13.525242,0,-2,-2,1020,0,-1529
1178,13.536918,-2,-2,1,1021,-4,-1515
1179,13.548476,6,-1,2,1019,0,-1525
1180,13.560029,-2,1,3,1021,-1,-1532
1181,13.571584,-2,1,0,1018,5,-1529
1182,13.583174,5,-2,-1,1021,4,-1532
1183,13.594721,-1,4,1,1018,1,-1533
1184,13.606292,3,-1,3,1019,2,-1536
1185,13.617823,3,-1,0,1022,-3,-1525
1186,13.629357,-1,0,0,1020,-3,-1526
1187,13.640979,3,-1,1,1017,1,-1534
1188,13.652651,-2,3,1,1017,0,-1527
1189,13.664308,1,0,-1,1016,4,-1530
1190,13.675986,4,1,3,1015,3,-1532
1191,13.687626,0,1,2,1014,2,-1531
1192,13.699291,3,2,3,1020,5,-1529
1193,13.711041,-2,2,1,1016,0,-1527
1194,13.722853,0,-1,-2,1035,0,-1524
1195,13.734551,0,-1,-1,1022,0,-1527
1196,13.746292,1,0,1,1019,1,-1531
1197,13.757972,1,-3,2,1016,2,-1522
1198,13.769673,-2,0,1,1021,0,-1539
1199,13.781368,2,0,3,1014,2,-1542
1200,13.793015,-2,1,0,1009,-1,-1542
1201,13.804684,2,0,2,1016,4,-1541
1202,13.816352,-1,1,2,1016,4,-1532
1203,13.828005,5,3,0,1012,-1,-1525
1204,13.839712,-2,2,2,1015,0,-1517
1205,13.85137,-2,-1,-1,1017,8,-1533
1206,13.863037,1,1,3,1026,0,-1528
1207,13.874693,-3,-3,4,1026,0,-1534
1208,13.886382,4,-1,2,1036,3,-1539
1209,13.898057,4,-3,-1,1034,-1,-1535
1210,13.909734,8,-1,-1,1016,4,-1541
1211,13.921382,1,-2,-1,1014,-1,-1525
1212,13.933051,-4,-1,1,1012,1,-1530
1213,13.94474,3,-4,1,1016,-5,-1517
1214,13.95639,-3,0,0,1022,-3,-1532
1215,13.968057,2,-2,-2,1023,-2,-1536
1216,13.979706,2,2,-1,1020,1,-1530
1217,13.991356,2,-1,4,1021,1,-1529
1218,14.003005,1,0,2,1018,5,-1537
1219,14.014685,3,-2,0,1016,1,-1530
1220,14.026382,0,-1,0,1022,-2,-1528
1221,14.038058,-2,-1,1,1019,2,-1533
1222,14.049756,1,-2,2,1016,0,-1529
1223,14.061472,-2,3,0,1017,1,-1533
1224,14.073044,2,-1,2,1018,2,-1535
1225,14.084589,3,0,-1,1018,0,-1527
1226,14.096137,2,2,3,1022,0,-1531
1227,14.107683,2,-1,5,1020,-2,-1529
1228,14.119229,0,1,1,1019,-2,-1527
1229,14.13079,0,0,1,1021,0,-1527
1230,14.142338,2,-1,0,1021,-1,-1524
1231,14.153929,1,-1,0,1024,-2,-1533
1232,14.165638,1,1,2,1014,-2,-1533
1233,14.177353,-2,0,2,1013,0,-1532
1234,14.189002,2,0,0,1018,0,-1532
1235,14.200655,1,2,1,1015,-2,-1530
1236,14.212326,-2,-1,1,1020,0,-1526
1237,14.223975,2,0,0,1020,-3,-1527
1238,14.235621,-2,0,0,1022,1,-1529
1239,14.247281,2,1,-3,1020,1,-1532
1240,14.25896,1,-2,1,1017,2,-1536
1241,14.270647,-1,-1,0,1015,1,-1533
1242,14.282328,4,2,-1,1016,5,-1536
1243,14.294004,-1,0,3,1018,0,-1527
1244,14.305634,2,0,-2,1019,-5,-1529
1245,14.317291,0,1,0,1019,-7,-1529
1246,14.328949,0,0,1,1022,2,-1530
1247,14.340602,2,0,1,1021,-2,-1527
1248,14.352252,2,2,0,1016,4,-1525
1249,14.363966,1,-1,0,1017,3,-1533
1250,14.37562,0,-1,0,1017,2,-1534
1251,14.387206,2,1,0,1016,2,-1534
1252,14.398774,3,2,0,1018,-1,-1531
1253,14.4103,0,-2,0,1019,-1,-1531
1254,14.421823,2,2,0,1017,-1,-1535
1255,14.433344,3,0,-1,1021,-3,-1532
1256,14.444883,2,3,1,1016,-2,-1533
1257,14.456425,1,0,1,1021,0,-1533
1258,14.468012,-1,-3,1,1020,-1,-1534
1259,14.479632,1,-1,2,1017,2,-1538
1260,14.491304,0,3,-1,1021,1,-1528
1261,14.502957,0,-2,3,1016,2,-1535
1262,14.514663,1,1,-1,1017,3,-1528
1263,14.526333,0,0,1,1015,2,-1528
1264,14.537997,-2,0,0,1019,1,-1533
1265,14.549631,0,1,2,1018,0,-1533
1266,14.561301,3,0,1,1022,-4,-1522
1267,14.572963,1,1,-1,1022,-3,-1534
1268,14.584617,1,0,2,1022,-3,-1525
1269,14.596174,0,-1,1,1019,1,-1529
1270,14.607743,1,-1,2,1014,0,-1529
1271,14.619294,-2,1,0,1015,0,-1532
1272,14.630874,1,-2,-1,1015,4,-1527
1273,14.642441,1,2,0,1016,-2,-1532
1274,14.65403,1,1,2,1020,0,-1526
1275,14.665586,3,0,1,1021,0,-1536
1276,14.677118,2,0,3,1019,-2,-1533
1277,14.688737,2,0,-2,1019,0,-1529
1278,14.700382,-1,1,1,1021,0,-1535
1279,14.712037,2,1,0,1021,0,-1533
1280,14.723721,1,1,0,1018,0,-1533
1281,14.735397,2,-1,1,1020,0,-1530
1282,14.747172,0,1,4,1018,4,-1523
1283,14.758875,0,0,1,1019,3,-1532
1284,14.770557,0,-1,0,1018,2,-1524
1285,14.782238,0,-2,-1,1021,2,-1528
1286,14.793954,0,1,2,1021,0,-1533
1287,14.805538,0,1,1,1018,3,-1527
1288,14.817102,1,-2,0,1020,-1,-1532
1289,14.828665,1,0,3,1016,-5,-1528
1290,14.840216,0,1,1,1018,0,-1530
1291,14.851783,2,0,1,1015,3,-1530
1292,14.863324,0,3,-1,1014,0,-1527
1293,14.874864,0,1,3,1013,1,-1531
1294,14.88645,1,0,3,1017,2,-1533
1295,14.89812,1,-1,1,1014,4,-1532
1296,14.909788,-1,3,1,1012,0,-1525
1297,14.921504,1,1,1,1021,-1,-1533
1298,14.933227,3,-1,1,1018,1,-1529
1299,14.944877,1,-2,0,1019,0,-1528
1300,14.956526,2,-1,1,1017,-2,-1529
1301,14.968172,0,-1,1,1017,-3,-1525
1302,14.979838,0,0,2,1017,3,-1533
1303,14.991496,1,0,2,1020,0,-1533
1304,15.003168,0,-1,2,1021,5,-1530
1305,15.014739,2,0,3,1022,0,-1518
1306,15.026298,-2,-3,0,1022,-1,-1529
1307,15.037822,3,-1,1,1015,0,-1536
1308,15.049344,-1,1,1,1013,1,-1530
1309,15.06089,3,2,-1,1014,1,-1532
1310,15.072435,1,0,-1,1013,1,-1529
1311,15.084017,3,-1,1,1016,-2,-1528
1312,15.095567,1,1,1,1021,2,-1530
1313,15.107185,1,-1,0,1020,0,-1531
1314,15.118838,1,-2,2,1016,1,-1534
1315,15.130558,1,-1,1,1020,1,-1530
1316,15.142254,2,1,3,1015,1,-1533
1317,15.153884,0,1,-1,1016,0,-1529
1318,15.165566,1,1,1,1021,0,-1531
1319,15.177241,0,2,3,1020,1,-1531
1320,15.188878,1,-1,-1,1020,0,-1531
1321,15.200549,0,-1,-1,1016,0,-1529
1322,15.212279,2,1,1,1021,0,-1527
1323,15.223968,3,2,0,1020,0,-1531
1324,15.235535,1,1,-2,1018,0,-1533
1325,15.247087,1,-1,0,1017,1,-1535
1326,15.258724,-1,1,0,1014,0,-1527
1327,15.270317,0,1,1,1016,3,-1529
1328,15.281902,1,0,0,1019,0,-1530
1329,15.293471,-1,-1,-2,1017,6,-1527
1330,15.305128,2,1,-1,1017,0,-1528
1331,15.316789,0,0,3,1020,1,-1533
1332,15.328474,2,-1,-1,1016,-1,-1532
1333,15.340119,2,0,1,1019,3,-1527
1334,15.35178,0,0,-2,1019,-1,-1531
1335,15.363455,1,0,2,1016,0,-1528
1336,15.375096,0,1,1,1019,1,-1530
1337,15.386748,-1,0,3,1020,-2,-1533
1338,15.398428,1,-1,0,1023,5,-1533
1339,15.410139,0,-1,0,1020,4,-1527
1340,15.421878,0,2,-1,1018,2,-1537
1341,15.433472,0,-2,1,1015,2,-1531
1342,15.445048,2,-1,0,1017,0,-1528
1343,15.456605,0,-1,1,1023,2,-1528
1344,15.468149,0,0,-2,1021,1,-1531
1345,15.479704,1,0,0,1021,-3,-1528
1346,15.491274,1,1,3,1017,-3,-1528
1347,15.502852,1,1,0,1016,-1,-1531
1348,15.514462,1,1,-1,1015,-2,-1530
1349,15.526147,2,0,0,1020,1,-1529
1350,15.537862,2,0,1,1017,-1,-1532
1351,15.549533,3,-2,1,1018,-1,-1532
1352,15.56123,-1,1,1,1021,0,-1531
1353,15.572869,-1,1,1,1019,2,-1532
1354,15.584517,1,2,1,1020,3,-1532
1355,15.596164,-1,-1,0,1017,0,-1532
1356,15.607836,-1,0,3,1021,0,-1526
1357,15.619547,-1,1,0,1016,0,-1537
1358,15.631211,0,0,0,1021,4,-1535
1359,15.64278,0,2,1,1019,-3,-1538
1360,15.654316,-1,-1,4,1018,1,-1536
1361,15.665895,0,1,-1,1016,-2,-1529
1362,15.677459,0,-2,-1,1019,0,-1529
1363,15.689017,0,2,0,1021,-2,-1535
1364,15.70056,0,0,0,1014,2,-1538
1365,15.712103,0,-1,0,1015,0,-1528
1366,15.723656,-1,0,2,1020,1,-1531
1367,15.735344,2,-1,-1,1016,1,-1533
1368,15.747018,1,1,0,1016,-1,-1525
1369,15.758678,2,0,1,1023,0,-1537
1370,15.770497,0,0,0,1019,0,-1528
1371,15.782144,-1,1,0,1018,4,-1525
1372,15.793826,0,1,1,1018,-2,-1530
1373,15.805508,0,-1,2,1020,-1,-1523
1374,15.817166,1,0,1,1017,3,-1537
1375,15.828829,-1,1,0,1020,2,-1527
1376,15.840489,-1,2,1,1019,2,-1527
1377,15.852159,2,2,1,1015,0,-1532
1378,15.863824,-1,0,-1,1016,0,-1527
1379,15.875499,0,-2,2,1015,3,-1532
1380,15.88719,4,1,1,1016,1,-1532
1381,15.898832,1,-3,0,1015,-2,-1534
1382,15.910485,0,0,0,1022,2,-1542
1383,15.922165,1,1,-1,1021,-1,-1529
1384,15.933826,-2,-1,0,1015,1,-1540
1385,15.945412,4,-1,0,1013,0,-1538
1386,15.956971,-2,2,1,1013,0,-1526
1387,15.968521,0,3,0,1017,-4,-1529
1388,15.980061,3,-2,2,1019,-3,-1522
1389,15.99163,0,-1,3,1021,4,-1534
1390,16.003174,4,1,-1,1021,2,-1536
1391,16.014717,-2,0,1,1020,-3,-1522
1392,16.026314,-2,1,3,1021,5,-1531
1393,16.037933,-1,-1,-1,1021,-1,-1523
1394,16.049616,2,0,2,1023,3,-1536
1395,16.061304,4,-1,1,1019,3,-1535
1396,16.072965,0,2,0,1014,4,-1538
1397,16.084613,4,-3,1,1016,2,-1533
1398,16.096267,2,-2,0,1015,-3,-1524
1399,16.107922,-2,0,-2,1015,-3,-1534
1400,16.11958,0,1,-2,1020,2,-1525
1401,16.131245,0,0,1,1018,0,-1536
1402,16.142894,0,-1,1,1014,0,-1545
1403,16.154455,-1,6,1,1012,6,-1525
1404,16.16601,2,-3,3,1020,-4,-1522
1405,16.177583,-4,4,0,1019,2,-1545
1406,16.189163,6,4,1,1020,0,-1512
1407,16.200724,0,-1,-1,1021,0,-1527
1408,16.212269,3,2,1,1021,5,-1534
1409,16.223805,2,2,0,1021,0,-1518
1410,16.235354,-1,-3,3,1021,1,-1533
1411,16.247029,-3,-1,0,1019,3,-1534
1412,16.2587,-2,-2,0,1021,0,-1525
1413,16.270392,0,-1,1,1020,3,-1535
1414,16.28207,2,0,2,1018,-1,-1536
1415,16.293752,1,2,-1,1015,-2,-1537
1416,16.305447,1,1,1,1017,1,-1532
1417,16.317106,1,0,0,1016,-5,-1525
1418,16.328773,-1,-1,-4,1021,-2,-1532
1419,16.34044,2,-1,0,1019,0,-1522
1420,16.351999,-2,0,0,1019,-1,-1528
1421,16.36356,2,0,1,1014,0,-1527
1422,16.375101,3,1,1,1012,1,-1531
1423,16.386648,-1,0,2,1016,2,-1526
1424,16.39822,0,0,1,1018,0,-1526
1425,16.409771,-2,1,0,1015,2,-1531
1426,16.421348,2,1,2,1020,0,-1535
1427,16.432915,0,-2,2,1021,-1,-1537
1428,16.444486,4,1,-1,1016,2,-1533
1429,16.456092,2,-1,0,1017,0,-1526
1430,16.467746,-2,0,1,1018,0,-1525
1431,16.479401,4,-1,0,1016,3,-1526
1432,16.491068,-2,0,1,1015,4,-1533
1433,16.502712,2,-1,2,1020,4,-1539
1434,16.514391,3,0,0,1017,0,-1521
1435,16.526065,1,1,0,1022,2,-1525
1436,16.537741,-1,3,0,1017,4,-1518
1437,16.549387,6,-2,3,1018,0,-1532
1438,16.561059,-3,1,-1,1016,-3,-1533
1439,16.57264,6,1,0,1017,2,-1537
1440,16.584188,2,-1,-1,1017,-5,-1539
1441,16.595745,-6,2,3,1020,-1,-1527
1442,16.607294,4,0,-1,1020,4,-1530
1443,16.618893,-2,-1,0,1018,0,-1529
1444,16.630443,2,1,-2,1020,7,-1543
1445,16.641998,4,-3,3,1019,1,-1529
1446,16.653585,-2,0,1,1020,0,-1533
1447,16.665223,4,0,2,1018,0,-1535
1448,16.676874,-2,-2,0,1023,-3,-1529
1449,16.688548,-2,2,1,1021,0,-1532
1450,16.700199,3,0,1,1016,2,-1530
1451,16.71185,-2,1,0,1021,0,-1536
1452,16.723514,3,-2,0,1016,4,-1527
1453,16.735202,1,0,0,1017,-5,-1526
1454,16.746856,-1,2,1,1016,2,-1537
1455,16.758571,-1,1,0,1021,0,-1526
1456,16.770282,0,-3,2,1019,0,-1525
1457,16.781887,1,0,0,1013,2,-1527
1458,16.793535,0,1,1,1019,-2,-1530
1459,16.805107,0,-2,-1,1018,-1,-1530
1460,16.816657,-1,1,1,1016,3,-1534
1461,16.828206,1,1,2,1021,0,-1525
1462,16.839763,0,0,-1,1021,-1,-1528
1463,16.8513,1,0,0,1017,-2,-1527
1464,16.862853,1,0,1,1018,-2,-1523
1465,16.874435,1,2,1,1016,0,-1533
1466,16.886017,1,2,1,1020,1,-1532
1467,16.897579,1,1,2,1020,-1,-1526
1468,16.909107,0,-1,-1,1018,1,-1530
1469,16.920657,2,0,2,1020,1,-1522
1470,16.932224,0,-1,4,1017,1,-1529
1471,16.943776,2,2,0,1021,0,-1529
1472,16.955352,-1,-1,2,1021,-3,-1532
1473,16.966979,0,0,0,1020,0,-1533
1474,16.97865,1,0,1,1018,0,-1530
1475,16.99033,-1,-1,1,1015,1,-1530
1476,17.002005,2,0,2,1020,2,-1534
1477,17.013734,-1,-1,1,1019,2,-1528
1478,17.025515,0,0,2,1021,3,-1527
1479,17.037189,3,-1,0,1020,-2,-1531
1480,17.048835,1,0,2,1020,0,-1529
1481,17.060486,2,-2,1,1018,0,-1527
1482,17.072169,1,0,0,1018,-1,-1539
1483,17.083826,1,2,-1,1017,0,-1523
1484,17.09551,1,1,1,1019,1,-1525
1485,17.107174,0,0,1,1022,0,-1531
1486,17.118823,2,-3,2,1018,0,-1525
1487,17.130467,0,-2,2,1021,-1,-1528
1488,17.142131,1,-1,1,1019,-1,-1527
1489,17.153805,2,1,1,1018,3,-1529
1490,17.165456,3,1,1,1020,2,-1538
1491,17.177148,0,-1,2,1015,0,-1524
1492,17.188821,2,1,0,1017,1,-1526
1493,17.200461,1,1,0,1015,-2,-1533
1494,17.212125,-2,1,1,1017,0,-1530
1495,17.223798,1,1,-1,1020,5,-1531
1496,17.235443,3,0,0,1019,1,-1530
1497,17.24709,0,1,0,1015,4,-1535
1498,17.258737,2,0,1,1021,0,-1526
1499,17.270417,1,1,0,1019,1,-1525
1500,17.282097,-2,-1,3,1021,2,-1529
1501,17.293802,3,0,1,1021,0,-1530
1502,17.30535,0,1,-1,1019,1,-1524
1503,17.316897,3,0,4,1017,3,-1529
1504,17.328439,1,0,1,1013,0,-1532
1505,17.33999,1,1,2,1018,0,-1532
1506,17.351571,0,1,1,1018,0,-1528
1507,17.363127,1,-1,-1,1019,1,-1536
1508,17.374683,2,2,0,1019,0,-1531
1509,17.386265,0,-1,-1,1019,0,-1529
1510,17.397891,1,-1,1,1017,3,-1528
1511,17.409562,1,1,0,1019,2,-1535
1512,17.421237,2,-2,1,1013,0,-1530
1513,17.432906,0,1,1,1022,2,-1530
1514,17.444556,1,1,-1,1020,1,-1528
1515,17.456202,-2,0,2,1019,0,-1531
1516,17.467871,0,-1,1,1019,1,-1532
1517,17.479541,2,-1,-2,1017,-1,-1531
1518,17.491221,2,1,1,1018,0,-1533
1519,17.502896,2,0,1,1017,1,-1528
1520,17.514462,0,-1,0,1021,0,-1527
1521,17.526014,1,0,4,1015,-2,-1530
1522,17.53758,2,0,0,1014,0,-1525
1523,17.549152,-5,4,0,1010,4,-1510
1524,17.56071,3,6,1,1011,5,-1573
1525,17.572257,3,-1,-2,1022,13,-1602
1526,17.583795,-2,3,-1,1022,-8,-1476
1527,17.595352,-2,-1,2,1018,1,-1539
1528,17.606968,2,3,3,1022,0,-1514
1529,17.618658,-6,5,1,1014,1,-1535
1530,17.630333,7,-1,2,1017,7,-1541
1531,17.642027,-2,0,-1,1022,-6,-1510
1532,17.6537,-2,-3,2,1032,6,-1529
1533,17.665364,-2,-3,0,1027,-3,-1514
1534,17.677027,-2,-2,-2,1022,11,-1545
1535,17.688686,7,-2,0,1018,4,-1538
1536,17.700336,-2,1,3,1018,6,-1539
1537,17.711994,8,-3,0,1014,4,-1539
1538,17.723578,-3,0,1,1015,-5,-1513
1539,17.73513,-3,-3,0,1021,0,-1529
1540,17.74669,7,-1,2,1012,-3,-1526
1541,17.758256,1,-2,2,1014,0,-1523
1542,17.769826,-1,-2,0,1020,0,-1543
1543,17.781349,2,3,2,1021,-1,-1522
1544,17.792893,2,1,0,1019,0,-1525
1545,17.804442,-1,2,-1,1022,6,-1533
1546,17.816077,0,0,-1,1019,0,-1523
1547,17.827754,0,2,0,1015,0,-1527
1548,17.839438,-2,0,4,1021,1,-1532
1549,17.85109,2,-1,1,1023,3,-1532
1550,17.862752,-1,0,1,1021,-1,-1535
1551,17.874417,0,0,0,1017,0,-1532
1552,17.886076,1,1,-2,1019,-1,-1529
1553,17.897772,1,1,0,1020,2,-1524
1554,17.909452,1,-1,4,1020,6,-1536
1555,17.921122,1,1,-1,1018,0,-1531
1556,17.932689,2,-2,1,1017,1,-1526
1557,17.944239,0,0,0,1019,1,-1538
1558,17.955795,0,1,0,1014,-1,-1525
1559,17.967387,-2,-5,1,1014,-2,-1524
1560,17.978939,3,0,2,1017,-3,-1528
1561,17.990503,-1,0,0,1018,-7,-1526
1562,18.002061,-2,0,-2,1018,-1,-1539
1563,18.013603,3,0,-1,1017,2,-1525
1564,18.025242,-2,0,0,1012,4,-1535
1565,18.036894,4,0,0,1018,4,-1534
1566,18.048545,0,0,4,1017,4,-1525
1567,18.060208,0,0,2,1016,2,-1525
1568,18.071845,2,3,0,1020,2,-1528
1569,18.083496,0,1,1,1018,2,-1527
1570,18.0952,3,0,0,1021,1,-1534
1571,18.106839,2,2,2,1021,0,-1530
1572,18.118538,0,1,0,1023,-1,-1535
1573,18.130198,-1,0,0,1020,-1,-1526
1574,18.141769,1,0,2,1016,5,-1528
1575,18.153348,0,-1,0,1015,4,-1534
1576,18.164895,0,-1,1,1010,2,-1535
1577,18.178612,2,1,0,1017,0,-1530
1578,18.190205,0,-2,2,1017,1,-1530
1579,18.201768,1,2,2,1021,0,-1530
1580,18.213347,1,0,1,1015,1,-1520
1581,18.224918,0,-1,3,1014,0,-1534
1582,18.236494,0,0,2,1016,-1,-1531
1583,18.248045,1,1,2,1019,3,-1530
1584,18.259623,0,-2,0,1020,0,-1531
1585,18.27117,2,0,2,1017,2,-1528
1586,18.28272,1,-1,0,1018,3,-1531
1587,18.2943,1,0,2,1016,0,-1532
1588,18.305828,2,0,1,1018,3,-1531
1589,18.317349,1,-1,0,1016,1,-1533
1590,18.32898,1,-3,1,1021,-5,-1531
1591,18.340618,0,2,2,1019,-3,-1532
1592,18.3523,1,-2,1,1019,-5,-1532
1593,18.363962,1,2,1,1019,-3,-1529
1594,18.375602,-1,1,1,1021,1,-1533
1595,18.387283,1,2,-1,1022,0,-1533
1596,18.398941,0,-3,4,1017,0,-1533
1597,18.410595,2,0,1,1017,0,-1531
1598,18.422283,0,-1,1,1015,3,-1532
1599,18.433956,1,1,1,1014,0,-1533
1600,18.44565,1,-2,-1,1017,0,-1530
1601,18.457298,1,1,1,1020,-2,-1530
1602,18.468976,2,0,-1,1021,0,-1528
1603,18.480645,2,0,0,1020,-1,-1538
1604,18.492312,0,0,0,1020,1,-1524
1605,18.503959,1,2,1,1016,1,-1527
1606,18.515615,0,-2,0,1021,0,-1532
1607,18.527278,0,-2,1,1019,3,-1526
1608,18.538937,1,-3,1,1022,3,-1523
1609,18.550588,0,0,-1,1015,1,-1532
1610,18.562154,0,-2,0,1015,-1,-1530
1611,18.57376,1,0,0,1017,-3,-1533
1612,18.585335,1,-2,2,1019,0,-1532
1613,18.596886,0,0,1,1018,0,-1527
1614,18.608428,1,-1,1,1017,1,-1536
1615,18.619982,1,3,2,1017,0,-1531
1616,18.631535,0,0,1,1017,0,-1533
1617,18.643143,2,0,-2,1018,1,-1537
1618,18.654838,-2,0,2,1016,0,-1534
1619,18.666547,1,1,1,1017,0,-1534
1620,18.678214,3,0,-1,1018,4,-1526
1621,18.689881,-2,1,1,1017,-1,-1528
1622,18.701557,-1,0,0,1017,-5,-1530
1623,18.713244,0,1,-1,1019,2,-1528
1624,18.72489,0,0,1,1025,-1,-1531
1625,18.736541,2,0,0,1021,-1,-1531
1626,18.748209,-1,1,0,1019,0,-1531
1627,18.759853,0,-1,1,1018,-1,-1525
1628,18.771415,0,1,1,1015,-1,-1532
1629,18.783009,0,0,2,1017,2,-1534
1630,18.794573,1,-1,1,1016,2,-1527
1631,18.806127,2,0,0,1015,5,-1533
1632,18.817694,1,-1,0,1018,1,-1530
1633,18.829256,0,1,0,1014,0,-1533
1634,18.840824,1,0,0,1011,-4,-1533
1635,18.852387,2,-1,-1,1014,-3,-1534
1636,18.864003,2,-2,0,1017,1,-1526
1637,18.875663,0,1,0,1021,-1,-1530
1638,18.887315,0,1,0,1020,-1,-1535
1639,18.898959,2,-1,3,1019,-2,-1534
1640,18.910649,1,1,1,1020,0,-1528
1641,18.922321,1,-1,1,1020,0,-1527
1642,18.933996,1,-1,1,1020,-1,-1537
1643,18.94566,1,-2,0,1019,1,-1530
1644,18.957326,1,0,1,1020,1,-1539
1645,18.968985,0,0,2,1019,6,-1532
1646,18.980542,0,0,1,1020,-5,-1530
1647,18.992097,3,0,1,1013,2,-1535
1648,19.00365,2,1,2,1013,3,-1530
1649,19.015203,1,0,1,1015,-1,-1525
1650,19.026765,0,0,0,1019,-1,-1524
1651,19.038343,0,2,2,1016,0,-1528
1652,19.0499,2,3,0,1015,0,-1537
1653,19.061494,1,-2,2,1014,0,-1530
1654,19.073117,1,1,0,1018,0,-1529
1655,19.084784,1,1,3,1019,0,-1533
1656,19.096437,-1,0,1,1024,0,-1536
1657,19.108088,0,0,0,1021,-1,-1531
1658,19.11976,1,1,1,1017,2,-1531
1659,19.131411,1,0,0,1012,3,-1533
1660,19.14306,1,1,2,1019,0,-1539
1661,19.154712,1,0,0,1021,-1,-1535
1662,19.166399,1,1,1,1017,4,-1524
1663,19.178068,1,0,-1,1020,0,-1529
1664,19.18963,0,2,-1,1020,0,-1527
1665,19.201233,0,-1,0,1016,-1,-1530
1666,19.212811,2,-1,1,1020,0,-1533
1667,19.22437,0,1,2,1019,-1,-1530
1668,19.235909,1,2,-1,1018,-3,-1529
1669,19.247456,1,0,0,1015,0,-1531
1670,19.259025,0,2,0,1021,-3,-1531
1671,19.270585,1,0,0,1015,4,-1529
1672,19.282214,0,-3,0,1015,0,-1527
1673,19.293897,1,1,1,1018,1,-1529
1674,19.305557,2,1,1,1017,0,-1527
1675,19.317242,-1,0,0,1018,5,-1531
1676,19.328903,0,-1,1,1019,-1,-1530
1677,19.340557,-2,3,0,1021,5,-1530
1678,19.352202,-1,1,0,1016,1,-1531
1679,19.363852,2,-1,1,1015,0,-1529
1680,19.375539,2,-2,0,1019,0,-1533
1681,19.3872,1,3,-1,1018,0,-1529
1682,19.398751,0,0,2,1021,2,-1528
1683,19.410306,-1,1,0,1019,1,-1530
1684,19.421813,1,-1,0,1020,-3,-1532
1685,19.433348,-2,-2,1,1021,-3,-1525
1686,19.444902,0,-2,-1,1016,4,-1533
1687,19.456479,1,1,0,1015,0,-1528
1688,19.468021,-1,0,-1,1019,0,-1524
1689,19.47958,2,-2,1,1019,2,-1534
1690,19.491202,0,1,3,1012,-1,-1530
1691,19.502855,0,1,0,1019,1,-1526
1692,19.514532,1,0,0,1016,2,-1531
1693,19.526197,0,0,-1,1017,2,-1532
1694,19.53787,0,0,0,1016,0,-1533
1695,19.54955,0,0,-1,1020,-3,-1523
1696,19.561238,0,0,0,1017,5,-1534
1697,19.572884,0,-2,0,1021,-2,-1530
1698,19.584569,-2,2,1,1020,2,-1527
1699,19.596223,1,-2,1,1012,2,-1530
1700,19.607777,2,0,4,1016,-1,-1532
1701,19.619326,1,2,0,1018,1,-1532
1702,19.630875,1,0,1,1016,-2,-1533
1703,19.642461,2,1,3,1017,-7,-1532
1704,19.654015,2,2,-1,1018,-3,-1536
1705,19.665598,3,6,0,1020,-7,-1543
1706,19.677143,1,7,1,1017,-4,-1528
1707,19.688721,-1,7,0,1010,5,-1539
1708,19.700345,3,7,-1,1009,2,-1539
1709,19.712025,0,10,1,1011,6,-1531
1710,19.723677,-2,5,1,1021,7,-1524
1711,19.735324,3,5,0,1023,4,-1528
1712,19.747014,-2,6,0,1020,-1,-1526
1713,19.758666,0,6,-1,1026,1,-1527
1714,19.770325,7,5,-1,1022,4,-1519
1715,19.782013,-2,3,-1,1020,-2,-1522
1716,19.793685,0,2,1,1024,-3,-1537
1717,19.805336,6,-1,-1,1024,-5,-1524
1718,19.816894,-1,0,1,1029,-5,-1524
1719,19.828443,1,0,1,1023,-4,-1518
1720,19.839991,-4,3,0,1022,4,-1536
1721,19.851561,9,-1,0,1021,5,-1534
1722,19.863132,-3,2,0,1016,0,-1522
1723,19.874709,7,-2,1,1018,6,-1527
1724,19.886257,2,0,1,1021,0,-1531
1725,19.897831,-1,-3,1,1024,0,-1538
1726,19.909452,0,0,2,1021,0,-1529
1727,19.921118,2,-2,0,1022,4,-1531
1728,19.932783,0,1,0,1013,-2,-1535
1729,19.944439,0,0,0,1013,1,-1528
1730,19.956133,-2,-1,-1,1018,0,-1520
1731,19.967788,-1,0,-1,1021,-9,-1527
1732,19.979439,-3,1,3,1024,0,-1537
1733,19.991099,1,-4,0,1032,-6,-1506
1734,20.002786,-3,-2,0,1024,0,-1531
1735,20.014439,-1,0,0,1014,0,-1510
1736,20.026008,0,-4,2,1016,0,-1518
1737,20.037599,2,-2,0,1018,0,-1535
1738,20.049167,-2,-2,2,1024,0,-1536
1739,20.06071,2,-4,2,1027,0,-1526
1740,20.072254,-2,-4,0,1020,-1,-1536
1741,20.083793,-2,-1,1,1020,3,-1534
1742,20.095339,1,-2,0,1018,2,-1525
1743,20.106896,0,-1,0,1017,1,-1545
1744,20.118578,1,-2,0,1017,2,-1542
1745,20.130279,-5,3,3,1025,0,-1529
1746,20.141936,12,-6,0,1028,-8,-1522
1747,20.153612,-10,0,1,1022,-2,-1534
1748,20.165288,7,-5,0,1015,0,-1531
1749,20.176929,2,-3,0,1009,-9,-1527
1750,20.188573,-5,1,1,1015,2,-1526
1751,20.200232,1,0,1,1018,-2,-1529
1752,20.211894,-2,0,-2,1025,-2,-1538
1753,20.223542,-1,-2,0,1024,4,-1537
1754,20.235128,-1,0,1,1023,0,-1525
1755,20.246697,1,-2,4,1020,7,-1534
1756,20.258298,-1,-4,-1,1017,6,-1517
1757,20.270003,1,-5,-1,1020,4,-1531
1758,20.281586,-1,-1,2,1018,1,-1539
1759,20.29311,2,-1,0,1020,-1,-1531
1760,20.304656,-2,-3,1,1019,-4,-1529
1761,20.316227,1,-1,0,1017,3,-1534
1762,20.32781,-2,1,-1,1009,2,-1532
1763,20.339359,5,-3,-1,1011,7,-1536
1764,20.350919,-2,0,1,1016,2,-1530
1765,20.362486,1,-1,1,1022,3,-1549
1766,20.374086,-2,-1,1,1022,0,-1534
1767,20.385634,0,0,0,1017,1,-1524
1768,20.39718,1,0,1,1015,0,-1525
1769,20.408753,-1,-1,1,1013,1,-1532
1770,20.420379,-1,2,0,1018,-2,-1524
1771,20.43204,0,0,-1,1021,-3,-1538
1772,20.443712,2,1,1,1021,1,-1535
1773,20.455409,0,1,0,1021,-5,-1536
1774,20.467063,4,2,0,1023,1,-1529
1775,20.478729,0,-1,2,1019,-2,-1525
1776,20.490407,1,0,1,1023,1,-1540
1777,20.502061,2,-1,0,1023,0,-1521
1778,20.513734,1,-1,1,1021,3,-1536
1779,20.525393,-1,-3,-2,1018,-5,-1517
1780,20.537048,-3,-1,2,1016,6,-1532
1781,20.548693,8,-3,-2,1015,-8,-1513
1782,20.560341,3,-1,1,1013,3,-1540
1783,20.572015,1,-1,0,1015,-2,-1526
1784,20.583664,-3,0,3,1018,-2,-1527
1785,20.595311,1,2,1,1014,-3,-1521
1786,20.606958,-2,-1,-1,1018,4,-1539
1787,20.618653,1,0,2,1020,5,-1528
1788,20.630327,3,-1,2,1019,4,-1534
1789,20.642026,1,2,3,1020,3,-1535
1790,20.653682,0,-4,1,1022,0,-1542
1791,20.665357,4,-3,1,1015,5,-1526
1792,20.677026,1,-3,1,1021,-4,-1518
1793,20.688672,4,-1,1,1023,0,-1533
1794,20.700346,-6,1,1,1018,-4,-1507
1795,20.712016,1,0,-1,1024,4,-1536
1796,20.723664,2,-1,0,1020,0,-1515
1797,20.735382,1,-1,3,1014,3,-1533
1798,20.747024,3,3,1,1018,0,-1521
1799,20.758599,5,-4,2,1025,0,-1535
1800,20.770163,-3,1,-2,1026,1,-1545
1801,20.781722,5,-2,1,1019,-1,-1532
1802,20.793273,-1,-4,0,1018,-4,-1515
1803,20.804817,4,1,-1,1019,3,-1582
1804,20.816363,-2,5,3,1011,-5,-1482
1805,20.827932,3,-1,0,1018,0,-1566
1806,20.839495,4,3,2,1018,-4,-1539
1807,20.851184,-4,2,1,1016,-1,-1500
1808,20.862854,1,-5,1,1028,0,-1553
1809,20.874529,-2,3,-1,1016,-1,-1523
1810,20.886183,2,-2,0,1020,6,-1533
1811,20.897873,-2,-2,2,1023,0,-1523
1812,20.909543,1,0,1,1018,0,-1537
1813,20.921189,-2,0,0,1016,6,-1537
1814,20.932834,8,-5,1,1023,5,-1536
1815,20.944501,-6,2,1,1021,-6,-1504
1816,20.956042,3,1,1,1012,-3,-1513
1817,20.967595,-9,0,2,1014,0,-1528
1818,20.979138,2,1,-1,1013,7,-1542
1819,20.990676,3,2,0,1016,-5,-1515
1820,21.00223,-6,2,0,1025,3,-1548
1821,21.013779,-2,3,2,1021,-2,-1507
1822,21.025345,2,-1,0,1017,4,-1553
1823,21.036891,-8,0,0,1018,0,-1487
1824,21.048478,1,-1,-1,1020,-5,-1491
1825,21.060121,-2,2,0,1018,5,-1534
1826,21.071811,0,-1,2,1016,0,-1513
1827,21.083461,1,-1,1,1017,-1,-1542
1828,21.095118,-3,-2,-1,1013,2,-1542
1829,21.106791,-1,1,1,1019,-1,-1522
1830,21.118445,1,-1,1,1023,-4,-1532
1831,21.13014,-2,1,2,1026,1,-1522
1832,21.141795,-2,0,3,1026,-2,-1521
1833,21.153457,0,0,0,1019,5,-1545
1834,21.16513,3,-1,0,1021,3,-1524
1835,21.176691,-2,-1,0,1020,5,-1524
1836,21.188246,0,2,2,1012,2,-1524
1837,21.199898,-2,-1,1,1007,0,-1529
1838,21.211709,0,1,1,1013,0,-1530
1839,21.2233,5,0,1,1016,-5,-1530
1840,21.234881,0,1,1,1019,3,-1547
1841,21.246476,2,2,2,1017,-1,-1523
1842,21.25812,-2,-1,1,1014,-2,-1524
1843,21.269698,2,1,0,1015,2,-1528
1844,21.281259,-8,0,3,1013,2,-1500
1845,21.292806,7,-5,1,1021,3,-1563
1846,21.304352,-10,6,1,1017,-6,-1494
1847,21.315912,0,2,3,1022,7,-1549
1848,21.327476,0,1,1,1019,0,-1547
1849,21.339026,-1,3,3,1021,1,-1525
1850,21.350594,1,-4,1,1010,0,-1512
1851,21.362146,2,0,-1,1016,7,-1529
1852,21.37381,-6,2,-2,1025,0,-1527
1853,21.385492,7,-1,1,1029,3,-1548
1854,21.397118,1,1,1,1026,-2,-1532
1855,21.408789,0,1,1,1015,5,-1529
1856,21.420429,2,0,1,1011,1,-1538
1857,21.432113,0,0,1,1011,3,-1527
1858,21.443777,2,1,0,1020,2,-1525
1859,21.455422,2,-1,2,1025,-4,-1527
1860,21.467081,-2,-2,2,1023,-3,-1537
1861,21.478795,-3,4,1,1006,12,-1535
1862,21.490381,8,-3,-1,1013,-1,-1551
1863,21.501977,-11,5,0,1019,4,-1551
1864,21.513529,4,0,1,1017,-9,-1517
1865,21.525109,-2,1,1,1024,-7,-1535
1866,21.536663,2,5,0,1020,1,-1539
1867,21.548213,4,0,0,1016,4,-1544
1868,21.559773,5,3,0,1006,12,-1559
1869,21.571375,7,-6,2,1009,9,-1550
1870,21.583022,-3,-2,1,1023,1,-1535
1871,21.594679,0,3,0,1021,4,-1523
1872,21.606319,0,-4,0,1022,-13,-1529
1873,21.618009,2,0,2,1017,7,-1557
1874,21.629675,4,-1,-1,1011,0,-1513
1875,21.641348,0,0,0,1015,4,-1540
1876,21.653018,5,0,3,1018,-4,-1533
1877,21.664679,-3,2,2,1024,-4,-1515
1878,21.676329,-2,0,-1,1023,7,-1542
1879,21.688027,-2,-5,-1,1030,-10,-1503
1880,21.699598,1,-2,1,1016,6,-1536
1881,21.711144,-2,-1,0,1029,-12,-1477
1882,21.722693,-2,3,0,1023,4,-1535
1883,21.734246,-2,-2,1,1023,-6,-1533
1884,21.745842,-2,-1,2,1011,3,-1525
1885,21.757388,6,-4,-1,1013,4,-1546
1886,21.768927,-5,5,2,1016,-3,-1522
1887,21.780486,1,-1,1,1025,-5,-1518
1888,21.792105,-1,0,0,1023,1,-1528
1889,21.803794,8,0,-1,1029,0,-1552
1890,21.815441,-5,6,-2,1016,-4,-1544
1891,21.827124,4,-1,4,1015,1,-1539
1892,21.838773,-2,2,0,1012,-6,-1532
1893,21.850403,-5,1,2,1019,0,-1519
1894,21.862061,8,-4,0,1024,-9,-1535
1895,21.873706,-1,-1,1,1020,-2,-1532
1896,21.885387,1,-1,1,1016,-2,-1530
1897,21.897048,0,0,1,1017,-5,-1527
1898,21.908605,-1,-2,3,1019,-5,-1529
1899,21.920169,-3,5,2,1018,9,-1535
1900,21.931723,10,-4,-1,1020,0,-1518
1901,21.94327,-8,1,-1,1020,-7,-1518
1902,21.954814,-1,2,1,1011,6,-1531
1903,21.966373,-2,-2,2,1008,0,-1511
1904,21.977969,-2,1,1,1022,7,-1568
1905,21.989534,6,-1,1,1019,1,-1505
1906,22.001189,2,0,1,1028,-4,-1524
1907,22.012839,1,0,0,1024,5,-1531
1908,22.02451,10,-3,1,1022,-3,-1547
1909,22.036156,-6,-2,1,1021,-9,-1519
1910,22.047805,2,1,0,1014,-2,-1534
1911,22.059465,-4,-1,-2,1018,-10,-1479
1912,22.071131,-4,0,1,1021,8,-1543
1913,22.082783,9,-4,0,1021,1,-1541
1914,22.094398,-1,-4,1,1019,5,-1518
1915,22.10606,2,-1,-1,1024,4,-1557
1916,22.117708,-1,4,0,1022,-7,-1510
1917,22.129379,-2,0,0,1018,3,-1535
1918,22.141037,-5,3,1,1015,0,-1534
1919,22.15268,8,-4,2,1015,2,-1537
1920,22.164327,-3,0,0,1010,-3,-1509
1921,22.176045,-2,-1,1,1012,2,-1529
1922,22.187695,0,-1,2,1009,-3,-1507
1923,22.199361,-4,1,1,1019,7,-1562
1924,22.211025,6,1,-1,1016,4,-1518
1925,22.222665,-2,2,0,1025,4,-1535
1926,22.234322,3,0,-1,1024,2,-1536
1927,22.246017,4,1,1,1025,0,-1527
1928,22.257672,0,1,2,1018,1,-1535
1929,22.269363,0,2,0,1017,-4,-1528
1930,22.281017,2,-4,-1,1022,-1,-1544
1931,22.292667,-7,5,1,1016,3,-1503
1932,22.304353,3,-6,-1,1018,-4,-1528
1933,22.316022,-11,5,-1,1019,14,-1548
1934,22.327668,11,-2,-1,1020,-3,-1513
1935,22.339318,-10,0,0,1020,-6,-1525
1936,22.350964,-3,1,1,1021,8,-1535
1937,22.36265,-4,1,1,1016,-5,-1528
1938,22.374313,-1,1,0,1017,8,-1560
1939,22.385953,4,1,1,1016,0,-1495
1940,22.397621,1,-1,-1,1020,1,-1535
1941,22.409291,2,6,3,1014,0,-1538
1942,22.420947,3,-2,2,1019,0,-1517
1943,22.432507,0,-1,1,1018,4,-1550
1944,22.444059,-2,2,0,1023,0,-1530
1945,22.455607,0,0,1,1019,-2,-1533
1946,22.467184,0,-2,0,1023,6,-1544
1947,22.478733,-1,1,1,1016,0,-1530
1948,22.49033,4,-2,0,1016,0,-1534
1949,22.501885,1,0,1,1017,4,-1534
1950,22.513475,3,-1,3,1014,-1,-1534
1951,22.525154,-4,2,2,1017,-2,-1524
1952,22.536829,-2,0,0,1020,3,-1527
1953,22.548498,1,0,1,1021,-2,-1527
1954,22.560161,-1,0,1,1022,4,-1537
1955,22.571802,4,0,1,1020,0,-1530
1956,22.583451,3,-2,1,1016,0,-1526
1957,22.595134,0,1,0,1013,8,-1532
1958,22.606773,2,-4,1,1018,0,-1527
1959,22.618418,0,1,0,1014,1,-1536
1960,22.630095,1,1,0,1018,2,-1523
1961,22.641769,-2,0,1,1015,-2,-1528
1962,22.653425,2,1,-2,1018,3,-1536
1963,22.665112,1,1,2,1018,-1,-1529
1964,22.676767,1,-1,1,1021,1,-1529
1965,22.688416,-1,-3,1,1019,1,-1527
1966,22.70008,1,0,1,1019,6,-1528
1967,22.711748,2,-1,2,1019,3,-1534
1968,22.723428,0,1,1,1016,-2,-1527
1969,22.735114,2,-2,1,1021,0,-1538
1970,22.746764,-2,0,1,1019,1,-1522
1971,22.758403,2,3,1,1016,2,-1530
1972,22.770048,-1,0,0,1014,0,-1532
1973,22.781704,0,-3,2,1014,1,-1530
1974,22.793383,2,2,0,1015,1,-1546
1975,22.805025,-2,2,1,1016,-3,-1533
1976,22.816674,6,-5,1,1031,0,-1545
1977,22.828409,0,1,1,1024,1,-1531
1978,22.84003,-2,2,3,1021,0,-1506
1979,22.851592,3,-6,-1,1016,-5,-1530
1980,22.863138,-3,4,1,1011,1,-1520
1981,22.874701,0,-2,1,1013,0,-1513
1982,22.886241,4,1,1,1025,5,-1588
1983,22.897832,3,-1,3,1022,3,-1517
1984,22.909348,14,-5,0,1027,10,-1570
1985,22.920909,3,2,1,1018,-14,-1521
1986,22.932452,-8,1,1,1014,-1,-1522
1987,22.944017,7,-1,1,1021,-3,-1517
1988,22.95559,-8,2,2,1000,6,-1579
1989,22.96714,2,-6,1,1014,5,-1504
1990,22.9787,0,0,0,1023,2,-1542
1991,22.990243,6,2,-2,1022,-6,-1514
1992,23.001821,-2,-2,-2,1021,1,-1521
1993,23.013349,2,-3,0,1019,7,-1550
1994,23.024911,1,5,0,1006,2,-1510
1995,23.036474,-3,-6,0,1019,13,-1535
1996,23.0481,-3,0,2,1035,-12,-1485
1997,23.059763,1,0,2,1033,2,-1534
1998,23.071409,1,1,2,1026,-3,-1512
1999,23.08306,-2,1,-2,1012,7,-1527
