sample,t_s,gyro_x,gyro_y,gyro_z,accel_x,accel_y,accel_z
0,1.1e-05,4,-1,12,14,26,-1034
1,0.011456,2,11,7,14,26,-1045
2,0.022671,1,6,9,15,25,-1039
3,0.033872,0,7,10,14,25,-1035
4,0.045084,3,8,9,15,26,-1039
5,0.056271,5,7,10,13,23,-1038
6,0.067465,2,6,8,12,28,-1036
7,0.078649,0,8,9,10,28,-1031
8,0.089831,3,9,10,17,24,-1035
9,0.101017,3,5,9,17,27,-1032
10,0.112206,3,7,12,14,30,-1033
11,0.123393,3,7,9,13,27,-1038
12,0.134577,3,5,10,12,24,-1033
13,0.145761,2,6,8,21,25,-1035
14,0.156945,1,6,10,16,26,-1037
15,0.168131,2,5,9,13,27,-1030
16,0.17933,2,6,8,15,28,-1035
17,0.19052,2,6,7,13,26,-1025
18,0.201702,1,7,9,13,28,-1031
19,0.212891,1,2,8,14,27,-1030
20,0.224072,4,6,8,14,25,-1032
21,0.235261,2,8,9,13,21,-1027
22,0.246447,2,7,7,14,25,-1036
23,0.257658,1,6,8,11,26,-1035
24,0.268844,3,4,10,11,30,-1033
25,0.280032,3,6,8,15,25,-1025
26,0.291215,0,7,9,17,23,-1035
27,0.302399,2,6,9,14,23,-1034
28,0.313581,1,4,14,12,27,-1039
29,0.324761,3,7,8,10,26,-1036
30,0.335947,1,9,9,15,27,-1038
31,0.347142,3,8,7,12,29,-1038
32,0.358325,2,5,10,16,25,-1039
33,0.369508,2,7,10,15,30,-1036
34,0.380689,2,6,9,13,26,-1029
35,0.391881,3,7,8,14,29,-1033
36,0.403075,4,7,10,13,26,-1033
37,0.414258,0,2,9,10,23,-1035
38,0.425441,2,7,9,14,26,-1026
39,0.436622,3,7,9,18,24,-1030
40,0.447814,1,8,9,15,27,-1034
41,0.458996,2,7,9,14,26,-1035
42,0.470181,1,6,6,15,26,-1037
43,0.481376,3,7,7,10,28,-1036
44,0.492558,1,5,10,12,24,-1033
45,0.503701,4,7,8,13,27,-1031
46,0.514883,1,4,9,14,26,-1032
47,0.526066,1,6,9,18,24,-1036
48,0.53725,3,7,9,18,24,-1038
49,0.548434,2,6,7,14,26,-1033
50,0.559626,1,5,7,17,26,-1031
51,0.57081,1,6,10,15,23,-1036
52,0.581996,1,7,11,14,25,-1030
53,0.593184,3,7,9,17,25,-1032
54,0.604368,5,9,8,14,24,-1037
55,0.615515,0,5,10,13,24,-1034
56,0.626697,2,7,8,14,22,-1036
57,0.637877,2,4,10,13,25,-1030
58,0.649075,0,8,9,13,23,-1032
59,0.660259,0,7,8,14,28,-1033
60,0.671445,0,0,9,15,29,-1038
61,0.682626,2,3,9,15,24,-1036
62,0.69381,1,4,10,16,26,-1038
63,0.704989,2,7,9,15,23,-1038
64,0.716182,3,7,8,10,30,-1034
65,0.727337,1,8,11,13,26,-1034
66,0.738519,1,7,9,14,29,-1032
67,0.7497,2,9,9,17,24,-1030
68,0.760897,4,6,8,14,25,-1037
69,0.772074,0,2,11,14,23,-1040
70,0.783262,5,7,9,14,28,-1033
71,0.794443,2,5,8,11,27,-1034
72,0.805626,2,6,7,15,27,-1032
73,0.816807,3,9,10,15,27,-1036
74,0.827996,2,7,9,16,31,-1030
75,0.839147,3,6,11,15,24,-1036
76,0.850329,2,6,10,14,27,-1034
77,0.861515,4,7,8,9,26,-1035
78,0.872698,3,7,12,14,26,-1031
79,0.883883,2,6,7,15,25,-1030
80,0.895064,2,6,11,13,22,-1028
81,0.906246,2,8,10,14,26,-1038
82,0.917431,4,6,10,11,25,-1037
83,0.928613,1,7,9,14,25,-1035
84,0.939813,1,6,7,11,25,-1041
85,0.950997,2,6,8,18,25,-1037
86,0.962179,1,7,8,13,28,-1037
87,0.973375,0,3,9,10,27,-1030
88,0.98456,1,5,10,11,25,-1029
89,0.995701,2,5,10,14,27,-1037
90,1.006882,2,5,10,17,28,-1029
91,1.018064,2,7,8,11,20,-1033
92,1.029253,2,7,9,15,24,-1037
93,1.040438,1,7,10,12,24,-1038
94,1.051629,1,7,10,15,25,-1031
95,1.062811,3,6,7,20,27,-1033
96,1.073993,0,9,9,15,26,-1032
97,1.085179,1,8,9,13,26,-1030
98,1.096364,2,7,10,13,29,-1033
99,1.107516,3,5,10,14,25,-1030
100,1.118709,3,6,7,16,27,-1032
101,1.129889,2,8,9,12,30,-1031
102,1.141071,1,5,8,13,24,-1034
103,1.152252,2,5,9,12,28,-1034
104,1.163443,2,5,9,13,23,-1036
105,1.174625,3,7,12,13,24,-1030
106,1.185809,2,5,8,14,28,-1039
107,1.196993,3,6,9,15,24,-1032
108,1.208182,3,8,10,13,24,-1038
109,1.219336,0,5,11,14,25,-1033
110,1.230517,3,6,10,17,23,-1039
111,1.241696,1,8,10,14,26,-1037
112,1.252877,2,5,10,15,27,-1044
113,1.264069,3,4,8,15,26,-1032
114,1.275264,4,7,10,10,22,-1043
115,1.286451,2,6,11,11,25,-1037
116,1.297632,2,5,10,18,24,-1030
117,1.308813,2,5,7,16,25,-1037
118,1.319999,2,4,9,12,29,-1036
119,1.331147,2,11,11,17,30,-1034
120,1.342343,3,4,8,14,26,-1035
121,1.353566,3,8,10,14,26,-1034
122,1.364804,1,5,7,12,29,-1030
123,1.376004,0,4,11,13,24,-1037
124,1.387153,2,7,9,18,26,-1030
125,1.398342,4,8,10,11,25,-1036
126,1.409529,2,5,10,14,29,-1032
127,1.420717,0,5,10,18,26,-1029
128,1.431888,3,11,11,12,22,-1034
129,1.443076,2,7,9,14,24,-1031
130,1.454261,3,5,9,14,25,-1036
131,1.465447,1,7,10,17,28,-1037
132,1.476653,2,6,9,13,27,-1026
133,1.487847,3,8,10,12,25,-1033
134,1.499037,1,7,8,17,25,-1031
135,1.510226,3,7,8,11,26,-1035
136,1.521425,0,6,6,14,24,-1036
137,1.532609,2,3,8,14,28,-1036
138,1.543811,1,7,10,13,29,-1041
139,1.554996,2,7,10,10,21,-1036
140,1.566178,2,6,9,17,27,-1031
141,1.577362,2,7,8,15,22,-1035
142,1.588544,2,8,9,11,24,-1032
143,1.599701,4,8,10,15,26,-1041
144,1.610882,1,7,9,17,26,-1038
145,1.622064,2,7,9,10,24,-1030
146,1.633245,1,4,8,13,30,-1036
147,1.644425,4,6,7,11,25,-1032
148,1.655607,2,7,9,14,30,-1030
149,1.666793,1,8,8,13,24,-1034
150,1.678006,1,5,9,11,26,-1035
151,1.689189,2,7,7,13,26,-1037
152,1.700372,3,7,10,11,25,-1035
153,1.711521,2,6,11,14,27,-1032
154,1.722703,2,6,9,13,23,-1032
155,1.733891,1,7,10,15,27,-1029
156,1.745077,2,5,8,13,24,-1035
157,1.756264,2,6,8,15,28,-1032
158,1.767454,1,8,8,16,29,-1036
159,1.778638,2,7,11,14,26,-1039
160,1.789825,2,8,8,15,24,-1034
161,1.801008,3,6,10,13,20,-1033
162,1.812193,4,7,8,12,27,-1030
163,1.823334,1,6,9,11,21,-1036
164,1.834527,4,6,11,17,28,-1033
165,1.845713,3,8,9,14,23,-1035
166,1.856898,5,7,8,12,26,-1033
167,1.868072,2,7,7,13,27,-1037
168,1.879263,1,5,10,17,27,-1030
169,1.890446,4,12,8,15,26,-1035
170,1.901627,4,5,11,16,26,-1032
171,1.912808,1,9,11,16,30,-1035
172,1.924001,2,7,9,17,23,-1034
173,1.93515,4,6,8,14,29,-1031
174,1.946334,4,6,7,13,24,-1035
175,1.95753,2,8,8,14,22,-1036
176,1.968715,1,5,9,12,30,-1038
177,1.979886,3,6,9,11,24,-1028
178,1.99107,3,6,8,10,26,-1029
179,2.002252,1,6,10,16,25,-1033
180,2.013437,1,5,9,12,28,-1041
181,2.024622,3,6,8,9,25,-1037
182,2.035812,4,9,9,10,24,-1029
183,2.046995,1,5,8,17,23,-1032
184,2.058179,4,3,10,15,25,-1035
185,2.069362,3,5,8,10,28,-1043
186,2.080545,3,8,9,17,27,-1039
187,2.091701,2,7,6,15,27,-1028
188,2.102882,2,5,9,12,25,-1039
189,2.114066,3,6,8,14,27,-1032
190,2.125248,2,8,9,14,28,-1038
191,2.136429,0,7,10,11,26,-1027
192,2.147626,1,6,8,13,22,-1036
193,2.158806,4,8,9,16,20,-1029
194,2.169988,2,5,8,12,21,-1033
195,2.181176,2,9,8,16,25,-1039
196,2.192371,0,4,8,18,27,-1033
197,2.203517,3,6,8,15,24,-1039
198,2.214698,2,7,6,13,24,-1038
199,2.22588,4,7,8,12,27,-1033
200,2.237074,2,8,9,9,27,-1036
201,2.248256,2,5,8,12,24,-1036
202,2.259447,0,6,7,14,22,-1039
203,2.270627,2,7,11,12,25,-1029
204,2.281807,1,8,8,13,27,-1034
205,2.29299,0,5,9,13,25,-1032
206,2.304189,0,8,8,17,23,-1031
207,2.315378,1,7,9,14,25,-1036
208,2.326561,1,8,9,16,27,-1033
209,2.337744,4,5,11,14,28,-1038
210,2.348926,3,8,9,9,27,-1033
211,2.360077,2,4,10,15,24,-1039
212,2.371261,2,6,8,15,25,-1031
213,2.382447,2,7,11,12,27,-1030
214,2.39365,3,4,9,17,25,-1034
215,2.404836,4,6,7,10,27,-1036
216,2.416031,2,4,8,13,26,-1032
217,2.427218,3,5,11,18,28,-1030
218,2.438403,3,6,7,11,26,-1035
219,2.449588,0,0,11,13,26,-1027
220,2.460773,1,6,8,16,22,-1036
221,2.471959,2,7,9,13,25,-1037
222,2.483147,2,7,11,15,28,-1031
223,2.494332,2,8,8,17,31,-1033
224,2.505515,3,7,9,13,30,-1029
225,2.516695,3,7,10,16,23,-1038
226,2.527885,4,7,8,14,24,-1036
227,2.539064,3,6,9,12,28,-1038
228,2.550255,-1,5,11,14,26,-1034
229,2.561441,2,8,8,18,25,-1036
230,2.572623,2,8,8,15,25,-1040
231,2.583822,1,8,9,15,25,-1038
232,2.595006,2,7,9,12,21,-1041
233,2.606185,1,9,8,13,27,-1034
234,2.617366,1,5,7,16,23,-1033
235,2.628546,4,8,7,14,20,-1032
236,2.6397,3,8,10,16,26,-1035
237,2.650884,0,4,8,12,23,-1036
238,2.662063,2,9,10,13,26,-1035
239,2.673245,3,5,9,12,26,-1036
240,2.684424,2,6,9,11,27,-1033
241,2.695624,0,5,9,9,26,-1036
242,2.706806,3,6,10,18,25,-1034
243,2.717988,1,6,9,11,27,-1039
244,2.72917,2,6,8,15,25,-1035
245,2.740351,2,8,9,13,25,-1035
246,2.75152,1,6,10,11,26,-1033
247,2.762704,2,7,8,13,24,-1037
248,2.773886,2,5,9,12,26,-1035
249,2.785071,3,7,8,14,26,-1031
250,2.796255,3,7,9,13,27,-1028
251,2.807447,1,5,10,13,25,-1036
252,2.818629,4,6,9,12,25,-1037
253,2.829813,3,5,10,15,24,-1030
254,2.840995,3,6,8,13,31,-1032
255,2.852185,2,7,8,17,23,-1031
256,2.863332,1,5,10,14,23,-1036
257,2.874518,4,8,9,15,24,-1035
258,2.885704,2,6,10,18,23,-1031
259,2.896888,3,9,9,14,24,-1036
260,2.908083,0,0,9,16,28,-1037
261,2.919274,2,7,9,14,27,-1035
262,2.930459,1,5,10,13,27,-1033
263,2.941649,1,3,10,11,23,-1035
264,2.952837,2,7,7,11,27,-1037
265,2.964025,2,7,11,12,25,-1033
266,2.97522,3,6,10,17,27,-1027
267,2.986403,2,5,11,12,26,-1036
268,2.997595,2,8,7,14,25,-1036
269,3.00878,0,-1,8,16,24,-1029
270,3.019972,3,7,7,13,29,-1031
271,3.03115,2,9,9,13,23,-1031
272,3.042338,3,7,7,17,26,-1031
273,3.053523,2,6,10,16,23,-1041
274,3.064706,2,7,12,16,26,-1034
275,3.075891,2,8,9,19,25,-1043
276,3.087073,1,6,8,14,26,-1037
277,3.098254,3,8,8,12,25,-1037
278,3.109433,1,9,10,14,25,-1036
279,3.120611,3,5,8,14,28,-1034
280,3.131806,3,7,11,15,27,-1030
281,3.142987,1,7,10,14,25,-1033
282,3.154166,2,6,12,9,26,-1030
283,3.165345,2,7,7,14,30,-1032
284,3.176528,2,6,10,16,26,-1037
285,3.187701,2,6,9,17,24,-1039
286,3.19889,1,8,7,13,28,-1031
287,3.210081,2,2,7,13,26,-1033
288,3.221266,2,7,9,11,27,-1040
289,3.232451,4,3,9,9,26,-1037
290,3.243644,2,4,10,16,27,-1038
291,3.254838,4,9,7,10,27,-1039
292,3.266022,2,7,10,14,26,-1034
293,3.277205,0,7,9,16,28,-1034
294,3.288391,3,7,10,13,26,-1032
295,3.29958,3,4,10,14,25,-1033
296,3.310764,4,9,8,14,26,-1034
297,3.321961,2,6,8,15,26,-1038
298,3.333152,0,7,8,15,25,-1034
299,3.344344,4,6,7,14,24,-1034
300,3.355527,1,3,10,16,27,-1033
301,3.366714,4,7,8,18,25,-1039
302,3.3779,4,6,6,18,25,-1030
303,3.389088,1,8,7,16,24,-1034
304,3.400272,3,6,8,11,23,-1028
305,3.411465,3,7,7,14,30,-1031
306,3.422648,3,8,9,13,29,-1039
307,3.433839,1,8,7,13,25,-1037
308,3.445022,2,9,9,13,23,-1037
309,3.456233,2,5,9,15,25,-1037
310,3.467442,1,6,10,12,22,-1032
311,3.47863,3,6,9,17,25,-1034
312,3.48982,2,4,9,12,24,-1034
313,3.50101,2,9,7,12,24,-1032
314,3.512219,5,10,8,11,25,-1035
315,3.523407,1,6,9,10,28,-1035
316,3.53459,2,6,10,13,26,-1035
317,3.545777,3,7,7,18,22,-1036
318,3.556959,1,5,8,17,22,-1033
319,3.56815,4,7,8,12,25,-1034
320,3.579343,2,6,10,16,25,-1030
321,3.590525,2,5,9,14,27,-1030
322,3.601716,4,7,9,18,28,-1032
323,3.61291,0,7,9,15,25,-1027
324,3.62408,3,6,8,11,23,-1031
325,3.63527,2,5,9,12,24,-1035
326,3.646452,1,6,9,16,24,-1041
327,3.657637,2,7,10,14,25,-1037
328,3.668831,1,2,9,15,25,-1026
329,3.680025,3,7,11,15,27,-1039
330,3.691214,2,6,7,14,28,-1033
331,3.702401,3,8,9,9,25,-1029
332,3.713588,2,5,10,13,26,-1035
333,3.724772,2,4,9,15,25,-1034
334,3.735961,2,7,7,12,21,-1031
335,3.747155,2,6,8,11,28,-1033
336,3.75834,4,6,7,18,27,-1031
337,3.769531,1,4,12,12,23,-1028
338,3.780713,3,7,7,12,26,-1037
339,3.791896,3,7,9,12,21,-1033
340,3.803089,3,9,8,13,22,-1036
341,3.814271,2,4,8,17,26,-1036
342,3.825461,3,6,7,11,24,-1040
343,3.836649,3,6,10,17,27,-1036
344,3.847835,1,7,10,13,29,-1034
345,3.859019,2,8,8,16,21,-1036
346,3.870208,1,2,8,13,28,-1031
347,3.881393,0,7,9,12,27,-1036
348,3.892577,3,6,10,13,26,-1033
349,3.903772,2,3,10,13,27,-1032
350,3.914954,4,6,8,13,27,-1033
351,3.92614,2,3,9,15,26,-1031
352,3.937328,3,7,10,10,26,-1037
353,3.948516,2,7,9,11,27,-1039
354,3.95971,2,6,9,13,23,-1032
355,3.970909,2,8,11,14,29,-1037
356,3.982102,3,8,10,16,22,-1031
357,3.993284,2,5,8,15,27,-1032
358,4.004467,3,7,9,14,29,-1031
359,4.015654,2,7,9,15,23,-1030
360,4.026837,1,7,9,18,26,-1029
361,4.038022,3,6,9,12,21,-1035
362,4.049205,2,7,10,17,27,-1033
363,4.060393,0,6,9,16,23,-1037
364,4.071584,1,5,10,13,30,-1033
365,4.082768,1,7,9,14,22,-1034
366,4.093951,0,6,8,15,27,-1036
367,4.105138,2,6,10,14,26,-1027
368,4.116321,1,6,9,13,25,-1036
369,4.127517,2,5,9,16,29,-1036
370,4.138702,1,6,10,16,25,-1034
371,4.149886,2,8,9,13,23,-1027
372,4.161071,1,5,10,16,26,-1031
373,4.172255,3,7,7,16,27,-1032
374,4.183481,2,7,7,16,25,-1028
375,4.194664,3,5,9,18,27,-1033
376,4.205848,2,8,9,12,26,-1033
377,4.217032,4,5,10,11,24,-1031
378,4.228217,4,7,9,15,24,-1037
379,4.239406,1,6,8,10,27,-1038
380,4.250587,2,5,9,12,25,-1031
381,4.261771,2,7,10,14,26,-1036
382,4.27296,2,9,8,12,27,-1034
383,4.284147,3,5,7,12,27,-1033
384,4.295335,4,5,10,14,28,-1035
385,4.306519,2,5,8,13,27,-1038
386,4.317705,3,4,9,17,23,-1038
387,4.328902,3,11,9,15,25,-1035
388,4.340079,4,8,9,13,26,-1033
389,4.351274,3,6,7,15,22,-1031
390,4.362457,2,5,8,13,26,-1037
391,4.373642,1,7,9,17,28,-1039
392,4.384823,1,7,10,17,29,-1035
393,4.396013,2,6,9,13,25,-1034
394,4.407203,5,8,9,12,25,-1034
395,4.418385,3,8,9,14,27,-1039
396,4.429569,1,8,11,13,29,-1030
397,4.440754,4,8,8,12,25,-1028
398,4.451953,3,5,10,10,27,-1042
399,4.463148,3,8,8,13,25,-1031
400,4.474328,3,4,9,14,23,-1037
401,4.485537,1,6,7,11,26,-1033
402,4.497087,3,7,9,15,23,-1033
403,4.508625,2,5,11,15,28,-1032
404,4.520151,4,7,8,17,26,-1028
405,4.531671,1,8,10,13,26,-1035
406,4.543187,2,7,10,17,25,-1038
407,4.554725,2,8,10,16,26,-1040
408,4.566273,3,7,8,16,22,-1034
409,4.577839,4,6,9,15,23,-1030
410,4.589465,2,7,10,13,26,-1033
411,4.601122,1,7,9,14,26,-1029
412,4.612786,2,8,7,14,26,-1040
413,4.624471,2,7,9,11,27,-1029
414,4.636128,1,5,9,11,22,-1033
415,4.647799,1,6,12,15,24,-1034
416,4.659459,1,6,7,15,28,-1034
417,4.671102,2,6,10,12,23,-1039
418,4.682764,3,7,7,15,23,-1030
419,4.694469,2,7,8,15,27,-1031
420,4.706042,2,4,10,12,26,-1033
421,4.717613,1,8,10,9,24,-1041
422,4.72919,2,6,8,15,29,-1029
423,4.740759,1,7,8,13,23,-1032
424,4.752307,2,6,9,14,28,-1040
425,4.763849,2,5,8,16,26,-1038
426,4.77543,2,6,10,13,23,-1035
427,4.786995,0,7,8,17,28,-1033
428,4.798614,2,7,12,15,23,-1030
429,4.810265,2,5,9,10,25,-1040
430,4.821937,1,6,11,11,23,-1035
431,4.833586,2,8,8,13,24,-1033
432,4.845232,4,7,9,13,26,-1036
433,4.856881,4,5,9,15,27,-1037
434,4.86854,3,6,8,10,28,-1034
435,4.880242,3,4,9,14,26,-1037
436,4.891902,4,6,8,12,27,-1035
437,4.903573,0,7,9,9,27,-1031
438,4.915125,2,5,8,17,24,-1033
439,4.926677,5,8,8,12,24,-1033
440,4.93826,4,6,9,14,28,-1036
441,4.949832,2,6,9,15,23,-1037
442,4.961406,4,6,9,14,25,-1036
443,4.972943,2,7,8,17,28,-1039
444,4.984514,1,7,10,18,28,-1036
445,4.996077,2,7,10,12,25,-1035
446,5.007707,1,7,10,19,24,-1037
447,5.019366,1,6,10,14,26,-1043
448,5.031018,4,6,10,13,21,-1035
449,5.04268,3,7,9,18,23,-1038
450,5.054336,0,7,8,17,34,-1034
451,5.065997,1,7,10,11,25,-1035
452,5.077655,0,7,6,14,21,-1037
453,5.08931,1,9,9,13,27,-1043
454,5.100974,3,8,6,11,27,-1031
455,5.112636,3,4,10,8,26,-1033
456,5.124307,0,7,7,16,25,-1035
457,5.135974,3,7,7,14,27,-1037
458,5.147629,1,8,9,12,28,-1028
459,5.159311,1,6,10,15,26,-1031
460,5.17096,1,8,8,13,27,-1041
461,5.182614,3,8,7,12,27,-1037
462,5.194258,2,4,10,15,26,-1032
463,5.205928,3,7,8,15,25,-1036
464,5.217587,2,6,9,16,27,-1038
465,5.229231,2,6,10,17,27,-1032
466,5.24088,3,6,8,17,24,-1037
467,5.252527,2,8,10,13,25,-1034
468,5.264207,0,6,8,12,29,-1036
469,5.275862,2,6,10,12,26,-1037
470,5.287507,1,8,12,12,23,-1031
471,5.299172,1,8,8,10,22,-1034
472,5.310861,3,6,9,16,26,-1023
473,5.322505,2,8,8,17,28,-1037
474,5.334148,1,6,9,13,24,-1028
475,5.345819,3,6,10,12,25,-1027
476,5.357465,3,6,6,11,26,-1030
477,5.369333,3,6,8,13,25,-1033
478,5.380996,2,7,8,15,27,-1026
479,5.392679,3,6,9,13,20,-1032
480,5.404365,2,5,9,10,28,-1043
481,5.416039,2,6,9,13,24,-1034
482,5.42773,2,4,10,18,25,-1031
483,5.439404,1,8,8,14,26,-1032
484,5.451094,1,7,9,20,25,-1035
485,5.462753,3,7,12,13,24,-1037
486,5.474396,2,4,9,14,26,-1038
487,5.48608,1,8,7,14,26,-1033
488,5.497735,4,6,9,13,23,-1030
489,5.509377,1,7,8,19,30,-1035
490,5.521055,2,8,11,14,26,-1036
491,5.532666,2,8,9,16,29,-1037
492,5.544219,1,2,8,13,24,-1032
493,5.555791,3,5,9,11,26,-1029
494,5.567345,4,7,7,16,22,-1031
495,5.578901,1,6,8,17,25,-1033
496,5.59044,3,6,7,15,25,-1036
497,5.601991,2,7,9,11,27,-1037
498,5.613537,1,6,9,14,24,-1034
499,5.625091,3,7,11,14,27,-1033
500,5.636746,3,6,8,11,26,-1033
501,5.648419,3,5,7,17,26,-1034
502,5.6601,3,6,11,13,24,-1039
503,5.671751,4,7,7,14,24,-1036
504,5.683443,2,7,9,13,22,-1037
505,5.695094,2,7,9,16,25,-1034
506,5.70674,3,7,9,13,27,-1027
507,5.718405,3,8,9,15,25,-1039
508,5.730073,2,6,8,15,29,-1034
509,5.741718,3,7,10,11,27,-1031
510,5.75337,0,7,10,13,27,-1032
511,5.76501,1,4,10,16,22,-1025
512,5.776663,2,7,7,14,22,-1035
513,5.788344,3,6,11,16,25,-1038
514,5.799966,2,6,10,12,22,-1035
515,5.811648,0,7,12,16,23,-1028
516,5.823362,1,5,10,11,31,-1032
517,5.835009,2,7,9,11,28,-1039
518,5.846657,3,6,6,15,26,-1040
519,5.858327,2,4,8,14,27,-1031
520,5.869971,2,6,9,8,31,-1037
521,5.88163,2,7,9,18,26,-1027
522,5.893268,1,6,9,15,26,-1035
523,5.904912,0,8,8,15,26,-1027
524,5.916592,2,7,8,15,30,-1040
525,5.928236,1,7,8,17,26,-1030
526,5.939953,1,7,9,14,22,-1042
527,5.951549,2,5,9,13,27,-1031
528,5.963096,3,6,9,9,24,-1042
529,5.974645,5,5,8,8,25,-1032
530,5.986193,2,7,9,14,24,-1031
531,5.997757,2,5,10,10,23,-1024
532,6.009312,3,6,10,16,23,-1035
533,6.020891,3,5,7,11,25,-1039
534,6.032459,2,3,11,13,28,-1032
535,6.044111,1,6,9,14,26,-1033
536,6.055795,2,8,7,16,25,-1035
537,6.067456,2,8,9,16,27,-1035
538,6.079113,4,8,10,14,27,-1035
539,6.090778,1,5,8,12,24,-1037
540,6.102438,3,5,10,15,25,-1030
541,6.114095,3,7,9,15,25,-1032
542,6.12575,2,8,9,17,27,-1033
543,6.137455,2,5,8,11,28,-1033
544,6.149108,4,5,9,17,26,-1030
545,6.160662,3,6,10,14,26,-1035
546,6.172261,2,7,11,13,27,-1038
547,6.183829,2,6,11,14,26,-1034
548,6.195432,3,5,9,12,21,-1038
549,6.207005,1,7,9,17,24,-1023
550,6.218543,3,5,8,15,24,-1034
551,6.230079,3,8,8,17,23,-1043
552,6.241636,3,6,9,17,26,-1031
553,6.253253,2,4,10,12,24,-1029
554,6.264898,3,5,8,15,26,-1034
555,6.276602,4,7,9,16,28,-1034
556,6.288235,2,7,10,14,26,-1041
557,6.299884,2,7,8,12,24,-1034
558,6.311584,4,6,9,13,24,-1031
559,6.323207,2,6,8,17,30,-1042
560,6.334847,2,7,11,15,27,-1040
561,6.346503,1,6,10,15,26,-1034
562,6.358172,2,6,9,15,25,-1032
563,6.369754,3,6,8,19,21,-1029
564,6.381296,2,6,10,14,25,-1039
565,6.393024,1,5,10,13,28,-1035
566,6.404597,2,5,8,12,27,-1032
567,6.416159,2,7,8,12,26,-1035
568,6.427745,1,6,10,19,27,-1032
569,6.439316,1,6,9,14,27,-1035
570,6.45087,3,7,8,14,26,-1035
571,6.462582,0,4,9,16,24,-1038
572,6.474239,3,6,8,17,25,-1033
573,6.48591,3,5,9,13,31,-1037
574,6.497574,3,6,8,17,30,-1039
575,6.509222,2,9,8,12,27,-1033
576,6.520874,2,6,10,18,28,-1026
577,6.532525,3,6,9,13,24,-1032
578,6.54423,2,6,8,14,25,-1039
579,6.555908,2,6,7,13,24,-1034
580,6.567567,3,5,8,11,28,-1033
581,6.579135,2,7,8,19,25,-1029
582,6.590685,2,6,8,11,24,-1029
583,6.602251,4,4,9,12,26,-1036
584,6.613802,2,7,9,14,24,-1041
585,6.625392,0,8,10,11,28,-1039
586,6.63694,1,6,10,14,25,-1038
587,6.648525,4,7,8,13,25,-1031
588,6.660086,3,5,8,16,26,-1028
589,6.671702,2,4,10,16,25,-1043
590,6.68336,1,8,9,11,20,-1033
591,6.695002,2,7,9,11,30,-1033
592,6.70665,2,6,9,13,25,-1041
593,6.718325,0,7,8,12,23,-1034
594,6.729976,1,5,8,8,25,-1029
595,6.74163,3,7,11,14,31,-1031
596,6.753308,2,5,9,12,22,-1030
597,6.764952,3,6,9,15,25,-1033
598,6.776526,4,9,9,10,26,-1031
599,6.788083,2,7,8,14,23,-1033
600,6.799655,1,4,10,13,27,-1035
601,6.811182,1,6,9,12,26,-1032
602,6.822724,1,6,10,15,26,-1036
603,6.834271,2,8,9,16,23,-1033
604,6.845817,1,5,8,13,29,-1034
605,6.857373,2,6,8,15,28,-1033
606,6.868997,2,6,10,11,29,-1034
607,6.880657,3,5,9,11,29,-1031
608,6.892351,3,8,8,12,28,-1033
609,6.90403,1,6,9,13,27,-1033
610,6.91581,3,6,7,15,24,-1034
611,6.927454,2,7,9,13,23,-1032
612,6.939111,1,6,8,14,25,-1033
613,6.95075,2,7,9,12,20,-1035
614,6.962388,1,6,10,10,24,-1031
615,6.973933,0,7,10,13,23,-1039
616,6.985517,3,4,9,13,26,-1034
617,6.99706,2,8,8,12,27,-1045
618,7.008637,1,6,9,14,29,-1031
619,7.020198,4,7,8,15,25,-1029
620,7.031782,3,7,7,12,26,-1033
621,7.043358,1,7,8,15,32,-1039
622,7.054904,3,6,10,11,25,-1034
623,7.066462,2,5,7,14,26,-1034
624,7.078075,2,8,9,10,25,-1036
625,7.089736,2,6,7,15,24,-1034
626,7.101385,1,6,8,13,25,-1038
627,7.113048,2,7,11,11,25,-1034
628,7.124748,2,7,9,15,25,-1033
629,7.136397,4,8,10,14,31,-1032
630,7.148089,1,6,10,15,26,-1037
631,7.159707,4,6,10,17,25,-1029
632,7.171381,0,5,10,13,26,-1034
633,7.183038,3,7,11,15,26,-1038
634,7.194635,3,8,8,13,23,-1033
635,7.206184,1,5,11,14,22,-1037
636,7.217742,3,7,8,16,29,-1030
637,7.229293,3,9,9,14,25,-1034
638,7.240837,3,7,8,14,25,-1030
639,7.252392,1,7,9,13,26,-1028
640,7.263959,3,5,8,14,29,-1033
641,7.275524,1,6,9,19,27,-1039
642,7.287226,1,6,9,14,31,-1031
643,7.29889,2,3,9,17,28,-1034
644,7.310539,2,4,7,13,26,-1029
645,7.322198,1,6,8,15,29,-1034
646,7.333852,2,7,6,17,29,-1036
647,7.345511,1,7,9,11,22,-1036
648,7.357413,2,7,12,15,23,-1035
649,7.369225,3,5,10,20,23,-1031
650,7.380885,1,7,9,18,24,-1040
651,7.39246,3,5,8,13,27,-1032
652,7.40403,1,7,8,15,27,-1030
653,7.415785,3,5,7,14,22,-1033
654,7.42743,3,8,9,14,23,-1031
655,7.439009,3,4,10,13,23,-1042
656,7.450549,2,5,9,20,28,-1038
657,7.462095,2,6,8,14,27,-1030
658,7.473653,3,6,8,16,24,-1041
659,7.485271,1,6,7,14,23,-1034
660,7.49695,2,7,8,15,22,-1034
661,7.508636,2,7,8,13,26,-1038
662,7.520341,3,5,9,16,27,-1032
663,7.531973,2,5,11,14,28,-1035
664,7.543646,2,7,10,15,23,-1039
665,7.555329,3,5,9,11,21,-1035
666,7.566979,4,5,9,13,27,-1030
667,7.578656,1,9,8,13,23,-1031
668,7.590333,2,6,9,14,25,-1037
669,7.601991,2,8,10,16,27,-1036
670,7.613556,2,5,10,11,23,-1035
671,7.625111,2,5,8,11,25,-1034
672,7.636666,2,5,10,16,26,-1030
673,7.648261,1,5,8,14,25,-1028
674,7.659851,1,8,9,14,25,-1039
675,7.671425,1,6,10,13,29,-1033
676,7.683003,3,7,9,11,25,-1037
677,7.694556,2,7,10,15,25,-1031
678,7.706211,2,6,10,15,25,-1035
679,7.717868,2,4,10,15,24,-1035
680,7.72953,4,6,8,15,28,-1033
681,7.741186,3,5,8,10,24,-1031
682,7.752839,2,6,11,17,25,-1036
683,7.764482,5,6,8,13,31,-1036
684,7.776137,2,6,9,15,28,-1033
685,7.787837,1,6,8,11,27,-1039
686,7.79951,3,7,6,19,26,-1033
687,7.811195,4,7,9,12,23,-1035
688,7.822855,3,5,10,12,29,-1036
689,7.834502,1,6,9,16,25,-1031
690,7.846147,1,6,11,17,26,-1037
691,7.857814,3,8,9,15,23,-1038
692,7.86946,2,7,11,16,26,-1029
693,7.881109,1,4,10,16,26,-1035
694,7.892778,1,8,8,11,25,-1033
695,7.90449,2,6,9,13,26,-1038
696,7.916197,2,7,8,15,25,-1031
697,7.927787,1,6,8,14,29,-1034
698,7.939409,2,6,10,15,29,-1034
699,7.950986,3,6,8,16,30,-1032
700,7.962526,1,8,11,13,27,-1036
701,7.974069,1,7,9,12,28,-1032
702,7.985619,3,6,7,14,25,-1031
703,7.997162,3,3,10,13,25,-1037
704,8.008711,1,7,8,17,23,-1027
705,8.020372,3,6,8,16,25,-1034
706,8.032075,0,8,8,15,25,-1034
707,8.043717,3,3,11,13,26,-1034
708,8.055368,2,6,9,15,23,-1031
709,8.067031,2,8,9,14,29,-1035
710,8.078701,2,6,9,14,22,-1027
711,8.090344,1,8,9,14,23,-1033
712,8.102,1,6,8,15,26,-1035
713,8.11368,2,6,9,13,23,-1031
714,8.125249,3,8,8,12,28,-1037
715,8.136798,2,9,10,11,25,-1035
716,8.148389,2,6,10,12,27,-1032
717,8.159909,3,4,10,15,22,-1032
718,8.171489,2,7,9,13,22,-1036
719,8.183032,3,5,9,11,29,-1033
720,8.19462,0,7,8,15,26,-1034
721,8.206181,2,5,9,14,26,-1031
722,8.217808,2,6,10,15,21,-1033
723,8.229463,2,5,8,15,24,-1032
724,8.241103,1,7,9,11,25,-1045
725,8.252748,4,6,8,14,24,-1038
726,8.264423,4,7,8,12,29,-1043
727,8.276084,3,5,11,13,27,-1041
728,8.287713,2,6,10,18,26,-1039
729,8.299369,1,6,9,13,27,-1035
730,8.311049,2,4,8,12,28,-1031
731,8.322708,2,5,9,12,25,-1034
732,8.334277,3,4,9,14,30,-1027
733,8.345831,3,6,9,13,23,-1035
734,8.357391,3,6,10,14,27,-1038
735,8.368976,0,7,8,13,22,-1032
736,8.380534,1,6,8,15,25,-1027
737,8.39213,1,5,10,13,26,-1032
738,8.403704,4,7,9,14,25,-1038
739,8.415277,2,6,7,12,26,-1031
740,8.426924,1,6,8,15,28,-1033
741,8.438582,3,6,9,14,27,-1036
742,8.450244,1,9,10,20,27,-1031
743,8.461895,1,5,10,14,23,-1033
744,8.473561,2,6,10,14,26,-1032
745,8.485207,2,4,10,13,26,-1033
746,8.496851,3,5,11,13,28,-1032
747,8.508502,1,6,8,11,21,-1032
748,8.520215,2,5,8,14,25,-1035
749,8.531884,4,5,8,12,31,-1027
750,8.54343,2,8,8,13,21,-1029
751,8.554997,0,6,8,13,27,-1029
752,8.566534,3,6,11,16,26,-1026
753,8.578078,3,7,8,15,27,-1034
754,8.589629,2,5,10,13,25,-1036
755,8.601171,2,8,7,14,23,-1036
756,8.612712,3,9,10,13,24,-1032
757,8.62427,1,4,8,17,28,-1034
758,8.63596,1,6,8,13,28,-1033
759,8.64762,2,6,9,11,25,-1030
760,8.659336,2,8,10,15,25,-1038
761,8.671286,1,6,11,12,24,-1034
762,8.68295,2,4,9,11,28,-1037
763,8.694607,4,6,8,13,30,-1034
764,8.706251,2,7,9,13,24,-1038
765,8.71791,1,7,8,13,27,-1034
766,8.729559,5,7,10,14,23,-1037
767,8.741112,2,6,9,17,27,-1038
768,8.752661,4,6,8,14,26,-1026
769,8.764243,3,5,6,13,27,-1038
770,8.775813,3,6,9,13,25,-1032
771,8.787382,2,5,11,18,25,-1039
772,8.798925,3,5,9,19,24,-1039
773,8.810469,2,8,8,14,29,-1028
774,8.822027,2,6,11,12,24,-1041
775,8.83366,2,6,8,17,24,-1033
776,8.845318,2,7,9,11,23,-1031
777,8.856971,3,7,10,14,26,-1028
778,8.868643,3,8,11,16,27,-1035
779,8.880304,3,8,7,14,26,-1037
780,8.891969,4,4,8,16,28,-1034
781,8.903688,2,8,11,10,26,-1034
782,8.91534,1,6,8,15,27,-1040
783,8.92702,3,4,8,18,27,-1038
784,8.93871,2,6,7,16,24,-1033
785,8.950284,3,5,8,15,25,-1035
786,8.96184,2,7,9,12,26,-1037
787,8.973391,3,7,8,10,24,-1032
788,8.984937,2,10,9,12,26,-1025
789,8.996508,2,6,9,14,23,-1032
790,9.008111,2,5,8,15,26,-1038
791,9.019657,2,4,8,14,23,-1033
792,9.031249,1,6,10,18,23,-1031
793,9.04287,3,6,8,14,24,-1033
794,9.054534,2,6,8,12,25,-1038
795,9.066186,2,7,9,15,28,-1041
796,9.07784,2,4,10,15,28,-1031
797,9.089496,2,6,10,11,23,-1033
798,9.101138,3,6,11,16,24,-1032
799,9.11279,3,6,8,12,27,-1035
800,9.124476,3,5,10,12,27,-1033
801,9.136166,2,7,7,12,27,-1033
802,9.147867,0,6,8,14,28,-1032
803,9.15943,1,6,11,16,29,-1036
804,9.170994,2,7,8,17,26,-1040
805,9.182537,3,6,8,16,25,-1034
806,9.194087,3,6,9,11,25,-1033
807,9.205639,2,8,9,17,25,-1031
808,9.21721,1,8,11,12,26,-1036
809,9.228757,1,6,8,13,27,-1043
810,9.240326,2,9,10,10,28,-1030
811,9.251965,5,6,10,12,26,-1032
812,9.263648,2,9,7,11,29,-1035
813,9.275324,0,6,10,16,28,-1034
814,9.286991,3,6,8,15,26,-1037
815,9.29865,2,6,8,11,28,-1037
816,9.310306,4,6,7,14,25,-1032
817,9.321951,2,6,9,13,29,-1034
818,9.333601,2,7,10,12,28,-1031
819,9.345272,0,7,10,11,27,-1035
820,9.356924,1,7,10,8,25,-1029
821,9.36862,4,6,7,13,20,-1031
822,9.380293,3,4,9,11,28,-1035
823,9.391956,3,5,9,11,27,-1036
824,9.403682,2,8,8,15,23,-1036
825,9.415338,2,9,7,13,25,-1039
826,9.427011,3,3,7,12,28,-1035
827,9.438674,1,6,12,14,27,-1032
828,9.450343,1,8,8,14,26,-1033
829,9.462027,1,9,9,12,29,-1031
830,9.473629,0,6,9,14,26,-1038
831,9.485193,1,6,8,12,26,-1033
832,9.496749,4,7,9,19,24,-1036
833,9.508333,1,6,9,13,24,-1036
834,9.519901,1,7,9,14,28,-1036
835,9.531477,2,6,11,13,26,-1037
836,9.54304,3,6,7,14,27,-1032
837,9.554675,2,6,9,16,32,-1031
838,9.56631,3,4,11,11,25,-1033
839,9.577966,2,9,10,14,25,-1035
840,9.589619,3,7,10,15,27,-1035
841,9.601292,2,6,8,13,29,-1031
842,9.61294,2,7,10,14,25,-1034
843,9.624612,2,7,10,11,27,-1035
844,9.636295,0,9,8,9,28,-1028
845,9.647957,2,6,9,11,25,-1033
846,9.659629,3,8,10,13,25,-1032
847,9.671319,0,7,9,16,25,-1037
848,9.682964,4,6,8,12,24,-1040
849,9.694615,2,5,9,10,30,-1033
850,9.706288,4,7,9,11,26,-1027
851,9.717937,2,9,10,13,22,-1033
852,9.729587,4,7,9,15,25,-1037
853,9.74123,1,6,9,10,23,-1041
854,9.752872,2,5,9,15,25,-1038
855,9.764565,2,8,10,12,26,-1036
856,9.77622,4,8,10,16,28,-1043
857,9.787876,1,4,10,14,28,-1027
858,9.799579,3,5,9,12,27,-1034
859,9.811195,0,8,9,15,26,-1030
860,9.822843,2,7,8,15,27,-1032
861,9.834516,2,5,11,13,28,-1036
862,9.846164,2,7,8,16,25,-1034
863,9.857815,3,7,11,17,22,-1031
864,9.86949,1,6,9,12,30,-1031
865,9.881187,1,5,7,15,26,-1032
866,9.892856,4,6,9,16,24,-1040
867,9.904505,1,5,7,8,29,-1035
868,9.916175,3,6,7,13,30,-1032
869,9.927837,3,6,10,12,27,-1031
870,9.939506,1,5,10,15,24,-1038
871,9.951185,2,7,8,13,24,-1035
872,9.962831,1,7,9,12,23,-1036
873,9.974505,1,8,9,16,27,-1036
874,9.986183,2,5,9,17,26,-1040
875,9.997744,1,5,11,14,28,-1033
876,10.009298,3,8,9,11,25,-1034
877,10.020874,2,7,11,15,24,-1034
878,10.032469,2,7,9,15,25,-1031
879,10.044041,2,6,9,13,28,-1040
880,10.055602,1,6,8,16,24,-1030
881,10.067181,2,5,9,12,24,-1037
882,10.07876,2,7,7,12,25,-1030
883,10.090422,2,9,9,14,27,-1028
884,10.102068,2,5,8,13,29,-1034
885,10.113724,0,7,9,12,25,-1038
886,10.125409,3,5,10,11,29,-1034
887,10.137051,1,6,10,12,25,-1036
888,10.148734,5,6,8,13,25,-1040
889,10.160449,1,7,11,15,25,-1034
890,10.172101,4,5,10,15,26,-1033
891,10.183799,2,6,8,13,25,-1033
892,10.195446,1,8,9,14,24,-1038
893,10.207007,2,6,9,13,26,-1033
894,10.218556,4,6,10,9,30,-1039
895,10.230109,3,9,10,13,26,-1040
896,10.24165,3,6,10,11,26,-1031
897,10.253224,2,9,10,13,28,-1036
898,10.26477,3,6,9,16,27,-1035
899,10.276325,5,7,9,15,24,-1035
900,10.287913,1,8,9,16,28,-1038
901,10.29961,3,5,9,15,23,-1032
902,10.311308,3,7,8,17,29,-1032
903,10.322946,2,4,9,15,25,-1033
904,10.334591,4,6,7,17,29,-1034
905,10.346262,2,8,9,13,27,-1038
906,10.357912,2,7,10,16,24,-1034
907,10.369559,1,5,9,17,26,-1034
908,10.381227,1,6,7,13,26,-1033
909,10.392905,1,9,9,12,25,-1035
910,10.404555,3,7,9,17,26,-1036
911,10.416231,1,6,8,14,27,-1039
912,10.427898,2,6,9,8,26,-1035
913,10.439579,3,7,8,11,28,-1032
914,10.451255,3,8,11,14,24,-1033
915,10.462906,3,7,7,17,27,-1032
916,10.474553,2,6,11,13,23,-1036
917,10.4862,2,7,9,13,27,-1032
918,10.497939,5,8,9,11,27,-1035
919,10.5096,2,8,11,14,24,-1032
920,10.521194,2,6,8,12,27,-1035
921,10.532755,2,7,8,19,27,-1035
922,10.544346,2,6,9,17,25,-1028
923,10.555899,3,6,8,15,25,-1033
924,10.567426,3,7,9,12,28,-1040
925,10.578984,2,6,9,13,30,-1034
926,10.590529,2,5,9,14,21,-1034
927,10.602096,3,6,10,13,28,-1034
928,10.613728,2,6,8,19,29,-1034
929,10.625419,1,4,10,18,24,-1043
930,10.6371,2,5,9,13,25,-1037
931,10.648761,2,6,9,15,27,-1031
932,10.660475,2,6,8,14,25,-1036
933,10.672141,2,7,9,14,24,-1029
934,10.683824,4,5,8,18,28,-1033
935,10.695456,2,8,10,13,22,-1036
936,10.707118,3,6,11,15,22,-1033
937,10.718789,1,6,10,18,26,-1032
938,10.730356,4,5,8,13,27,-1030
939,10.741906,3,8,9,13,25,-1033
940,10.753474,3,6,10,14,25,-1035
941,10.765029,2,5,11,15,23,-1028
942,10.7766,3,7,8,15,25,-1031
943,10.788145,3,8,9,12,26,-1030
944,10.799666,1,7,8,19,27,-1030
945,10.811238,3,6,10,15,23,-1034
946,10.822858,2,6,11,12,25,-1033
947,10.834523,1,8,9,14,21,-1032
948,10.846172,3,5,10,14,30,-1037
949,10.857826,1,5,9,12,26,-1037
950,10.869464,1,6,9,14,26,-1037
951,10.881145,3,8,8,10,24,-1037
952,10.892797,3,6,10,12,24,-1036
953,10.904471,2,8,8,16,24,-1030
954,10.916148,1,8,10,13,23,-1034
955,10.927801,4,7,9,9,28,-1029
956,10.939365,1,5,8,15,25,-1029
957,10.950917,2,7,8,12,28,-1033
958,10.962466,2,9,11,10,25,-1034
959,10.974024,2,7,10,14,25,-1030
960,10.985611,2,6,10,9,27,-1037
961,10.99718,2,7,8,13,23,-1031
962,11.00873,2,5,9,13,30,-1034
963,11.020316,3,7,9,13,25,-1034
964,11.031978,4,6,10,16,29,-1036
965,11.043683,3,6,10,16,28,-1028
966,11.055336,2,7,8,14,28,-1036
967,11.067002,2,6,9,14,23,-1032
968,11.078667,2,6,9,14,23,-1034
969,11.090311,2,5,9,13,24,-1030
970,11.101962,4,6,9,13,26,-1038
971,11.113655,2,7,8,14,24,-1033
972,11.125291,2,8,9,14,26,-1039
973,11.136861,3,5,10,15,24,-1032
974,11.148393,2,5,11,14,27,-1035
975,11.159972,3,4,8,12,26,-1028
976,11.171534,2,7,9,13,30,-1033
977,11.183071,2,4,7,17,25,-1034
978,11.194614,1,6,10,16,24,-1037
979,11.206184,3,6,9,16,27,-1031
980,11.217733,2,6,8,15,29,-1036
981,11.22931,0,8,10,16,22,-1038
982,11.240978,1,5,9,15,23,-1031
983,11.252655,2,8,8,15,25,-1036
984,11.264344,3,7,12,17,25,-1039
985,11.276013,2,6,9,14,27,-1031
986,11.28769,3,5,11,15,28,-1032
987,11.299366,2,6,7,14,26,-1029
988,11.311021,4,6,9,12,26,-1036
989,11.322683,0,6,10,15,27,-1039
990,11.33436,3,7,8,17,26,-1034
991,11.346028,3,6,10,17,27,-1036
992,11.357712,3,5,10,11,29,-1026
993,11.369424,4,5,12,15,25,-1030
994,11.381093,2,6,8,11,24,-1038
995,11.392742,2,4,7,15,24,-1030
996,11.404468,3,7,7,16,29,-1029
997,11.416124,3,4,10,17,25,-1032
998,11.427864,3,8,10,16,26,-1039
999,11.439542,2,6,8,12,27,-1037
1000,11.451112,3,5,11,12,26,-1031
1001,11.462695,2,7,9,15,23,-1033
1002,11.474247,2,7,11,9,25,-1038
1003,11.485826,0,5,8,13,25,-1035
1004,11.497374,2,6,11,12,26,-1037
1005,11.508919,1,7,10,14,24,-1033
1006,11.520517,2,5,9,12,27,-1028
1007,11.532117,1,6,9,13,28,-1035
1008,11.54378,3,6,9,13,29,-1033
1009,11.555454,2,6,9,15,24,-1029
1010,11.567099,2,6,9,14,25,-1036
1011,11.578752,1,5,9,12,26,-1038
1012,11.590418,3,7,7,12,25,-1042
1013,11.602054,1,7,10,11,24,-1035
1014,11.613703,1,7,8,16,23,-1034
1015,11.62539,3,4,9,15,27,-1029
1016,11.637043,2,8,11,15,26,-1033
1017,11.648744,3,5,9,14,24,-1038
1018,11.660347,3,8,8,15,26,-1037
1019,11.671911,5,7,8,16,27,-1035
1020,11.683475,1,6,10,17,29,-1034
1021,11.695017,3,5,8,17,26,-1034
1022,11.70656,2,7,10,13,24,-1035
1023,11.718107,3,7,9,14,27,-1031
1024,11.729649,1,6,11,17,26,-1027
1025,11.741255,0,7,9,12,28,-1035
1026,11.752908,3,8,8,11,29,-1030
1027,11.764624,4,7,9,11,24,-1031
1028,11.776297,1,6,12,15,30,-1031
1029,11.787984,2,6,10,16,25,-1029
1030,11.799634,3,5,9,7,28,-1035
1031,11.811307,2,6,10,16,25,-1036
1032,11.822963,2,3,6,15,25,-1030
1033,11.834607,1,5,9,14,26,-1038
1034,11.846287,0,7,10,13,28,-1035
1035,11.857946,1,6,8,16,25,-1030
1036,11.86952,2,5,9,12,29,-1036
1037,11.881091,1,8,8,15,23,-1035
1038,11.892635,2,6,9,14,23,-1034
1039,11.904206,3,4,8,14,27,-1036
1040,11.91578,2,7,9,18,27,-1033
1041,11.927364,4,6,7,14,21,-1040
1042,11.938922,2,8,8,15,26,-1030
1043,11.950482,4,3,9,16,27,-1029
1044,11.962099,1,5,8,10,24,-1029
1045,11.973766,1,4,9,13,25,-1043
1046,11.98542,4,5,10,18,23,-1036
1047,11.997102,2,6,8,20,27,-1040
1048,12.008756,0,5,8,16,24,-1032
1049,12.020413,4,5,8,10,26,-1028
1050,12.032076,3,7,9,15,24,-1032
1051,12.043761,3,7,8,14,24,-1035
1052,12.055446,0,7,11,15,27,-1031
1053,12.067095,1,7,12,17,27,-1033
1054,12.078646,2,7,10,17,26,-1030
1055,12.090197,4,3,9,13,24,-1033
1056,12.10177,2,5,8,15,26,-1034
1057,12.11335,2,7,8,15,29,-1031
1058,12.124898,2,7,7,12,25,-1032
1059,12.136459,4,5,8,11,29,-1036
1060,12.148021,3,4,9,14,26,-1028
1061,12.159585,2,7,10,11,27,-1032
1062,12.171203,1,7,8,18,27,-1031
1063,12.182855,2,5,5,15,26,-1035
1064,12.194526,2,6,10,15,21,-1038
1065,12.206185,4,7,10,14,28,-1027
1066,12.217827,1,6,10,17,25,-1039
1067,12.229497,2,7,6,16,23,-1036
1068,12.24115,4,6,8,13,22,-1032
1069,12.252794,3,6,9,13,26,-1027
1070,12.264482,2,4,8,14,27,-1035
1071,12.276141,2,3,7,15,31,-1031
1072,12.287719,3,6,9,14,26,-1028
1073,12.299302,2,7,9,15,24,-1031
1074,12.310852,4,6,9,14,29,-1029
1075,12.322399,2,6,10,13,28,-1034
1076,12.333962,2,7,8,11,26,-1041
1077,12.345499,3,7,11,20,25,-1034
1078,12.357056,1,5,11,14,28,-1027
1079,12.368636,3,7,9,16,26,-1041
1080,12.38029,2,8,10,10,25,-1034
1081,12.39197,3,6,10,15,25,-1037
1082,12.403644,2,6,8,13,24,-1033
1083,12.415315,2,6,7,11,24,-1037
1084,12.426976,2,6,7,11,21,-1031
1085,12.438645,3,4,11,13,26,-1034
1086,12.450287,2,6,10,17,25,-1031
1087,12.461939,3,7,12,13,23,-1030
1088,12.473676,3,7,10,12,26,-1033
1089,12.485331,4,5,10,14,24,-1038
1090,12.496897,2,6,8,11,23,-1038
1091,12.508453,1,6,8,14,28,-1029
1092,12.520031,2,8,8,15,23,-1033
1093,12.531597,3,6,9,14,25,-1029
1094,12.543172,1,7,10,16,26,-1039
1095,12.554721,2,7,10,14,26,-1040
1096,12.56631,2,7,10,13,25,-1030
1097,12.577874,4,7,8,14,23,-1035
1098,12.589509,3,5,10,16,27,-1032
1099,12.601173,4,4,8,17,27,-1033
1100,12.612818,2,6,9,17,26,-1036
1101,12.624498,3,5,10,12,27,-1030
1102,12.63616,3,6,10,14,26,-1038
1103,12.647831,3,6,9,13,27,-1031
1104,12.659506,3,6,9,16,23,-1038
1105,12.671178,3,5,9,16,28,-1032
1106,12.682838,2,7,9,16,28,-1029
1107,12.694515,3,7,9,11,25,-1037
1108,12.706088,1,6,11,14,26,-1034
1109,12.717637,3,7,9,15,24,-1039
1110,12.729185,2,5,9,16,28,-1037
1111,12.740733,2,4,9,17,27,-1032
1112,12.752286,3,6,10,18,21,-1031
1113,12.76384,1,9,9,17,28,-1036
1114,12.775419,1,5,8,14,28,-1038
1115,12.786981,4,6,10,13,28,-1028
1116,12.7986,2,6,10,17,26,-1036
1117,12.810264,2,6,8,10,28,-1035
1118,12.821911,3,6,8,12,29,-1036
1119,12.833561,2,6,10,12,24,-1032
1120,12.845237,2,7,9,15,28,-1033
1121,12.856903,3,4,9,13,24,-1036
1122,12.868554,3,6,9,11,22,-1025
1123,12.880222,3,5,11,15,28,-1032
1124,12.891902,3,8,8,17,24,-1036
1125,12.903557,1,6,8,17,21,-1034
1126,12.915109,2,8,9,16,27,-1037
1127,12.926653,2,6,10,12,23,-1034
1128,12.938203,2,5,9,13,25,-1035
1129,12.949749,2,5,8,13,28,-1027
1130,12.961291,2,5,10,15,25,-1031
1131,12.972836,2,5,9,15,29,-1032
1132,12.984408,1,5,9,16,29,-1035
1133,12.995975,2,7,10,13,26,-1037
1134,13.007666,1,6,8,17,28,-1037
1135,13.019345,0,7,8,12,27,-1030
1136,13.031,1,8,9,13,25,-1034
1137,13.042652,2,5,9,16,28,-1037
1138,13.054302,2,6,8,17,26,-1033
1139,13.065973,3,4,9,13,27,-1041
1140,13.077629,4,8,8,14,25,-1031
1141,13.089276,1,7,9,18,26,-1039
1142,13.100939,1,6,11,15,27,-1040
1143,13.112625,3,4,10,11,26,-1035
1144,13.124166,4,6,9,13,26,-1033
1145,13.13572,2,8,10,12,28,-1037
1146,13.147301,2,7,9,14,29,-1033
1147,13.158839,2,6,6,15,26,-1033
1148,13.170381,2,7,10,13,27,-1038
1149,13.181936,2,7,8,11,25,-1032
1150,13.193483,2,6,9,14,28,-1031
1151,13.205039,3,7,9,13,29,-1030
1152,13.216768,1,6,9,12,21,-1035
1153,13.228456,3,4,6,16,26,-1033
1154,13.240132,1,6,10,11,30,-1039
1155,13.251782,0,6,8,15,28,-1033
1156,13.263462,2,6,9,14,28,-1032
1157,13.275125,1,4,10,14,24,-1035
1158,13.286774,1,6,8,12,29,-1025
1159,13.298422,1,5,11,13,26,-1036
1160,13.310084,2,8,7,11,24,-1034
1161,13.32175,2,6,10,17,25,-1034
1162,13.333332,3,3,9,12,26,-1032
1163,13.344902,2,6,11,21,30,-1031
1164,13.356602,3,5,7,11,27,-1035
1165,13.368222,0,5,7,12,25,-1036
1166,13.379788,4,6,10,17,23,-1033
1167,13.391354,1,7,9,14,25,-1035
1168,13.402895,3,6,11,12,23,-1035
1169,13.414457,3,6,8,12,27,-1027
1170,13.426007,2,6,9,12,29,-1033
1171,13.437559,3,6,8,14,28,-1038
1172,13.44911,2,5,10,9,26,-1039
1173,13.460688,4,6,11,14,25,-1036
1174,13.47227,3,7,7,16,24,-1032
1175,13.483827,2,6,9,14,28,-1043
1176,13.495369,3,7,8,14,25,-1028
1177,13.506907,1,8,9,13,25,-1030
1178,13.518459,3,4,10,17,26,-1036
1179,13.53012,3,6,9,12,27,-1032
1180,13.541767,1,7,10,14,25,-1042
1181,13.553419,3,6,9,13,27,-1033
1182,13.565104,2,4,9,14,27,-1040
1183,13.576756,3,8,9,14,28,-1036
1184,13.588455,3,3,8,16,22,-1039
1185,13.600127,2,8,8,16,25,-1035
1186,13.611785,2,7,9,11,28,-1037
1187,13.623481,2,6,8,15,25,-1034
1188,13.635187,2,5,9,15,26,-1031
1189,13.646747,2,7,11,12,24,-1034
1190,13.658304,2,5,9,15,24,-1037
1191,13.669858,2,7,8,14,28,-1031
1192,13.681438,2,5,9,15,23,-1036
1193,13.692997,3,8,8,10,24,-1038
1194,13.704567,3,8,11,13,28,-1034
1195,13.716128,3,7,9,18,25,-1036
1196,13.727679,3,6,9,15,25,-1030
1197,13.73932,2,5,9,15,26,-1034
1198,13.750971,2,6,9,12,25,-1038
1199,13.762622,2,8,8,16,25,-1030
1200,13.774274,2,6,8,16,22,-1038
1201,13.785916,1,6,11,10,25,-1033
1202,13.797562,2,5,9,14,27,-1034
1203,13.809235,1,6,6,14,30,-1036
1204,13.820883,2,8,8,18,20,-1032
1205,13.832556,4,5,9,11,30,-1036
1206,13.844218,1,6,9,16,24,-1034
1207,13.855792,2,7,8,12,25,-1039
1208,13.867346,3,7,8,16,27,-1038
1209,13.878932,4,6,9,14,27,-1034
1210,13.890479,1,5,11,16,27,-1038
1211,13.902055,3,5,9,13,26,-1037
1212,13.913597,3,5,8,13,24,-1033
1213,13.925132,2,6,11,12,23,-1038
1214,13.936688,3,6,10,15,27,-1037
1215,13.948347,1,8,11,13,29,-1029
1216,13.960042,4,7,9,17,25,-1038
1217,13.971724,2,6,8,14,24,-1038
1218,13.983381,2,5,9,13,25,-1034
1219,13.995025,3,7,10,16,26,-1036
1220,14.006674,1,8,8,13,24,-1035
1221,14.018333,2,6,11,13,26,-1041
1222,14.029991,3,4,11,15,24,-1027
1223,14.041649,2,5,10,16,29,-1030
1224,14.053311,4,7,10,12,27,-1039
1225,14.064869,4,5,9,16,25,-1030
1226,14.076428,2,6,7,16,29,-1032
1227,14.087988,2,7,8,16,28,-1026
1228,14.099576,1,8,8,16,24,-1038
1229,14.111122,3,5,8,14,26,-1037
1230,14.122669,2,8,9,12,23,-1030
1231,14.134215,3,7,9,12,26,-1034
1232,14.145773,3,5,12,12,25,-1035
1233,14.157389,2,8,10,11,26,-1038
1234,14.169041,1,7,8,11,26,-1037
1235,14.180744,2,6,8,16,24,-1037
1236,14.192397,2,6,10,12,32,-1031
1237,14.204043,1,5,9,14,24,-1031
1238,14.21572,2,8,7,15,26,-1040
1239,14.227378,2,7,11,13,29,-1039
1240,14.239026,2,5,7,11,30,-1033
1241,14.250678,2,6,9,15,26,-1037
1242,14.262227,2,7,10,15,22,-1038
1243,14.273771,3,5,9,12,22,-1036
1244,14.285318,2,8,8,15,24,-1033
1245,14.29688,2,6,9,12,27,-1039
1246,14.308447,1,9,10,15,28,-1035
1247,14.320036,1,5,4,12,24,-1032
1248,14.331714,3,5,8,18,27,-1031
1249,14.343298,3,5,9,15,25,-1041
1250,14.354854,2,9,10,12,26,-1030
1251,14.366513,3,6,10,14,25,-1032
1252,14.378164,1,8,9,15,30,-1033
1253,14.389834,1,6,9,11,26,-1028
1254,14.401487,3,6,9,16,27,-1031
1255,14.413132,1,8,9,13,26,-1031
1256,14.424778,3,6,9,15,28,-1030
1257,14.436474,1,6,9,17,25,-1031
1258,14.448126,2,5,6,13,23,-1038
1259,14.459821,1,4,10,13,21,-1029
1260,14.471407,2,6,8,14,27,-1036
1261,14.482948,3,4,8,12,27,-1039
1262,14.494484,2,5,9,13,25,-1029
1263,14.506027,3,7,10,13,29,-1035
1264,14.517577,1,5,11,15,29,-1036
1265,14.529108,1,5,7,12,31,-1039
1266,14.540654,1,6,9,11,26,-1041
1267,14.552222,3,7,10,14,25,-1033
1268,14.563926,1,7,9,14,28,-1036
1269,14.575635,3,7,9,14,28,-1036
1270,14.587333,2,5,7,13,26,-1032
1271,14.598996,5,8,9,16,22,-1032
1272,14.61065,1,8,8,13,27,-1037
1273,14.622327,0,8,10,15,27,-1034
1274,14.633992,3,8,10,17,26,-1037
1275,14.645645,2,4,9,13,28,-1030
1276,14.657325,5,8,10,14,27,-1034
1277,14.668994,3,7,10,9,25,-1034
1278,14.680586,2,5,9,11,27,-1034
1279,14.692174,3,7,9,10,26,-1037
1280,14.703765,3,6,10,15,27,-1034
1281,14.71532,2,3,10,14,24,-1034
1282,14.72688,0,7,9,13,27,-1036
1283,14.738434,3,8,10,8,29,-1033
1284,14.749992,1,8,9,16,25,-1039
1285,14.761573,1,4,10,11,25,-1033
1286,14.773242,2,6,11,15,26,-1041
1287,14.784894,2,5,9,9,29,-1030
1288,14.796534,2,5,10,12,27,-1026
1289,14.808223,3,9,9,14,26,-1033
1290,14.819889,2,8,11,15,23,-1033
1291,14.831625,2,7,10,7,24,-1034
1292,14.843268,2,5,10,17,20,-1033
1293,14.854921,2,7,9,13,27,-1033
1294,14.866613,3,7,8,11,24,-1038
1295,14.878259,3,4,10,15,24,-1027
1296,14.889825,1,7,10,20,26,-1034
1297,14.901374,1,7,9,15,23,-1035
1298,14.912936,3,8,10,12,23,-1032
1299,14.924545,2,7,7,15,22,-1039
1300,14.936099,3,6,11,14,25,-1031
1301,14.947679,3,6,9,15,26,-1037
1302,14.959223,3,4,11,13,26,-1043
1303,14.970779,1,6,8,13,31,-1040
1304,14.982398,2,5,10,12,25,-1037
1305,14.994042,2,6,10,13,24,-1033
1306,15.005716,1,6,9,14,25,-1041
1307,15.01737,2,6,9,15,26,-1036
1308,15.029011,1,7,10,17,26,-1039
1309,15.040658,2,7,10,16,22,-1030
1310,15.052351,3,7,8,15,27,-1032
1311,15.064017,2,6,9,17,30,-1037
1312,15.075761,4,5,9,13,22,-1035
1313,15.087442,3,8,9,20,27,-1036
1314,15.099036,1,6,11,16,25,-1037
1315,15.11059,3,5,8,14,23,-1029
1316,15.122178,4,5,10,12,25,-1034
1317,15.133718,1,7,8,14,21,-1037
1318,15.145257,3,7,8,16,22,-1037
1319,15.156804,4,5,10,12,24,-1036
1320,15.168379,1,5,9,15,26,-1034
1321,15.179922,1,6,8,11,26,-1032
1322,15.19158,4,7,9,13,25,-1040
1323,15.203243,3,6,7,14,26,-1034
1324,15.214895,2,7,6,11,26,-1030
1325,15.226533,3,6,9,14,33,-1037
1326,15.23818,2,6,8,14,29,-1036
1327,15.249867,4,8,8,13,27,-1031
1328,15.261505,1,8,11,15,27,-1037
1329,15.273153,3,6,9,11,25,-1034
1330,15.284833,1,7,10,11,27,-1035
1331,15.29648,2,8,7,16,23,-1034
1332,15.308043,0,6,10,13,26,-1037
1333,15.319594,3,7,10,13,24,-1038
1334,15.331186,1,9,9,14,27,-1031
1335,15.342756,2,4,7,16,21,-1034
1336,15.35432,4,6,10,18,24,-1032
1337,15.365899,2,8,9,11,25,-1036
1338,15.377452,3,7,7,14,24,-1026
1339,15.389046,1,5,8,14,25,-1032
1340,15.400719,3,7,9,15,27,-1027
1341,15.412388,4,7,9,14,28,-1034
1342,15.424036,1,6,7,12,26,-1034
1343,15.43576,2,9,9,13,25,-1028
1344,15.44745,2,5,9,15,26,-1030
1345,15.4591,1,7,9,16,26,-1038
1346,15.470741,1,6,10,13,25,-1031
1347,15.482393,3,6,11,13,24,-1031
1348,15.494046,2,5,10,16,27,-1033
1349,15.505732,3,5,8,13,25,-1031
1350,15.517327,2,7,9,15,28,-1029
1351,15.528902,4,7,9,11,26,-1033
1352,15.540448,2,4,9,14,29,-1037
1353,15.551992,3,5,8,15,26,-1037
1354,15.563567,1,7,8,14,25,-1038
1355,15.575113,2,7,10,15,23,-1037
1356,15.586658,4,5,9,13,28,-1037
1357,15.598225,2,9,10,15,23,-1036
1358,15.609985,1,7,9,16,26,-1041
1359,15.621647,2,6,10,11,26,-1032
1360,15.633299,0,8,7,14,28,-1036
1361,15.644962,3,6,8,12,32,-1037
1362,15.656641,1,7,9,13,30,-1037
1363,15.668288,3,6,8,14,28,-1038
1364,15.679979,2,7,9,15,25,-1027
1365,15.691642,3,7,9,14,29,-1033
1366,15.703315,3,8,10,15,22,-1036
1367,15.714884,2,6,6,13,24,-1029
1368,15.726434,1,5,9,18,29,-1036
1369,15.737972,4,7,8,15,25,-1035
1370,15.74952,2,7,9,12,27,-1031
1371,15.761092,3,7,9,15,23,-1034
1372,15.772632,2,6,10,16,23,-1026
1373,15.784148,1,6,9,11,28,-1037
1374,15.795665,2,6,8,13,23,-1035
1375,15.807229,4,6,7,12,30,-1035
1376,15.818906,4,8,8,12,24,-1040
1377,15.830581,3,6,11,12,29,-1032
1378,15.842241,2,6,8,11,27,-1032
1379,15.853899,1,4,9,14,25,-1035
1380,15.865551,2,8,10,16,25,-1036
1381,15.877222,3,6,9,11,25,-1031
1382,15.888873,2,7,10,16,27,-1032
1383,15.900531,0,5,8,12,24,-1037
1384,15.912221,3,6,11,11,28,-1033
1385,15.923884,2,6,9,15,24,-1035
1386,15.935527,1,6,9,9,24,-1036
1387,15.947195,1,8,11,11,27,-1037
1388,15.958859,1,7,8,18,30,-1032
1389,15.970499,2,5,7,15,27,-1032
1390,15.982145,3,5,9,16,28,-1035
1391,15.993814,1,6,9,13,23,-1034
1392,16.005493,1,7,8,15,29,-1034
1393,16.017141,1,7,8,13,23,-1032
1394,16.028808,3,8,11,14,23,-1036
1395,16.040474,1,6,9,12,24,-1035
1396,16.052127,3,5,12,15,25,-1029
1397,16.063796,2,3,9,12,22,-1040
1398,16.075454,3,6,9,13,25,-1028
1399,16.08711,3,7,10,14,24,-1033
1400,16.098765,4,7,11,14,23,-1033
1401,16.110427,0,7,10,14,21,-1037
1402,16.12198,2,7,7,15,29,-1033
1403,16.133528,3,5,7,18,27,-1031
1404,16.145131,1,8,9,16,27,-1033
1405,16.156686,2,4,10,12,24,-1035
1406,16.168303,1,7,8,14,27,-1030
1407,16.17988,1,6,7,16,27,-1037
1408,16.191432,2,6,9,16,25,-1040
1409,16.202976,2,4,10,12,27,-1030
1410,16.214532,3,6,7,10,26,-1030
1411,16.226149,1,6,10,16,24,-1032
1412,16.237805,3,7,9,18,31,-1036
1413,16.249477,2,6,10,12,26,-1038
1414,16.261134,2,8,10,11,23,-1035
1415,16.272779,1,7,10,16,26,-1033
1416,16.284467,3,8,9,14,22,-1035
1417,16.296129,0,9,10,10,26,-1035
1418,16.307855,1,5,9,13,22,-1037
1419,16.319549,2,7,9,19,27,-1038
1420,16.331196,3,7,9,10,24,-1040
1421,16.342864,3,6,9,15,24,-1035
1422,16.354506,2,5,9,17,25,-1035
1423,16.366158,3,3,7,14,22,-1037
1424,16.377809,2,7,10,13,25,-1034
1425,16.389474,3,6,8,16,26,-1030
1426,16.401125,4,7,9,14,25,-1032
1427,16.412772,2,7,10,15,31,-1036
1428,16.424476,2,7,8,16,27,-1034
1429,16.43614,3,9,9,14,29,-1036
1430,16.447675,3,8,11,16,24,-1033
1431,16.459189,2,7,9,11,25,-1036
1432,16.470729,2,7,8,13,26,-1036
1433,16.482283,2,8,8,17,28,-1036
1434,16.493832,2,7,10,13,25,-1034
1435,16.505397,1,6,7,14,25,-1038
1436,16.516946,1,5,9,14,28,-1035
1437,16.528552,3,7,9,17,31,-1026
1438,16.540259,2,4,9,13,26,-1036
1439,16.551978,1,6,10,12,26,-1035
1440,16.563644,0,6,8,13,27,-1031
1441,16.575343,3,7,9,13,28,-1036
1442,16.586987,3,8,9,13,26,-1036
1443,16.598639,4,6,9,11,23,-1027
1444,16.610313,3,7,8,10,29,-1034
1445,16.621998,1,6,9,14,25,-1033
1446,16.633772,1,6,7,15,27,-1033
1447,16.645436,3,8,10,16,26,-1033
1448,16.656987,1,6,7,15,25,-1038
1449,16.66854,3,8,10,13,25,-1031
1450,16.680092,1,6,8,13,28,-1033
1451,16.691678,3,6,11,9,24,-1041
1452,16.703229,2,6,9,14,29,-1034
1453,16.714778,2,7,9,16,26,-1028
1454,16.726329,2,10,8,15,27,-1040
1455,16.737908,2,8,8,14,29,-1036
1456,16.749549,2,5,9,10,27,-1033
1457,16.761215,2,7,9,13,25,-1026
1458,16.772865,1,5,10,14,29,-1037
1459,16.784474,2,6,7,12,22,-1041
1460,16.796125,4,5,8,13,26,-1038
1461,16.807854,0,5,8,11,25,-1036
1462,16.819497,1,6,9,17,24,-1031
1463,16.83118,4,6,10,13,28,-1031
1464,16.84286,3,10,11,17,26,-1039
1465,16.854535,5,5,10,20,24,-1032
1466,16.866087,2,8,8,16,25,-1040
1467,16.877654,3,7,8,15,24,-1041
1468,16.889197,2,6,9,13,25,-1031
1469,16.90074,2,6,10,18,25,-1031
1470,16.912297,3,7,11,16,28,-1035
1471,16.923866,3,5,8,17,26,-1031
1472,16.935429,1,6,9,15,26,-1031
1473,16.947017,1,5,9,14,25,-1035
1474,16.958646,3,7,10,10,31,-1030
1475,16.970325,1,7,9,15,31,-1033
1476,16.981966,1,6,10,14,24,-1033
1477,16.993616,2,6,9,12,23,-1039
1478,17.00527,3,7,9,11,26,-1032
1479,17.016934,3,8,8,18,25,-1029
1480,17.028608,2,6,10,14,26,-1032
1481,17.040268,2,7,6,12,23,-1035
1482,17.051966,3,6,9,12,25,-1031
1483,17.063654,2,3,6,16,24,-1032
1484,17.075394,2,6,10,15,26,-1036
1485,17.087057,3,5,11,17,28,-1037
1486,17.098726,4,6,11,16,26,-1032
1487,17.110391,2,9,10,15,26,-1035
1488,17.122138,1,6,8,15,22,-1032
1489,17.133895,1,7,10,12,27,-1035
1490,17.145601,3,8,10,15,28,-1032
1491,17.157314,2,5,7,12,27,-1032
1492,17.16898,2,4,8,14,26,-1033
1493,17.180653,1,8,11,9,24,-1039
1494,17.192349,2,7,8,15,26,-1035
1495,17.204007,2,7,10,16,25,-1035
1496,17.215697,2,6,9,15,28,-1034
1497,17.227348,1,6,11,15,29,-1031
1498,17.238995,2,7,10,15,27,-1032
1499,17.250662,2,9,9,14,26,-1036
1500,17.262329,2,9,10,16,27,-1031
1501,17.273915,2,5,9,10,27,-1034
1502,17.285471,3,5,11,14,25,-1038
1503,17.297094,3,8,11,16,22,-1039
1504,17.308658,2,6,9,13,24,-1033
1505,17.32021,3,8,10,12,27,-1038
1506,17.331791,2,7,8,14,22,-1037
1507,17.343353,2,6,10,11,26,-1032
1508,17.354916,1,8,8,17,28,-1033
1509,17.366473,1,8,7,16,24,-1039
1510,17.378093,2,6,10,14,24,-1034
1511,17.389747,2,7,10,11,24,-1033
1512,17.401393,4,6,9,14,27,-1034
1513,17.413059,1,6,8,11,28,-1031
1514,17.424738,1,5,8,15,24,-1035
1515,17.436398,3,5,10,14,29,-1030
1516,17.44809,2,5,9,15,25,-1035
1517,17.459716,3,9,9,10,29,-1033
1518,17.471377,2,6,9,16,27,-1034
1519,17.483049,3,4,8,16,26,-1032
1520,17.494701,2,6,8,13,26,-1026
1521,17.506352,2,7,11,11,25,-1043
1522,17.518003,3,7,8,13,28,-1033
1523,17.529648,1,6,8,15,24,-1033
1524,17.541296,2,7,10,16,26,-1038
1525,17.552964,1,7,11,14,30,-1032
1526,17.564623,2,7,8,14,29,-1032
1527,17.576302,4,7,9,14,26,-1035
1528,17.587975,4,7,9,14,23,-1038
1529,17.599624,2,8,9,17,26,-1037
1530,17.611268,1,6,9,14,25,-1034
1531,17.622937,1,8,9,14,25,-1029
1532,17.634589,1,6,9,15,26,-1033
1533,17.646269,2,9,8,18,23,-1031
1534,17.657999,2,7,9,14,26,-1039
1535,17.669707,3,6,10,17,25,-1038
1536,17.681405,2,6,8,12,26,-1029
1537,17.693096,4,4,12,16,26,-1034
1538,17.704743,2,6,10,12,26,-1031
1539,17.716401,2,4,12,15,27,-1038
1540,17.728103,1,7,10,12,25,-1036
1541,17.739755,2,5,10,13,23,-1037
1542,17.75145,5,4,9,14,26,-1036
1543,17.763104,3,6,8,13,25,-1030
1544,17.77475,3,5,10,12,25,-1032
1545,17.786413,0,7,9,14,25,-1037
1546,17.798113,1,7,9,13,27,-1029
1547,17.809671,1,7,9,12,27,-1037
1548,17.821215,3,7,10,12,31,-1040
1549,17.832771,3,6,10,17,27,-1034
1550,17.844328,1,5,10,15,30,-1032
1551,17.85591,2,7,8,14,24,-1029
1552,17.867479,3,6,9,11,23,-1027
1553,17.879058,1,6,8,14,28,-1035
1554,17.89063,3,5,9,15,27,-1039
1555,17.902237,2,5,9,15,27,-1028
1556,17.913892,1,6,9,12,25,-1038
1557,17.925586,4,7,11,13,30,-1038
1558,17.937223,3,5,10,16,27,-1034
1559,17.948872,1,6,9,18,23,-1040
1560,17.960557,4,6,9,13,24,-1033
1561,17.972223,4,7,7,14,22,-1028
1562,17.983882,2,6,8,16,29,-1032
1563,17.995593,3,6,8,15,19,-1034
1564,18.007193,4,8,10,17,28,-1038
1565,18.018772,2,7,10,14,28,-1031
1566,18.030341,2,5,7,13,26,-1030
1567,18.041904,1,7,9,16,28,-1030
1568,18.053439,2,7,10,12,23,-1032
1569,18.064974,3,8,9,13,27,-1029
1570,18.076517,4,8,10,13,30,-1036
1571,18.088067,3,8,8,16,25,-1040
1572,18.099666,2,5,10,16,25,-1037
1573,18.111387,2,4,8,14,24,-1038
1574,18.123074,2,5,9,16,28,-1038
1575,18.134721,2,6,10,15,24,-1039
1576,18.146373,3,9,10,13,27,-1031
1577,18.158041,3,5,9,12,24,-1024
1578,18.169718,4,6,10,14,27,-1036
1579,18.181367,3,7,10,12,25,-1038
1580,18.193007,5,5,9,11,28,-1025
1581,18.204666,4,3,10,16,27,-1034
1582,18.216327,2,7,9,11,25,-1034
1583,18.227915,0,6,8,14,27,-1034
1584,18.239467,2,4,6,13,25,-1031
1585,18.251026,2,6,9,11,30,-1033
1586,18.262576,3,6,9,17,28,-1033
1587,18.274146,1,6,9,14,29,-1033
1588,18.285722,3,8,9,13,21,-1034
1589,18.297301,3,8,10,11,27,-1036
1590,18.308869,1,6,8,14,25,-1030
1591,18.320457,3,5,8,17,26,-1038
1592,18.332127,3,6,9,15,26,-1035
1593,18.343776,0,6,9,13,24,-1033
1594,18.355461,3,3,8,16,27,-1029
1595,18.367114,3,8,8,16,32,-1033
1596,18.37876,1,6,9,13,22,-1036
1597,18.390411,1,5,9,14,25,-1039
1598,18.402126,2,5,8,13,23,-1034
1599,18.413783,0,7,11,12,26,-1037
1600,18.425435,3,5,9,13,31,-1037
1601,18.436987,4,6,10,16,25,-1043
1602,18.448545,3,6,9,13,25,-1037
1603,18.460138,2,6,11,15,26,-1032
1604,18.471668,2,7,10,14,28,-1034
1605,18.483236,2,6,10,10,27,-1030
1606,18.494786,3,6,8,17,25,-1035
1607,18.506331,3,6,9,13,29,-1030
1608,18.517915,4,5,8,12,27,-1035
1609,18.529533,2,7,10,12,24,-1033
1610,18.5412,1,6,7,13,25,-1037
1611,18.552855,3,6,11,14,24,-1037
1612,18.564484,2,6,10,11,25,-1028
1613,18.578865,0,6,8,16,26,-1038
1614,18.590577,2,7,9,15,26,-1033
1615,18.602222,2,7,10,15,24,-1037
1616,18.613876,3,7,9,16,29,-1034
1617,18.625585,1,6,9,17,27,-1035
1618,18.637305,4,6,8,14,28,-1039
1619,18.648858,2,6,8,15,22,-1032
1620,18.660394,3,7,10,15,30,-1028
1621,18.671958,4,7,9,12,26,-1034
1622,18.683549,2,4,8,16,24,-1033
1623,18.695092,1,6,11,15,29,-1040
1624,18.706637,1,5,8,12,24,-1038
1625,18.718192,4,6,10,13,26,-1036
1626,18.729802,2,6,8,18,24,-1038
1627,18.741457,1,5,7,13,32,-1036
1628,18.753126,3,6,10,12,30,-1037
1629,18.764777,3,8,8,14,28,-1033
1630,18.776474,2,9,11,16,25,-1029
1631,18.788201,3,5,9,12,27,-1037
1632,18.799884,2,7,9,16,28,-1039
1633,18.811602,2,8,10,11,23,-1038
1634,18.823253,3,7,10,10,29,-1031
1635,18.834937,2,6,11,17,30,-1038
1636,18.846618,3,7,7,15,27,-1032
1637,18.858172,3,5,9,13,27,-1035
1638,18.86972,3,6,8,15,25,-1037
1639,18.881276,2,7,9,11,26,-1040
1640,18.892834,3,6,9,12,28,-1035
1641,18.904446,3,5,11,16,27,-1032
1642,18.9161,3,7,11,13,29,-1027
1643,18.92767,4,5,8,14,27,-1039
1644,18.939204,1,6,10,13,27,-1038
1645,18.950916,3,8,11,16,31,-1028
1646,18.962593,2,7,9,15,24,-1038
1647,18.974254,1,6,8,17,28,-1033
1648,18.98593,2,6,9,16,26,-1028
1649,18.997589,3,5,9,14,24,-1033
1650,19.009238,3,8,10,15,27,-1035
1651,19.020902,0,6,9,14,22,-1034
1652,19.032568,2,4,11,14,27,-1029
1653,19.044247,2,7,10,12,26,-1026
1654,19.055949,2,7,8,14,27,-1036
1655,19.067548,2,4,11,12,27,-1032
1656,19.079092,1,8,8,15,25,-1030
1657,19.090639,3,7,8,17,29,-1031
1658,19.102183,2,7,10,14,27,-1039
1659,19.113723,2,7,9,11,24,-1033
1660,19.125274,3,7,10,10,24,-1035
1661,19.136823,2,6,8,17,28,-1033
1662,19.148423,2,6,8,14,23,-1034
1663,19.160072,0,6,10,13,28,-1034
1664,19.171753,4,8,9,15,28,-1039
1665,19.183424,3,6,11,14,29,-1029
1666,19.195092,1,4,10,11,25,-1030
1667,19.206741,1,6,10,12,22,-1040
1668,19.218404,2,6,8,15,29,-1031
1669,19.23007,2,5,11,15,24,-1035
1670,19.241723,0,8,9,14,23,-1040
1671,19.25338,2,8,9,12,24,-1030
1672,19.265053,2,7,10,16,28,-1037
1673,19.27666,1,7,11,15,27,-1032
1674,19.288271,4,5,9,9,24,-1034
1675,19.299831,2,7,9,12,25,-1037
1676,19.311421,3,6,10,14,23,-1035
1677,19.323008,1,9,10,13,25,-1032
1678,19.334563,1,6,9,14,25,-1037
1679,19.346172,3,5,8,10,23,-1035
1680,19.357933,3,6,9,13,28,-1035
1681,19.369632,1,4,9,15,30,-1034
1682,19.381292,2,6,10,12,26,-1027
1683,19.392956,2,5,11,13,26,-1031
1684,19.404614,3,8,8,11,26,-1033
1685,19.416282,1,7,10,13,25,-1038
1686,19.427965,1,7,9,15,27,-1034
1687,19.439635,4,7,9,15,25,-1033
1688,19.451338,4,5,9,14,29,-1033
1689,19.46298,3,5,12,15,30,-1032
1690,19.474547,4,7,7,16,29,-1041
1691,19.48611,1,6,7,12,22,-1034
1692,19.497664,2,7,9,17,32,-1035
1693,19.50921,2,7,7,15,27,-1028
1694,19.520758,3,6,10,16,25,-1033
1695,19.532312,0,10,9,13,25,-1040
1696,19.543945,1,4,8,12,26,-1032
1697,19.555554,1,5,8,11,27,-1029
1698,19.56713,1,7,10,14,28,-1026
1699,19.578754,1,7,8,11,26,-1033
1700,19.590424,2,7,8,12,29,-1031
1701,19.602081,2,6,9,10,28,-1035
1702,19.613729,1,7,9,11,25,-1035
1703,19.62538,3,6,9,11,22,-1036
1704,19.63703,1,4,7,14,26,-1037
1705,19.648689,1,6,8,13,27,-1037
1706,19.660375,3,7,8,13,25,-1034
1707,19.672038,3,6,9,11,28,-1034
1708,19.683733,3,5,10,13,24,-1036
1709,19.695316,2,8,10,12,26,-1039
1710,19.706879,0,5,10,17,25,-1038
1711,19.718439,2,7,8,15,25,-1032
1712,19.730034,2,7,9,17,27,-1032
1713,19.741587,3,7,11,15,25,-1030
1714,19.753163,3,5,9,15,30,-1040
1715,19.764704,0,5,10,15,24,-1033
1716,19.776311,1,7,9,12,28,-1035
1717,19.787977,3,6,9,12,24,-1031
1718,19.799636,0,7,9,13,26,-1038
1719,19.811331,2,5,10,12,26,-1035
1720,19.822995,4,6,8,15,24,-1034
1721,19.83464,2,6,7,16,26,-1032
1722,19.846283,2,6,10,13,26,-1035
1723,19.857947,1,6,8,12,26,-1030
1724,19.869592,2,8,11,16,27,-1034
1725,19.881254,1,5,8,13,29,-1033
1726,19.89293,3,7,9,15,24,-1039
1727,19.904532,4,6,9,10,24,-1034
1728,19.916116,1,7,11,15,26,-1037
1729,19.927667,4,8,8,14,26,-1033
1730,19.939185,3,9,10,14,26,-1030
1731,19.950728,1,7,8,17,25,-1038
1732,19.962286,3,6,8,12,22,-1039
1733,19.973834,3,4,10,15,23,-1030
1734,19.985417,3,5,9,11,27,-1037
1735,19.997039,2,7,9,14,23,-1029
1736,20.008724,3,7,10,17,24,-1034
1737,20.020389,1,6,9,14,26,-1036
1738,20.032096,2,4,9,14,25,-1036
1739,20.043714,2,5,7,13,30,-1031
1740,20.055371,2,5,10,14,23,-1032
1741,20.067064,1,6,11,12,27,-1037
1742,20.078704,3,5,8,18,25,-1033
1743,20.090369,2,10,9,11,30,-1030
1744,20.102034,1,6,8,13,24,-1038
1745,20.113588,3,5,9,17,24,-1036
1746,20.12515,3,9,7,14,21,-1028
1747,20.136699,3,5,8,10,26,-1034
1748,20.148272,2,7,8,15,26,-1034
1749,20.159828,2,6,10,12,24,-1039
1750,20.171418,4,3,8,13,26,-1031
1751,20.182967,4,7,9,12,25,-1030
1752,20.194526,4,7,9,11,30,-1035
1753,20.206252,1,6,8,16,25,-1036
1754,20.21796,3,7,10,12,28,-1040
1755,20.229625,0,5,9,16,26,-1030
1756,20.241283,2,6,9,13,24,-1039
1757,20.252952,1,3,10,10,28,-1036
1758,20.264649,2,5,10,11,25,-1031
1759,20.276347,0,6,8,13,25,-1030
1760,20.288053,2,5,11,16,26,-1032
1761,20.299711,4,5,11,13,24,-1035
1762,20.311316,4,7,10,15,25,-1035
1763,20.322896,3,6,9,13,25,-1032
1764,20.334436,1,9,9,16,27,-1034
1765,20.345984,3,6,8,11,25,-1037
1766,20.357534,4,6,9,13,29,-1035
1767,20.369084,2,5,10,11,26,-1032
1768,20.38063,1,7,10,15,29,-1038
1769,20.392151,3,6,9,13,24,-1044
1770,20.403688,1,8,9,9,28,-1030
1771,20.415377,2,6,11,17,26,-1038
1772,20.427068,3,7,12,12,23,-1038
1773,20.438718,2,7,9,14,29,-1031
1774,20.450372,3,6,9,11,24,-1035
1775,20.462053,3,6,7,15,26,-1033
1776,20.473715,1,6,8,12,24,-1038
1777,20.485374,3,6,9,13,26,-1038
1778,20.497027,2,6,10,15,24,-1038
1779,20.508706,0,5,10,14,26,-1034
1780,20.520391,3,5,10,15,23,-1031
1781,20.53195,3,7,8,15,26,-1028
1782,20.543505,2,6,9,13,21,-1032
1783,20.555055,3,6,8,14,28,-1033
1784,20.566599,3,9,10,13,26,-1039
1785,20.578147,2,5,9,13,25,-1032
1786,20.589705,1,7,10,12,27,-1031
1787,20.601291,2,6,10,15,22,-1034
1788,20.612892,3,7,9,12,21,-1033
1789,20.624549,2,7,11,12,25,-1034
1790,20.636233,1,7,11,14,25,-1034
1791,20.647904,3,8,9,13,23,-1036
1792,20.659608,0,7,9,15,22,-1022
1793,20.671274,2,7,9,19,21,-1039
1794,20.682945,3,6,9,14,24,-1036
1795,20.694599,3,6,8,15,26,-1030
1796,20.706258,2,7,11,15,28,-1030
1797,20.717944,3,6,9,18,24,-1036
1798,20.729709,2,6,9,14,25,-1034
1799,20.741372,0,8,10,13,27,-1030
1800,20.753095,1,6,10,15,29,-1039
1801,20.764772,1,6,10,8,24,-1039
1802,20.776461,2,7,10,16,25,-1033
1803,20.788126,3,4,8,15,23,-1032
1804,20.79979,3,7,9,13,25,-1037
1805,20.811465,3,9,9,12,30,-1033
1806,20.823145,4,6,9,10,24,-1032
1807,20.834827,2,7,10,13,27,-1039
1808,20.846389,2,6,9,12,25,-1041
1809,20.857948,3,8,8,12,24,-1031
1810,20.869538,3,8,10,16,24,-1027
1811,20.881109,-1,7,9,16,26,-1034
1812,20.892665,3,8,9,14,24,-1037
1813,20.90423,3,6,10,13,24,-1035
1814,20.915795,1,6,9,15,28,-1034
1815,20.927362,3,6,10,12,28,-1036
1816,20.939061,1,7,9,13,26,-1032
1817,20.950709,4,6,8,12,27,-1025
1818,20.962358,1,8,8,12,23,-1030
1819,20.974027,2,8,7,15,27,-1034
1820,20.985703,1,7,8,15,22,-1039
1821,20.997354,1,5,9,14,29,-1036
1822,21.008995,2,6,9,9,22,-1032
1823,21.020675,0,7,8,14,23,-1036
1824,21.032369,3,9,6,9,27,-1037
1825,21.044027,3,7,10,14,27,-1032
1826,21.055601,4,5,8,12,27,-1030
1827,21.067188,4,8,12,14,25,-1038
1828,21.078775,4,5,11,10,24,-1037
1829,21.090326,2,7,10,13,23,-1034
1830,21.101904,3,7,9,17,24,-1033
1831,21.113449,2,7,7,14,22,-1039
1832,21.124996,1,7,9,17,25,-1035
1833,21.136565,5,7,9,15,26,-1037
1834,21.148283,2,7,7,11,27,-1040
1835,21.159969,1,5,9,16,27,-1029
1836,21.171631,2,9,9,13,25,-1027
1837,21.183331,1,6,9,16,25,-1035
1838,21.194981,2,7,9,17,25,-1032
1839,21.206629,2,6,8,12,25,-1034
1840,21.218306,2,5,9,13,24,-1032
1841,21.229959,0,6,14,18,27,-1034
1842,21.241633,2,6,10,13,30,-1028
1843,21.253289,3,6,9,17,25,-1037
1844,21.264978,1,7,6,13,26,-1035
1845,21.276649,1,7,9,15,25,-1037
1846,21.288345,2,5,7,10,25,-1039
1847,21.299976,1,7,9,15,25,-1029
1848,21.311647,3,6,10,12,25,-1036
1849,21.323324,4,5,9,13,23,-1033
1850,21.334978,1,9,9,13,21,-1030
1851,21.3467,3,6,11,12,27,-1035
1852,21.358353,5,6,9,15,26,-1037
1853,21.369914,2,6,8,15,30,-1035
1854,21.381473,2,6,9,13,26,-1031
1855,21.393054,1,6,8,19,24,-1030
1856,21.404627,2,7,8,14,23,-1034
1857,21.416146,2,6,10,13,23,-1036
1858,21.427668,2,7,8,11,23,-1029
1859,21.439183,1,6,10,15,26,-1035
1860,21.450738,2,6,8,14,28,-1036
1861,21.46235,3,5,9,15,30,-1029
1862,21.473997,2,8,9,13,24,-1032
1863,21.485667,3,5,7,11,26,-1036
1864,21.497321,2,5,9,14,22,-1038
1865,21.508971,4,7,12,13,24,-1040
1866,21.520614,2,6,8,16,27,-1036
1867,21.532269,0,6,8,13,24,-1033
1868,21.543958,2,6,12,14,25,-1034
1869,21.555622,2,10,10,15,25,-1034
1870,21.567282,1,4,8,12,26,-1038
1871,21.578846,0,7,10,15,24,-1035
1872,21.590407,1,7,10,14,24,-1034
1873,21.601952,3,6,8,13,28,-1036
1874,21.613506,4,4,8,12,28,-1032
1875,21.625053,1,6,8,11,28,-1028
1876,21.636628,2,6,11,14,28,-1037
1877,21.648152,1,5,9,13,23,-1029
1878,21.659745,2,8,9,10,25,-1036
1879,21.671379,1,6,9,14,27,-1034
1880,21.683064,2,5,9,12,31,-1039
1881,21.694712,5,7,8,13,27,-1033
1882,21.706367,2,8,9,12,25,-1031
1883,21.718046,1,7,9,16,25,-1034
1884,21.729705,2,4,10,12,20,-1034
1885,21.741361,3,7,9,14,25,-1037
1886,21.753187,1,7,10,13,25,-1034
1887,21.764874,2,6,7,16,26,-1034
1888,21.776549,1,7,8,18,22,-1034
1889,21.788159,4,6,9,13,27,-1035
1890,21.799709,2,6,9,14,24,-1029
1891,21.811267,3,5,8,15,28,-1034
1892,21.822824,3,5,10,11,26,-1033
1893,21.834381,1,8,9,14,25,-1038
1894,21.845938,2,5,9,13,24,-1037
1895,21.857535,3,6,7,11,27,-1033
1896,21.869102,1,5,10,16,25,-1034
1897,21.880713,1,8,9,12,27,-1033
1898,21.892378,2,7,10,17,28,-1031
1899,21.904031,0,9,10,17,28,-1035
1900,21.915714,1,7,10,15,27,-1030
1901,21.927373,1,7,9,15,26,-1030
1902,21.939021,2,5,10,13,28,-1032
1903,21.950664,4,5,11,15,22,-1037
1904,21.962349,4,5,9,14,29,-1031
1905,21.973999,1,5,7,11,29,-1023
1906,21.985666,1,9,8,16,24,-1033
1907,21.997285,2,7,8,18,31,-1034
1908,22.00884,2,6,9,12,26,-1039
1909,22.020393,1,4,10,12,29,-1033
1910,22.031957,3,7,9,18,29,-1031
1911,22.043552,3,7,10,11,27,-1037
1912,22.05512,1,7,10,15,23,-1039
1913,22.066663,4,7,9,14,27,-1035
1914,22.078224,1,7,8,14,26,-1031
1915,22.089849,2,7,10,12,27,-1027
1916,22.101488,2,7,10,12,26,-1035
1917,22.113159,3,5,10,15,25,-1032
1918,22.124823,1,5,10,16,25,-1037
1919,22.136502,1,8,8,14,21,-1037
1920,22.148154,3,6,8,15,22,-1032
1921,22.15984,2,8,10,9,29,-1032
1922,22.171452,3,6,8,17,28,-1031
1923,22.183115,4,7,9,12,26,-1027
1924,22.194775,1,5,10,16,29,-1029
1925,22.206337,3,7,7,13,28,-1033
1926,22.217902,2,6,9,11,24,-1032
1927,22.229463,2,6,9,18,23,-1039
1928,22.241132,4,7,9,13,26,-1033
1929,22.252753,3,6,10,12,21,-1040
1930,22.264357,1,5,11,12,22,-1036
1931,22.275915,2,8,10,13,25,-1032
1932,22.28752,4,5,10,13,28,-1035
1933,22.299197,1,6,10,19,29,-1037
1934,22.310865,3,7,8,17,26,-1031
1935,22.322527,1,5,9,13,24,-1030
1936,22.334206,2,5,10,14,29,-1036
1937,22.345863,3,6,9,16,25,-1030
1938,22.357517,2,7,11,13,30,-1034
1939,22.369194,1,4,8,13,26,-1032
1940,22.380845,3,4,11,13,25,-1038
1941,22.392502,3,5,9,12,26,-1033
1942,22.40419,2,6,9,15,26,-1036
1943,22.415854,2,8,9,12,25,-1037
1944,22.42751,1,4,10,14,25,-1034
1945,22.439196,2,7,10,16,29,-1037
1946,22.450846,4,5,8,15,27,-1037
1947,22.462499,2,6,8,15,26,-1035
1948,22.474166,2,8,10,16,25,-1032
1949,22.485826,3,7,11,13,26,-1040
1950,22.497508,2,7,8,15,33,-1033
1951,22.509217,1,6,10,14,24,-1035
1952,22.52087,2,6,10,16,27,-1035
1953,22.532544,1,7,9,14,29,-1037
1954,22.544216,3,6,8,12,23,-1035
1955,22.555869,2,6,9,13,28,-1032
1956,22.567569,2,5,8,8,23,-1032
1957,22.579196,1,7,9,19,23,-1034
1958,22.59085,2,6,8,12,25,-1036
1959,22.602534,2,7,10,10,25,-1035
1960,22.614204,4,5,8,10,20,-1036
1961,22.62585,3,7,9,15,25,-1037
1962,22.637505,1,5,8,14,21,-1029
1963,22.649169,1,6,9,14,25,-1031
1964,22.660825,2,6,8,14,25,-1031
1965,22.672489,2,7,10,16,26,-1034
1966,22.684147,3,7,8,13,25,-1027
1967,22.695834,1,5,10,11,24,-1035
1968,22.70751,1,8,8,13,24,-1031
1969,22.719191,4,6,8,11,25,-1030
1970,22.730844,1,7,10,14,23,-1031
1971,22.742533,3,9,10,13,27,-1033
1972,22.754209,1,5,9,12,27,-1034
1973,22.765901,2,7,9,13,26,-1035
1974,22.777631,2,8,10,12,25,-1033
1975,22.789292,2,6,8,15,26,-1034
1976,22.800964,2,6,11,11,26,-1033
1977,22.812697,2,7,10,13,25,-1034
1978,22.824351,3,6,10,15,28,-1030
1979,22.835916,3,6,8,12,25,-1031
1980,22.847552,3,7,11,13,28,-1039
1981,22.859131,-1,6,8,11,25,-1039
1982,22.870675,2,6,10,17,27,-1033
1983,22.882252,0,7,9,12,23,-1031
1984,22.893805,2,7,9,14,26,-1029
1985,22.905356,2,5,9,13,26,-1036
1986,22.91699,2,6,11,19,24,-1038
1987,22.928698,2,5,10,15,28,-1034
1988,22.940371,3,5,9,14,27,-1027
1989,22.952057,3,5,11,15,26,-1029
1990,22.963712,2,8,9,11,26,-1033
1991,22.975362,2,7,8,11,24,-1032
1992,22.987008,1,6,8,14,26,-1037
1993,22.99868,3,7,10,14,27,-1034
1994,23.010324,1,7,9,12,27,-1037
1995,23.021973,1,5,10,16,24,-1038
1996,23.033527,2,6,9,11,25,-1033
1997,23.045097,1,6,9,16,27,-1033
1998,23.056655,3,7,9,14,24,-1039
1999,23.068211,2,6,11,14,24,-1033
