sample,t_s,gyro_x,gyro_y,gyro_z,accel_x,accel_y,accel_z
0,2e-05,-2,0,0,1050,-1,-1564
1,0.01174,0,0,0,1044,0,-1558
2,0.023398,-1,0,1,1052,2,-1553
3,0.035099,0,-1,0,1048,0,-1557
4,0.046751,-1,1,2,1047,4,-1556
5,0.058403,0,0,1,1045,1,-1561
6,0.070075,1,0,-1,1049,-1,-1557
7,0.081756,0,-2,1,1052,0,-1559
8,0.093425,1,3,0,1047,0,-1557
9,0.105111,1,0,1,1046,0,-1561
10,0.116777,0,1,0,1054,0,-1559
11,0.128475,2,1,2,1046,1,-1560
12,0.140138,1,-2,1,1046,0,-1557
13,0.151834,1,-1,-1,1051,0,-1559
14,0.163408,-1,0,0,1047,3,-1555
15,0.174952,-1,1,-1,1047,-1,-1556
16,0.186493,1,2,0,1045,2,-1561
17,0.198041,0,-2,0,1050,-1,-1561
18,0.209586,2,0,1,1046,1,-1560
19,0.221167,0,0,1,1045,0,-1559
20,0.232736,0,0,-1,1048,0,-1566
21,0.244317,2,1,1,1050,2,-1560
22,0.255955,-1,2,0,1047,4,-1558
23,0.267608,0,-1,0,1052,4,-1562
24,0.27925,0,0,0,1048,0,-1557
25,0.290894,1,0,0,1045,0,-1563
26,0.302567,1,0,2,1050,0,-1551
27,0.314243,0,1,-1,1050,3,-1562
28,0.325892,1,3,-1,1050,-1,-1558
29,0.33754,0,-1,-2,1045,-2,-1563
30,0.349231,0,1,1,1045,2,-1561
31,0.360887,0,-1,-2,1049,1,-1551
32,0.372451,-2,0,-1,1051,0,-1562
33,0.384006,0,0,-1,1048,1,-1558
34,0.395556,0,-1,0,1044,5,-1561
35,0.407159,0,0,0,1046,0,-1557
36,0.418712,1,1,-1,1043,0,-1560
37,0.430273,-1,4,2,1050,0,-1562
38,0.441814,-1,0,-1,1047,0,-1560
39,0.453382,0,4,1,1044,0,-1560
40,0.465013,0,-1,0,1048,0,-1560
41,0.476665,1,-1,-1,1051,0,-1559
42,0.488339,2,1,0,1051,-5,-1560
43,0.499989,-1,2,0,1051,5,-1562
44,0.511624,1,-2,0,1047,0,-1566
45,0.523273,1,1,0,1051,3,-1562
46,0.534942,-1,-1,0,1049,1,-1559
47,0.546599,0,2,1,1047,0,-1561
48,0.558261,0,2,1,1046,4,-1564
49,0.569919,-1,2,0,1050,0,-1556
50,0.581479,2,-1,0,1046,3,-1561
51,0.593041,0,1,-1,1049,2,-1559
52,0.604631,0,-1,-1,1045,0,-1561
53,0.616187,-1,0,-1,1046,3,-1558
54,0.627766,-1,2,1,1046,-1,-1554
55,0.639308,0,1,1,1049,1,-1560
56,0.650851,2,1,1,1046,0,-1558
57,0.662419,1,3,0,1048,-2,-1557
58,0.674054,-1,3,-2,1047,2,-1563
59,0.685742,2,-1,2,1048,3,-1563
60,0.697424,0,0,-1,1046,-2,-1558
61,0.709102,-1,0,1,1050,-2,-1564
62,0.720756,-2,1,-1,1049,-1,-1558
63,0.732468,-1,1,-2,1047,4,-1562
64,0.74411,1,-1,0,1047,-2,-1561
65,0.755759,-1,0,-1,1047,0,-1558
66,0.767446,0,2,1,1049,0,-1562
67,0.779088,1,-1,0,1044,2,-1555
68,0.790651,0,1,0,1047,1,-1562
69,0.802198,-1,1,0,1048,-2,-1560
70,0.813784,-1,2,1,1042,0,-1562
71,0.825337,0,0,0,1051,2,-1560
72,0.836913,1,1,0,1048,1,-1561
73,0.848484,1,2,0,1048,-2,-1560
74,0.860037,0,-2,2,1046,-1,-1560
75,0.8716,1,0,1,1043,0,-1559
76,0.883221,1,-2,0,1046,2,-1553
77,0.894892,1,-1,-1,1047,0,-1559
78,0.906558,0,2,0,1048,0,-1559
79,0.918231,1,0,1,1045,0,-1559
80,0.929883,2,0,0,1048,-4,-1563
81,0.94325,0,0,-1,1049,1,-1558
82,0.954951,0,2,1,1051,1,-1562
83,0.96661,-2,-2,-1,1047,2,-1560
84,0.978299,0,0,1,1047,-1,-1562
85,0.98999,1,1,0,1049,0,-1564
86,1.00154,0,0,-2,1047,-1,-1561
87,1.013105,-1,1,1,1051,2,-1560
88,1.024678,1,-1,1,1043,0,-1557
89,1.036224,0,-2,0,1047,0,-1563
90,1.047776,-1,0,-2,1046,-4,-1565
91,1.059323,0,1,-1,1047,-1,-1559
92,1.07087,0,2,0,1047,-4,-1559
93,1.082445,0,1,1,1050,0,-1564
94,1.094086,1,2,1,1051,2,-1559
95,1.10577,1,1,0,1050,0,-1562
96,1.117644,1,0,2,1050,0,-1569
97,1.129514,2,1,1,1046,-1,-1560
98,1.141186,1,-1,1,1046,1,-1562
99,1.152848,-1,1,2,1046,0,-1560
100,1.164515,-1,1,0,1051,-1,-1562
101,1.176173,-2,0,-1,1049,0,-1562
102,1.187947,0,0,1,1046,3,-1558
103,1.199622,-1,1,1,1048,-1,-1563
104,1.211193,-2,0,1,1046,1,-1557
105,1.222775,1,0,1,1052,0,-1561
106,1.234333,-1,1,0,1049,1,-1556
107,1.245898,1,-1,-1,1044,-2,-1559
108,1.257452,-1,2,1,1045,-3,-1551
109,1.269052,0,0,0,1049,0,-1556
110,1.280609,0,-1,1,1049,0,-1557
111,1.292175,1,1,-1,1048,-1,-1553
112,1.303823,0,-1,0,1049,-1,-1561
113,1.315479,0,0,1,1043,1,-1557
114,1.327132,1,-1,0,1046,-1,-1560
115,1.338776,-1,0,0,1049,0,-1557
116,1.350429,1,0,1,1049,1,-1558
117,1.362077,-2,-2,0,1046,2,-1556
118,1.373752,-1,1,-1,1048,1,-1560
119,1.385424,-2,0,1,1045,2,-1560
120,1.397117,-1,1,1,1047,-2,-1554
121,1.408798,3,1,0,1051,0,-1551
122,1.420409,0,1,0,1051,-1,-1562
123,1.43196,-1,2,0,1045,0,-1564
124,1.443515,-1,1,1,1049,-2,-1556
125,1.455061,0,1,0,1047,1,-1556
126,1.466606,3,1,-1,1046,1,-1556
127,1.478156,1,-1,-1,1045,0,-1556
128,1.489716,1,0,1,1048,-1,-1561
129,1.501305,-1,2,-3,1049,0,-1556
130,1.512997,1,1,2,1049,0,-1565
131,1.524658,0,-2,1,1048,0,-1563
132,1.536339,1,-1,-1,1047,-1,-1561
133,1.547984,2,2,0,1049,0,-1562
134,1.559634,1,-1,-1,1048,1,-1563
135,1.571305,0,-1,0,1051,3,-1565
136,1.58296,1,1,0,1049,3,-1558
137,1.594605,-2,0,0,1048,1,-1559
138,1.606256,0,0,0,1050,3,-1556
139,1.617906,0,2,0,1046,-3,-1559
140,1.62962,-1,0,1,1049,0,-1556
141,1.641302,0,1,1,1049,0,-1563
142,1.65298,-2,0,1,1050,3,-1560
143,1.664654,1,0,-2,1048,2,-1566
144,1.676341,-1,0,0,1048,-3,-1554
145,1.68799,0,0,1,1046,0,-1557
146,1.699662,1,-1,0,1045,6,-1564
147,1.711333,-1,2,-2,1045,3,-1553
148,1.722911,1,1,0,1049,-1,-1558
149,1.734468,0,0,-1,1046,0,-1558
150,1.746027,-1,1,0,1048,3,-1558
151,1.757577,0,-1,-2,1049,1,-1555
152,1.769122,2,1,1,1048,0,-1559
153,1.780684,1,0,0,1050,-1,-1558
154,1.792231,0,2,0,1046,0,-1560
155,1.803786,0,2,-1,1048,5,-1556
156,1.815494,0,0,1,1049,3,-1551
157,1.827181,0,0,-2,1047,0,-1560
158,1.838828,0,0,-1,1047,-1,-1561
159,1.850484,0,0,1,1047,0,-1561
160,1.862144,-1,0,1,1049,1,-1556
161,1.873808,1,0,2,1044,-1,-1557
162,1.885496,-1,2,0,1046,1,-1557
163,1.897146,2,1,-1,1049,1,-1561
164,1.908856,1,-1,-2,1048,1,-1557
165,1.920522,0,1,0,1048,0,-1562
166,1.93208,1,0,0,1042,1,-1566
167,1.943628,1,3,-1,1043,-5,-1552
168,1.955217,0,2,1,1050,1,-1558
169,1.966771,1,3,0,1050,1,-1558
170,1.978325,-1,-2,0,1047,2,-1555
171,1.989892,-1,0,2,1051,2,-1563
172,2.001446,0,1,1,1048,2,-1560
173,2.013056,-1,-1,1,1048,1,-1558
174,2.024711,1,-1,-1,1049,2,-1556
175,2.036336,-1,-1,1,1047,-2,-1557
176,2.047987,0,1,-2,1048,0,-1563
177,2.059684,0,-1,1,1047,0,-1559
178,2.07134,2,-1,1,1046,-1,-1562
179,2.082988,1,1,1,1047,0,-1554
180,2.094664,0,-1,1,1046,-2,-1559
181,2.106322,-1,0,1,1047,1,-1563
182,2.117966,-1,1,-2,1053,3,-1571
183,2.129535,0,1,1,1048,5,-1554
184,2.141121,0,0,2,1050,2,-1560
185,2.152689,0,0,1,1051,2,-1566
186,2.164264,0,0,-1,1045,1,-1559
187,2.175805,0,0,1,1049,0,-1561
188,2.187349,0,1,1,1048,2,-1557
189,2.198898,0,-2,0,1050,0,-1555
190,2.210446,0,-2,1,1047,-2,-1564
191,2.222002,0,0,-2,1048,0,-1561
192,2.233596,-1,1,2,1050,-1,-1565
193,2.245264,1,0,1,1050,1,-1560
194,2.256981,0,1,-1,1047,0,-1555
195,2.268624,-2,-2,-2,1047,0,-1562
196,2.280324,-1,-1,-1,1047,0,-1558
197,2.291975,1,1,0,1052,0,-1558
198,2.303613,0,3,1,1049,-1,-1560
199,2.315286,0,-1,-1,1049,4,-1561
200,2.326972,-1,1,-2,1048,-1,-1563
201,2.338627,-1,1,0,1050,0,-1561
202,2.350186,0,2,0,1049,0,-1561
203,2.36176,-1,3,-2,1048,-2,-1562
204,2.37329,0,2,-1,1047,1,-1557
205,2.384808,1,1,1,1047,-2,-1558
206,2.396323,2,2,-1,1049,2,-1555
207,2.407877,0,1,0,1048,0,-1570
208,2.419429,1,1,1,1049,0,-1560
209,2.431008,-1,1,1,1048,0,-1561
210,2.442652,-3,-1,-1,1052,0,-1559
211,2.454324,0,1,1,1048,0,-1560
212,2.465975,1,2,-1,1048,1,-1559
213,2.477612,1,2,-1,1047,1,-1560
214,2.489271,-1,-2,0,1048,0,-1556
215,2.500978,0,1,1,1049,1,-1561
216,2.51259,0,-1,1,1047,4,-1565
217,2.52424,0,1,0,1047,-2,-1561
218,2.535901,2,2,0,1048,0,-1558
219,2.547502,0,1,0,1050,0,-1556
220,2.559051,-1,2,0,1045,-1,-1565
221,2.570638,1,0,-1,1047,0,-1551
222,2.582179,-1,-1,0,1050,0,-1553
223,2.593752,-1,1,0,1050,4,-1566
224,2.605289,-1,0,0,1049,0,-1561
225,2.616808,0,1,0,1050,0,-1559
226,2.628326,1,2,-2,1049,1,-1559
227,2.63991,0,1,0,1048,0,-1563
228,2.651542,2,1,-1,1050,-1,-1557
229,2.663198,0,0,0,1049,0,-1566
230,2.674851,-1,-1,0,1046,3,-1555
231,2.686531,0,2,-1,1048,0,-1561
232,2.698196,-1,1,1,1049,1,-1566
233,2.709884,-1,1,-1,1047,1,-1561
234,2.721562,-1,0,0,1053,1,-1558
235,2.733233,1,0,1,1047,5,-1558
236,2.744899,0,1,0,1048,2,-1557
237,2.756579,2,0,0,1049,-2,-1562
238,2.768156,0,1,1,1046,0,-1559
239,2.779697,1,1,0,1045,0,-1561
240,2.791251,1,3,0,1047,0,-1556
241,2.80281,0,0,-1,1049,0,-1563
242,2.814352,2,1,-1,1047,0,-1563
243,2.825899,0,2,0,1047,1,-1556
244,2.837456,0,0,0,1048,-2,-1554
245,2.849048,-1,1,1,1052,1,-1559
246,2.86074,1,2,1,1048,0,-1557
247,2.872406,0,1,0,1049,0,-1560
248,2.88408,-2,1,0,1046,2,-1560
249,2.895735,0,0,0,1050,1,-1570
250,2.907396,0,0,2,1048,4,-1558
251,2.919059,3,1,-2,1052,3,-1557
252,2.930709,0,0,1,1048,-4,-1564
253,2.942363,-1,1,1,1050,1,-1560
254,2.954019,0,-1,-2,1047,-2,-1557
255,2.965681,2,-1,0,1048,3,-1558
256,2.97736,2,-3,0,1048,-2,-1558
257,2.989013,0,0,0,1047,1,-1560
258,3.000662,1,0,1,1046,-1,-1563
259,3.012335,-1,1,1,1048,-2,-1558
260,3.02398,2,0,0,1048,0,-1569
261,3.035657,-1,0,2,1047,2,-1563
262,3.047326,-1,0,0,1048,0,-1559
263,3.059058,-1,2,0,1053,0,-1560
264,3.070716,1,-1,-1,1051,-1,-1561
265,3.082296,1,1,2,1049,-2,-1559
266,3.093883,-1,1,1,1046,2,-1556
267,3.105443,0,1,0,1046,0,-1561
268,3.117082,0,-1,1,1047,3,-1557
269,3.128664,0,0,0,1049,0,-1558
270,3.140214,1,2,0,1048,0,-1564
271,3.151775,-1,0,2,1042,1,-1558
272,3.163343,-2,0,2,1048,1,-1553
273,3.175022,1,0,0,1050,-1,-1558
274,3.186684,1,1,3,1048,0,-1561
275,3.198338,0,1,2,1047,-3,-1561
276,3.209991,1,-2,1,1046,-2,-1565
277,3.221628,0,0,2,1050,-1,-1559
278,3.233291,-1,0,-1,1046,-1,-1561
279,3.244981,0,-1,1,1047,4,-1561
280,3.256592,0,1,-1,1048,0,-1555
281,3.268251,-1,0,1,1050,-1,-1560
282,3.279919,-1,0,-2,1049,0,-1555
283,3.291483,-1,0,-2,1045,0,-1557
284,3.303041,1,0,1,1049,1,-1563
285,3.314588,1,1,0,1049,2,-1561
286,3.326136,0,0,2,1045,0,-1553
287,3.337693,1,1,0,1050,0,-1558
288,3.34928,0,1,0,1047,0,-1564
289,3.360809,1,1,0,1046,-2,-1561
290,3.37241,-1,0,1,1050,1,-1557
291,3.384038,1,0,-1,1049,0,-1562
292,3.395708,1,2,-1,1048,0,-1561
293,3.407408,1,2,-1,1044,0,-1562
294,3.419071,0,0,0,1049,-4,-1556
295,3.430736,0,0,1,1046,4,-1566
296,3.442415,0,1,-2,1050,0,-1561
297,3.454065,0,1,1,1051,0,-1556
298,3.465749,0,-1,2,1047,0,-1560
299,3.477437,0,0,1,1046,2,-1555
300,3.489102,-1,-1,0,1047,2,-1561
301,3.500686,2,1,-1,1048,-5,-1562
302,3.512259,1,0,1,1048,2,-1563
303,3.523813,1,0,1,1048,2,-1553
304,3.5354,0,2,-1,1048,0,-1553
305,3.546949,1,1,2,1047,-3,-1561
306,3.55852,0,2,1,1051,0,-1565
307,3.570057,1,-1,1,1047,0,-1560
308,3.581608,-1,0,1,1045,0,-1562
309,3.593249,1,1,-1,1047,0,-1562
310,3.604914,1,-1,0,1053,2,-1556
311,3.616589,1,2,0,1049,-2,-1555
312,3.628241,0,0,0,1046,0,-1564
313,3.639886,2,2,-2,1042,-1,-1556
314,3.651539,0,3,3,1048,-2,-1557
315,3.663267,1,1,0,1047,3,-1559
316,3.674962,0,1,-1,1049,1,-1557
317,3.686622,1,0,-1,1045,2,-1560
318,3.698304,1,-1,1,1049,0,-1557
319,3.709958,2,1,1,1052,0,-1561
320,3.72162,1,-1,-1,1044,-1,-1559
321,3.733281,0,1,0,1049,-4,-1555
322,3.744982,1,0,1,1047,-1,-1561
323,3.75663,0,1,0,1051,7,-1558
324,3.768328,0,2,1,1048,1,-1558
325,3.780031,1,-2,1,1043,0,-1556
326,3.791757,0,-1,0,1048,0,-1555
327,3.803461,0,-1,0,1047,-1,-1560
328,3.815028,-1,-1,0,1046,-1,-1559
329,3.826579,0,-1,-1,1048,3,-1563
330,3.838144,2,1,2,1049,0,-1557
331,3.84969,-1,2,0,1045,2,-1556
332,3.861276,-1,1,0,1047,2,-1559
333,3.872807,0,1,0,1039,-2,-1558
334,3.884322,-1,1,0,1049,-2,-1562
335,3.895881,-2,1,0,1049,1,-1561
336,3.907512,0,1,2,1048,0,-1559
337,3.919183,0,0,2,1044,-1,-1560
338,3.930836,0,1,-1,1046,0,-1556
339,3.94248,1,0,-1,1050,-2,-1557
340,3.954128,0,0,-1,1048,0,-1558
341,3.965772,-1,-2,1,1047,-1,-1561
342,3.97743,0,1,-2,1048,0,-1559
343,3.989102,-2,4,-1,1048,-1,-1555
344,4.000751,1,0,0,1046,0,-1565
345,4.012311,0,-1,1,1047,-1,-1558
346,4.023884,-1,0,0,1047,1,-1557
347,4.035425,0,0,1,1047,0,-1561
348,4.046981,-1,0,0,1046,2,-1558
349,4.058533,-1,-1,0,1047,0,-1560
350,4.070078,-2,1,-1,1046,0,-1559
351,4.081643,1,0,0,1047,0,-1560
352,4.093201,2,1,-1,1050,4,-1564
353,4.104802,0,-1,-1,1050,1,-1559
354,4.116521,1,1,0,1049,1,-1558
355,4.128191,0,2,-1,1048,1,-1557
356,4.139869,0,1,0,1048,2,-1569
357,4.15154,3,0,-1,1046,0,-1563
358,4.163197,1,0,1,1046,0,-1564
359,4.174873,1,1,1,1048,1,-1555
360,4.186518,0,0,1,1045,0,-1561
361,4.198181,0,2,0,1048,0,-1561
362,4.209877,-1,-2,-1,1047,0,-1566
363,4.221532,-1,1,-2,1051,0,-1555
364,4.233154,0,1,1,1048,-2,-1562
365,4.244746,1,0,-1,1049,-2,-1563
366,4.256315,-1,-1,1,1048,-4,-1556
367,4.267874,0,-1,-2,1044,-1,-1560
368,4.279429,0,1,1,1049,3,-1566
369,4.290999,0,1,0,1048,1,-1553
370,4.302556,-1,-1,1,1047,0,-1560
371,4.314176,0,0,0,1047,1,-1560
372,4.32583,0,-1,0,1048,0,-1563
373,4.337502,0,1,0,1049,4,-1553
374,4.349162,0,1,0,1049,0,-1554
375,4.360847,0,0,1,1048,3,-1557
376,4.372521,-1,-1,1,1047,0,-1562
377,4.384166,0,0,-1,1046,0,-1559
378,4.395825,-1,2,2,1047,0,-1566
379,4.407482,-1,1,-1,1046,-1,-1562
380,4.419142,0,1,1,1046,1,-1564
381,4.4308,-2,1,0,1051,0,-1563
382,4.442395,0,1,-1,1048,-3,-1563
383,4.45394,-2,2,-1,1050,0,-1565
384,4.465518,0,1,1,1047,0,-1555
385,4.477048,1,-1,-2,1049,3,-1561
386,4.488569,0,2,0,1047,-1,-1557
387,4.500113,0,0,-1,1049,0,-1562
388,4.511685,1,1,1,1048,0,-1565
389,4.523271,2,0,0,1047,0,-1552
390,4.534909,0,0,-1,1046,2,-1559
391,4.546586,-1,0,-2,1049,-2,-1560
392,4.558245,0,0,0,1047,1,-1561
393,4.569919,0,1,-1,1050,1,-1558
394,4.581611,1,-1,3,1048,0,-1561
395,4.593273,1,-1,-1,1049,1,-1561
396,4.604979,1,0,1,1049,-2,-1556
397,4.616591,1,-1,-3,1047,1,-1559
398,4.62825,0,0,0,1049,0,-1553
399,4.639921,-1,2,-1,1049,-1,-1556
400,4.651491,-2,1,2,1050,-4,-1558
401,4.663054,0,1,-1,1049,-1,-1563
402,4.674612,-1,0,1,1045,1,-1561
403,4.686284,0,-1,0,1049,0,-1562
404,4.697878,-1,2,2,1047,-1,-1565
405,4.709441,1,0,1,1042,7,-1556
406,4.721029,0,-1,-2,1046,4,-1563
407,4.732575,0,1,0,1046,1,-1552
408,4.744202,0,-2,0,1048,0,-1560
409,4.755858,-1,2,1,1049,1,-1561
410,4.767515,0,0,0,1047,2,-1562
411,4.779215,1,0,-2,1048,0,-1561
412,4.790864,0,0,-1,1050,0,-1555
413,4.802553,0,2,1,1048,0,-1562
414,4.81424,1,2,2,1048,0,-1560
415,4.825891,-1,2,-1,1049,0,-1561
416,4.837609,2,-1,2,1050,-1,-1560
417,4.849288,-2,0,-2,1052,2,-1559
418,4.860892,1,-1,1,1051,2,-1559
419,4.872457,-1,2,2,1045,2,-1560
420,4.884039,0,0,-1,1051,-1,-1553
421,4.895582,1,-2,-1,1047,4,-1550
422,4.907167,0,0,0,1048,3,-1564
423,4.918906,1,-1,1,1050,4,-1563
424,4.930501,1,3,1,1050,-3,-1561
425,4.942065,1,0,2,1047,3,-1565
426,4.953741,0,0,0,1045,0,-1569
427,4.965428,1,0,1,1049,-2,-1563
428,4.97711,1,0,0,1046,-3,-1554
429,4.988794,0,1,0,1051,2,-1563
430,5.000469,2,0,-1,1050,3,-1562
431,5.01212,1,1,-1,1049,0,-1562
432,5.023794,-1,1,-2,1046,-2,-1559
433,5.035446,-1,0,0,1050,0,-1554
434,5.047112,0,1,1,1046,0,-1559
435,5.058793,1,1,-1,1049,0,-1562
436,5.070384,1,0,2,1045,-4,-1561
437,5.081927,1,1,0,1048,1,-1563
438,5.09352,-1,-1,1,1049,-1,-1557
439,5.105048,0,2,2,1047,1,-1560
440,5.116564,0,0,0,1049,4,-1557
441,5.12811,0,1,1,1048,2,-1556
442,5.139655,-2,-1,1,1046,0,-1561
443,5.151236,1,-1,-1,1048,0,-1558
444,5.162858,-1,-2,0,1048,0,-1563
445,5.174528,-1,3,0,1046,-2,-1563
446,5.186194,-2,-1,-1,1049,0,-1557
447,5.19791,0,0,0,1050,0,-1553
448,5.209603,1,-1,0,1048,0,-1561
449,5.221279,-2,2,0,1046,3,-1566
450,5.232964,-1,1,-1,1050,0,-1560
451,5.244592,3,0,0,1046,6,-1560
452,5.256324,0,-1,-1,1045,-2,-1559
453,5.267988,0,1,1,1049,-1,-1567
454,5.279584,0,-1,1,1047,1,-1563
455,5.291153,1,-1,1,1048,0,-1559
456,5.302713,-1,2,1,1048,5,-1553
457,5.314291,1,-1,0,1049,0,-1561
458,5.325849,-2,-1,0,1045,3,-1560
459,5.337424,-1,-1,-1,1048,2,-1558
460,5.349025,-1,1,0,1053,0,-1557
461,5.360629,-1,0,0,1048,1,-1553
462,5.372255,0,1,-1,1046,1,-1556
463,5.383934,-1,0,1,1043,-2,-1563
464,5.395589,1,0,0,1047,0,-1558
465,5.407243,-1,2,-1,1046,4,-1557
466,5.418927,2,0,0,1045,-1,-1558
467,5.430576,0,2,0,1044,4,-1557
468,5.442234,-1,1,-2,1045,-1,-1560
469,5.453883,0,-3,1,1049,0,-1561
470,5.465568,1,0,-1,1049,2,-1562
471,5.477216,0,0,0,1046,2,-1562
472,5.488805,0,-2,0,1048,0,-1562
473,5.50039,0,2,1,1048,0,-1562
474,5.511937,-1,1,2,1048,0,-1559
475,5.523481,0,0,0,1048,1,-1566
476,5.53503,-1,0,-2,1046,0,-1561
477,5.546573,1,0,0,1046,2,-1558
478,5.558117,-1,1,0,1047,-3,-1554
479,5.569685,1,1,-1,1047,-1,-1562
480,5.581383,0,2,-1,1046,1,-1559
481,5.593086,1,0,-1,1047,0,-1559
482,5.604744,0,0,-1,1052,0,-1562
483,5.616395,0,-1,-2,1048,-1,-1564
484,5.628086,0,2,-3,1047,1,-1561
485,5.639724,0,0,3,1046,1,-1556
486,5.651388,-2,0,-1,1048,2,-1559
487,5.663054,1,0,-1,1046,0,-1564
488,5.674712,1,0,0,1051,5,-1556
489,5.686364,-1,-1,-1,1051,0,-1559
490,5.697941,0,-1,0,1047,-1,-1559
491,5.709629,-1,2,0,1047,-3,-1553
492,5.721198,-1,-1,1,1049,0,-1556
493,5.732786,0,1,-1,1052,3,-1556
494,5.744326,-2,-1,1,1046,0,-1562
495,5.755891,-1,0,1,1046,0,-1562
496,5.767432,1,0,0,1045,1,-1555
497,5.779002,0,0,-1,1047,2,-1560
498,5.790622,1,-1,1,1050,0,-1557
499,5.80229,1,0,1,1047,0,-1561
500,5.813949,0,0,-1,1048,-1,-1563
501,5.825623,0,0,0,1049,1,-1558
502,5.837277,3,0,0,1047,0,-1563
503,5.848968,1,-2,2,1047,0,-1558
504,5.860639,2,1,1,1050,0,-1558
505,5.872331,0,1,0,1047,2,-1562
506,5.883997,1,2,-1,1046,-1,-1564
507,5.895675,1,0,1,1044,3,-1565
508,5.907265,1,-1,-1,1045,0,-1566
509,5.918808,1,-1,1,1050,-5,-1561
510,5.930349,-1,0,1,1046,0,-1552
511,5.941903,-1,2,0,1045,0,-1559
512,5.953467,1,2,1,1048,4,-1556
513,5.965034,0,0,0,1049,3,-1555
514,5.976562,1,0,2,1048,2,-1556
515,5.988116,1,0,1,1050,2,-1558
516,5.999764,0,1,1,1049,3,-1563
517,6.011426,-1,1,1,1053,2,-1560
518,6.023108,0,-1,1,1050,3,-1560
519,6.034777,0,2,0,1050,1,-1561
520,6.046428,1,2,0,1047,0,-1564
521,6.058091,2,-1,2,1049,-4,-1557
522,6.069767,-1,0,2,1051,1,-1552
523,6.081434,1,-1,-1,1048,-4,-1556
524,6.093122,1,-1,-2,1054,1,-1556
525,6.10482,-1,2,-1,1048,3,-1558
526,6.116405,1,-1,-1,1047,0,-1560
527,6.127963,-1,0,-1,1049,-1,-1562
528,6.139513,0,0,-1,1049,-1,-1556
529,6.151048,1,1,0,1046,0,-1563
530,6.162584,0,-1,0,1047,-1,-1560
531,6.174133,-1,1,-1,1047,2,-1553
532,6.185677,-1,1,-1,1049,-3,-1558
533,6.19727,-1,1,1,1047,-1,-1555
534,6.208995,0,2,2,1047,1,-1558
535,6.220712,0,2,1,1051,1,-1555
536,6.232335,-1,0,0,1049,4,-1560
537,6.24399,0,0,0,1047,4,-1566
538,6.255661,0,0,0,1045,-2,-1560
539,6.267326,-1,0,0,1047,0,-1559
540,6.278977,0,0,1,1048,2,-1559
541,6.290654,1,0,2,1048,2,-1560
542,6.302328,1,-2,1,1049,1,-1561
543,6.313985,1,0,-1,1049,1,-1558
544,6.325634,0,0,-1,1047,-1,-1563
545,6.33729,-1,-2,0,1048,0,-1560
546,6.348968,-2,-1,2,1045,-1,-1562
547,6.360596,1,1,-1,1050,3,-1555
548,6.372313,-2,0,-1,1053,2,-1560
549,6.383968,0,-1,-1,1050,2,-1555
550,6.395638,0,0,-1,1047,0,-1563
551,6.407336,1,1,0,1049,1,-1563
552,6.418988,0,0,0,1052,-1,-1561
553,6.430662,0,-1,-1,1050,0,-1555
554,6.44232,0,0,0,1051,-4,-1560
555,6.453975,-1,-1,3,1048,0,-1559
556,6.465634,0,0,2,1047,-1,-1555
557,6.477329,1,1,1,1051,-2,-1558
558,6.488997,-2,1,1,1046,-1,-1556
559,6.500655,0,-1,0,1044,0,-1563
560,6.512364,0,0,0,1044,0,-1555
561,6.524019,1,1,0,1046,1,-1560
562,6.535677,0,2,1,1048,0,-1553
563,6.547335,2,0,1,1050,3,-1568
564,6.558983,0,-1,0,1051,1,-1561
565,6.570637,0,1,1,1050,0,-1560
566,6.582312,1,-4,0,1046,-2,-1564
567,6.593969,2,0,1,1049,-3,-1561
568,6.605639,0,1,0,1046,0,-1558
569,6.617363,-1,0,0,1045,0,-1562
570,6.629067,0,2,-1,1050,4,-1564
571,6.640643,0,-2,0,1052,-2,-1559
572,6.652189,-1,0,-1,1048,1,-1560
573,6.663735,0,-1,0,1050,0,-1564
574,6.67528,1,0,-1,1049,2,-1561
575,6.686826,-1,0,0,1045,0,-1566
576,6.698378,1,0,0,1046,2,-1554
577,6.709927,1,1,-1,1052,1,-1556
578,6.721521,2,0,-2,1049,0,-1556
579,6.733258,0,0,0,1048,0,-1562
580,6.745002,-1,0,0,1047,0,-1564
581,6.756667,-2,-2,-2,1047,-1,-1561
582,6.768354,-1,0,0,1046,0,-1557
583,6.780017,0,0,0,1049,2,-1560
584,6.791675,0,1,0,1045,0,-1553
585,6.803333,2,0,2,1049,-1,-1566
586,6.81499,-1,1,-1,1048,1,-1562
587,6.826655,0,0,1,1049,2,-1559
588,6.838329,0,3,-1,1047,0,-1558
589,6.849891,3,2,-1,1042,0,-1555
590,6.861446,0,-1,2,1047,-1,-1555
591,6.873031,3,0,0,1045,0,-1557
592,6.884565,1,1,0,1045,0,-1560
593,6.896129,-1,0,2,1049,1,-1560
594,6.907683,0,1,-2,1049,5,-1562
595,6.919257,1,0,-1,1046,-1,-1558
596,6.930812,1,2,1,1050,0,-1557
597,6.942467,0,-1,0,1047,-2,-1559
598,6.954121,2,1,-1,1048,1,-1557
599,6.965773,2,2,0,1049,0,-1559
600,6.977438,-1,1,0,1049,-8,-1557
601,6.989098,-2,1,0,1044,0,-1560
602,7.000778,-1,0,0,1049,0,-1556
603,7.012459,2,-1,-2,1049,4,-1563
604,7.024108,0,0,-1,1047,2,-1555
605,7.035794,-1,1,0,1051,2,-1553
606,7.047457,-1,1,-2,1034,0,-1560
607,7.05902,0,0,-1,1046,0,-1560
608,7.070599,0,-1,1,1050,-2,-1560
609,7.082162,-1,0,-1,1046,0,-1562
610,7.093741,0,-1,-1,1050,2,-1561
611,7.105336,-2,1,-1,1049,2,-1564
612,7.116981,1,2,0,1050,0,-1559
613,7.128712,1,-1,1,1049,-4,-1555
614,7.140395,0,0,0,1044,0,-1560
615,7.151997,1,3,2,1050,-1,-1556
616,7.163564,0,1,1,1051,3,-1557
617,7.175141,0,-1,1,1045,1,-1558
618,7.186698,1,-2,2,1049,0,-1562
619,7.198269,0,-1,0,1046,0,-1563
620,7.209815,0,0,1,1046,-2,-1559
621,7.221373,0,0,2,1047,1,-1566
622,7.232949,-1,0,-1,1044,-1,-1563
623,7.244536,-1,0,2,1049,0,-1565
624,7.256234,2,1,-3,1049,0,-1560
625,7.267906,1,2,-1,1050,0,-1562
626,7.279574,0,2,1,1046,-1,-1562
627,7.291224,-1,3,-2,1047,-1,-1561
628,7.302875,1,1,-1,1044,1,-1555
629,7.314554,0,1,-1,1047,1,-1565
630,7.326199,0,0,-2,1049,-2,-1556
631,7.337878,0,0,1,1048,-1,-1554
632,7.349567,-1,1,0,1047,-5,-1557
633,7.361264,1,1,-2,1047,0,-1556
634,7.372816,0,0,1,1049,0,-1560
635,7.384404,1,1,1,1048,0,-1561
636,7.395969,-1,1,-1,1048,2,-1560
637,7.407515,2,-1,3,1051,0,-1562
638,7.419053,3,-1,0,1050,-2,-1561
639,7.430598,-1,1,0,1049,0,-1562
640,7.442147,0,-1,-1,1046,0,-1563
641,7.453707,0,0,0,1046,1,-1559
642,7.465357,1,2,0,1048,1,-1563
643,7.477105,-1,0,-1,1048,-1,-1562
644,7.488781,1,0,-3,1049,0,-1564
645,7.500462,-1,3,2,1046,2,-1562
646,7.512131,1,-1,2,1044,0,-1560
647,7.523782,1,1,1,1050,2,-1554
648,7.535464,0,1,0,1049,0,-1564
649,7.547105,0,1,1,1049,0,-1563
650,7.558765,0,-1,-1,1053,3,-1561
651,7.570441,0,3,0,1048,0,-1560
652,7.582015,1,0,1,1051,0,-1555
653,7.59358,1,-2,1,1047,-1,-1562
654,7.605158,0,2,0,1050,1,-1560
655,7.616714,1,0,0,1048,-1,-1560
656,7.628273,0,0,0,1045,-3,-1558
657,7.639821,-2,-2,1,1045,0,-1563
658,7.651369,0,-1,1,1047,3,-1564
659,7.662932,-1,-1,1,1048,-1,-1558
660,7.674565,0,-1,0,1042,-2,-1557
661,7.686225,0,2,0,1050,0,-1559
662,7.697893,0,1,2,1046,0,-1562
663,7.709563,0,-1,0,1045,2,-1554
664,7.721236,-1,-2,0,1048,0,-1564
665,7.732908,0,1,2,1050,1,-1560
666,7.744582,1,1,0,1047,-4,-1559
667,7.756239,0,1,1,1048,0,-1564
668,7.767939,0,0,-1,1048,1,-1561
669,7.779592,-1,0,-1,1044,1,-1567
670,7.79116,0,1,0,1045,-2,-1563
671,7.802733,-1,0,-1,1045,1,-1561
672,7.814282,-1,1,-2,1048,1,-1558
673,7.825835,0,2,2,1046,0,-1559
674,7.837409,1,-2,3,1045,0,-1564
675,7.848999,1,0,-1,1043,-1,-1560
676,7.860567,0,0,0,1047,0,-1554
677,7.87217,1,1,2,1047,0,-1556
678,7.883879,0,2,2,1052,3,-1557
679,7.895544,0,0,-1,1049,2,-1556
680,7.907196,1,1,0,1048,3,-1559
681,7.918845,-2,2,0,1049,0,-1561
682,7.930505,0,0,1,1049,4,-1562
683,7.942151,-1,1,0,1049,0,-1562
684,7.953806,0,2,-1,1050,0,-1561
685,7.965484,1,0,1,1046,-3,-1556
686,7.977117,0,0,1,1046,3,-1556
687,7.988788,-1,0,-1,1046,0,-1555
688,8.000323,-1,1,-2,1044,-1,-1561
689,8.011885,0,0,0,1048,0,-1553
690,8.023426,0,-1,0,1048,0,-1563
691,8.034979,0,-1,-1,1049,-1,-1551
692,8.046527,0,-1,-2,1051,-1,-1564
693,8.058071,1,2,0,1047,-1,-1556
694,8.069638,1,-1,0,1050,0,-1552
695,8.081233,0,2,-1,1048,0,-1557
696,8.092856,0,1,0,1050,-1,-1553
697,8.104533,1,-1,1,1053,0,-1563
698,8.116192,0,2,0,1045,0,-1560
699,8.127844,0,-1,-1,1048,0,-1562
700,8.139506,0,1,-1,1049,2,-1557
701,8.151171,-1,0,0,1051,0,-1559
702,8.162824,0,0,-2,1045,0,-1558
703,8.174473,0,2,1,1049,-2,-1558
704,8.186159,0,-1,-1,1049,0,-1560
705,8.19782,0,2,3,1047,0,-1558
706,8.209506,1,2,-2,1047,0,-1559
707,8.221227,0,1,-1,1046,-1,-1560
708,8.23285,-2,0,-1,1045,-2,-1561
709,8.244545,1,-1,-2,1048,-2,-1564
710,8.256194,-1,3,-1,1046,0,-1567
711,8.267846,0,2,0,1047,-2,-1558
712,8.279494,1,-1,0,1051,1,-1561
713,8.291213,1,1,-2,1045,0,-1557
714,8.302879,0,-1,1,1042,-1,-1555
715,8.314437,0,5,-2,1049,-3,-1559
716,8.326004,0,2,2,1047,0,-1561
717,8.33753,2,2,1,1045,6,-1556
718,8.34914,0,0,1,1052,0,-1562
719,8.360707,0,2,-1,1044,-2,-1563
720,8.372268,-2,2,1,1047,0,-1561
721,8.383811,1,1,1,1045,0,-1564
722,8.395371,-1,0,-1,1044,4,-1561
723,8.406992,1,2,-1,1049,2,-1560
724,8.418643,-1,2,-2,1049,-3,-1559
725,8.430303,2,2,0,1052,-1,-1554
726,8.441955,-1,1,0,1047,0,-1556
727,8.453617,1,3,1,1050,1,-1560
728,8.465279,-2,1,-1,1046,0,-1559
729,8.476969,0,1,3,1047,5,-1561
730,8.488594,0,0,0,1048,0,-1557
731,8.500279,0,1,-1,1043,-4,-1555
732,8.511944,0,-1,-1,1049,2,-1562
733,8.523504,0,3,0,1051,0,-1562
734,8.535052,1,0,1,1047,3,-1560
735,8.5466,0,1,1,1047,0,-1562
736,8.558147,-1,0,0,1049,1,-1562
737,8.56973,-1,-1,0,1048,0,-1557
738,8.581312,0,0,-2,1046,-2,-1561
739,8.592872,0,0,1,1046,0,-1565
740,8.604455,0,0,1,1048,-1,-1564
741,8.616099,0,-1,0,1047,0,-1554
742,8.627752,0,0,1,1046,-1,-1561
743,8.639442,1,-1,0,1050,0,-1564
744,8.651082,1,1,1,1048,0,-1567
745,8.662731,-1,0,1,1048,0,-1564
746,8.674425,-1,-2,0,1049,-4,-1564
747,8.68607,2,0,0,1049,-2,-1563
748,8.697738,1,2,2,1048,-2,-1562
749,8.709394,0,1,1,1050,1,-1564
750,8.721058,0,1,0,1045,-2,-1558
751,8.732627,-1,-2,-2,1049,0,-1564
752,8.744179,2,1,1,1048,-1,-1559
753,8.755749,0,1,-2,1045,3,-1566
754,8.767298,1,0,0,1046,0,-1559
755,8.77888,1,-1,0,1047,-2,-1561
756,8.790441,-1,-1,0,1046,0,-1560
757,8.802004,-1,1,-2,1048,-1,-1559
758,8.813554,-2,1,1,1047,0,-1562
759,8.825265,0,1,-1,1047,0,-1558
760,8.836961,0,2,-1,1045,0,-1558
761,8.848599,0,0,-2,1046,0,-1564
762,8.860272,0,0,-2,1047,2,-1562
763,8.871935,1,0,1,1043,-4,-1556
764,8.883591,1,3,1,1049,3,-1557
765,8.895253,1,1,0,1049,-2,-1562
766,8.906923,-1,0,0,1044,0,-1562
767,8.918589,0,1,-1,1049,2,-1560
768,8.930264,1,1,1,1049,2,-1559
769,8.941929,-1,0,1,1050,0,-1557
770,8.95364,1,1,2,1050,1,-1558
771,8.965338,1,0,1,1048,2,-1553
772,8.97699,-1,1,-1,1048,-1,-1560
773,8.988667,0,-1,-3,1048,-2,-1553
774,9.000333,-1,3,0,1047,1,-1564
775,9.011975,0,-1,0,1053,2,-1561
776,9.02369,-1,0,-1,1044,1,-1561
777,9.035339,0,1,1,1047,-2,-1556
778,9.046904,-2,1,1,1047,-1,-1555
779,9.058474,1,1,0,1051,2,-1560
780,9.070018,0,2,1,1047,-1,-1557
781,9.081568,0,-1,-1,1049,2,-1557
782,9.093122,-1,-1,0,1047,3,-1562
783,9.104686,-1,0,0,1047,-2,-1557
784,9.116248,1,1,1,1048,0,-1555
785,9.127809,0,1,-1,1047,-1,-1552
786,9.139438,0,-1,1,1051,-1,-1553
787,9.151097,1,0,1,1047,0,-1557
788,9.162764,1,-1,0,1051,0,-1558
789,9.174423,0,0,-1,1046,4,-1560
790,9.186082,0,-1,1,1049,-2,-1568
791,9.197763,-1,1,-1,1045,0,-1555
792,9.209431,2,-1,1,1047,0,-1563
793,9.221098,0,1,-1,1048,2,-1563
794,9.232789,-1,1,0,1050,-5,-1557
795,9.244457,-1,-1,-2,1053,-2,-1561
796,9.256031,0,0,-1,1050,-1,-1555
797,9.267617,0,1,-3,1046,0,-1559
798,9.27916,0,1,1,1049,-1,-1562
799,9.290701,-1,1,0,1048,0,-1565
800,9.302259,0,0,0,1047,0,-1561
801,9.313808,1,-1,-1,1046,1,-1561
802,9.325399,-1,0,0,1048,0,-1559
803,9.336963,-1,0,-1,1048,1,-1563
804,9.348643,0,0,-1,1047,0,-1560
805,9.360347,0,-1,2,1050,0,-1554
806,9.372021,-1,1,-2,1051,1,-1559
807,9.383693,0,1,0,1049,2,-1556
808,9.395335,-1,-1,0,1048,-1,-1560
809,9.40699,-1,-1,1,1047,4,-1563
810,9.418682,1,1,-1,1049,1,-1554
811,9.430321,0,-1,-1,1046,0,-1561
812,9.441988,0,1,0,1048,0,-1561
813,9.453657,-1,3,-1,1047,3,-1561
814,9.46525,-1,0,-1,1050,1,-1563
815,9.476806,1,-2,0,1049,2,-1560
816,9.488364,1,-2,1,1044,-1,-1558
817,9.499921,1,-1,-1,1051,0,-1558
818,9.511465,-1,0,-2,1047,-1,-1562
819,9.523019,1,-1,0,1047,0,-1558
820,9.534613,1,0,-4,1047,-2,-1551
821,9.546171,1,0,2,1048,2,-1556
822,9.557851,1,1,-2,1049,0,-1561
823,9.569516,0,1,0,1050,1,-1561
824,9.581222,-2,0,1,1049,0,-1558
825,9.592851,0,1,2,1049,0,-1558
826,9.604523,1,0,1,1047,0,-1561
827,9.616186,2,0,-1,1050,2,-1556
828,9.627831,1,0,-1,1044,-3,-1560
829,9.639479,-2,-1,-1,1045,0,-1565
830,9.651154,1,0,0,1048,3,-1563
831,9.662724,0,2,0,1047,0,-1561
832,9.674283,1,-1,1,1043,2,-1559
833,9.685863,1,1,0,1049,2,-1559
834,9.697438,0,0,1,1045,0,-1564
835,9.709009,-1,2,1,1048,3,-1559
836,9.720566,2,1,0,1047,-3,-1561
837,9.732131,-1,0,1,1049,0,-1564
838,9.743688,-1,3,0,1051,-1,-1561
839,9.755314,2,1,-1,1051,3,-1556
840,9.766969,2,1,-1,1045,2,-1563
841,9.778638,-1,-1,2,1051,0,-1556
842,9.790296,0,0,0,1047,-1,-1558
843,9.80195,0,1,0,1048,2,-1565
844,9.813644,-2,-1,1,1051,0,-1565
845,9.82534,-2,0,2,1049,1,-1563
846,9.837019,0,1,0,1043,0,-1557
847,9.848718,1,1,2,1044,1,-1559
848,9.860394,1,1,1,1051,0,-1564
849,9.871971,0,-1,0,1046,0,-1559
850,9.883514,1,-1,-1,1047,0,-1555
851,9.895056,-1,1,2,1049,2,-1558
852,9.906607,-1,0,3,1047,1,-1560
853,9.918154,0,0,-3,1052,-1,-1558
854,9.929704,-2,0,0,1050,0,-1557
855,9.941284,1,1,2,1048,6,-1562
856,9.95289,0,0,2,1048,3,-1566
857,9.964575,1,0,-1,1048,0,-1558
858,9.976235,0,-1,0,1049,-4,-1553
859,9.98788,0,-1,-2,1048,0,-1571
860,9.999556,-1,0,0,1048,0,-1560
861,10.011214,0,-1,0,1050,0,-1560
862,10.022859,-1,0,1,1048,0,-1562
863,10.034538,-2,-1,0,1053,1,-1556
864,10.046197,0,2,-1,1045,0,-1562
865,10.057869,1,2,1,1048,7,-1560
866,10.069455,2,0,0,1047,-4,-1564
867,10.081032,0,-1,-2,1047,1,-1559
868,10.092635,2,3,1,1050,0,-1558
869,10.104205,0,1,0,1051,-3,-1561
870,10.115756,-1,2,-3,1047,1,-1558
871,10.127297,0,1,-3,1051,-1,-1561
872,10.138847,1,1,1,1048,2,-1563
873,10.150405,0,-1,2,1044,0,-1560
874,10.162038,-1,1,-1,1044,-4,-1555
875,10.173693,0,0,0,1046,2,-1560
876,10.185385,2,-2,0,1047,2,-1558
877,10.197086,1,-1,0,1049,0,-1560
878,10.208753,1,1,0,1048,-1,-1558
879,10.220453,-1,2,-1,1044,2,-1562
880,10.232092,0,0,0,1048,-2,-1564
881,10.243737,-1,-2,0,1049,0,-1562
882,10.25542,1,1,-1,1044,3,-1554
883,10.267079,1,0,2,1044,1,-1556
884,10.278638,1,0,0,1053,3,-1561
885,10.290185,-2,0,2,1043,0,-1559
886,10.301762,1,1,1,1049,2,-1558
887,10.313289,1,1,2,1049,-1,-1561
888,10.324877,1,0,1,1051,0,-1562
889,10.336437,-1,1,1,1048,-2,-1555
890,10.34798,1,1,0,1049,0,-1556
891,10.359526,1,0,1,1049,-1,-1562
892,10.37117,0,0,1,1047,0,-1556
893,10.38282,2,0,-1,1046,-1,-1557
894,10.394468,0,2,0,1051,0,-1557
895,10.40614,1,1,0,1052,0,-1557
896,10.417798,1,2,1,1046,0,-1568
897,10.429493,1,1,2,1048,-1,-1557
898,10.441173,0,0,0,1047,-2,-1560
899,10.452844,1,0,1,1048,1,-1557
900,10.464531,1,0,-1,1047,3,-1562
901,10.4762,1,1,-1,1047,2,-1566
902,10.487848,1,-1,-1,1047,1,-1559
903,10.499519,-1,-1,-2,1049,0,-1560
904,10.511175,1,0,-1,1046,0,-1560
905,10.522827,1,1,-3,1048,-3,-1556
906,10.534475,1,0,-1,1049,0,-1556
907,10.546143,1,0,1,1045,1,-1561
908,10.557799,0,-1,1,1045,-1,-1561
909,10.569505,1,0,1,1049,4,-1559
910,10.581172,1,2,-1,1044,0,-1557
911,10.592846,-1,2,1,1049,3,-1559
912,10.6045,1,2,0,1049,-1,-1566
913,10.616177,0,1,0,1049,0,-1556
914,10.627825,-1,-1,2,1050,4,-1555
915,10.639473,1,2,0,1055,-1,-1563
916,10.65115,2,1,0,1044,0,-1562
917,10.662796,1,-1,-1,1049,1,-1564
918,10.674513,1,-1,1,1050,3,-1561
919,10.686173,0,-2,1,1045,1,-1560
920,10.697753,0,2,-1,1050,2,-1556
921,10.709288,-1,1,-1,1052,-1,-1563
922,10.720804,-1,1,-1,1051,1,-1558
923,10.732322,0,0,2,1048,0,-1564
924,10.743866,2,0,1,1046,1,-1552
925,10.755411,1,0,-2,1048,1,-1561
926,10.766985,-1,0,0,1048,0,-1559
927,10.778543,0,-1,-1,1050,0,-1565
928,10.790175,-1,1,-1,1048,0,-1562
929,10.80187,1,1,0,1048,0,-1560
930,10.813548,0,0,-1,1044,0,-1562
931,10.825223,0,1,1,1046,-1,-1561
932,10.836904,0,0,-4,1048,0,-1563
933,10.848612,-1,1,2,1047,-1,-1558
934,10.86031,0,1,-1,1051,2,-1555
935,10.871961,1,1,3,1045,0,-1559
936,10.883628,-1,1,0,1047,-1,-1563
937,10.895195,1,1,1,1047,-1,-1556
938,10.906752,-2,1,0,1050,1,-1559
939,10.918318,-1,0,0,1045,1,-1558
940,10.929877,0,1,0,1052,-2,-1557
941,10.941431,-2,1,-2,1044,-2,-1559
942,10.952998,1,0,3,1049,1,-1560
943,10.96457,1,0,1,1047,0,-1555
944,10.976131,1,-1,1,1047,-2,-1558
945,10.987688,0,-1,0,1052,-2,-1563
946,10.999312,2,1,0,1046,0,-1559
947,11.010974,0,2,1,1046,3,-1556
948,11.022674,0,1,1,1049,5,-1560
949,11.034317,1,-2,-2,1047,3,-1558
950,11.045967,0,0,2,1048,3,-1569
951,11.057641,1,1,0,1048,2,-1563
952,11.069342,0,0,1,1050,-1,-1559
953,11.081008,0,-1,2,1052,-5,-1556
954,11.092662,2,-1,-1,1049,-1,-1557
955,11.10425,1,0,-1,1047,0,-1565
956,11.115813,-1,0,-2,1047,4,-1562
957,11.127377,0,1,1,1049,0,-1567
958,11.138921,0,-1,-1,1044,0,-1563
959,11.150468,0,0,0,1047,1,-1565
960,11.162017,-1,0,0,1049,0,-1564
961,11.173566,0,2,2,1047,2,-1565
962,11.185171,-1,0,-1,1048,-2,-1559
963,11.196757,2,-1,1,1044,1,-1557
964,11.208422,-1,1,-1,1048,2,-1563
965,11.22008,1,1,-1,1045,0,-1561
966,11.231724,0,-1,0,1047,0,-1561
967,11.243374,-2,-1,0,1051,-4,-1564
968,11.255046,1,-1,0,1045,1,-1558
969,11.266696,-1,-1,-1,1047,-5,-1564
970,11.278342,1,0,1,1046,1,-1560
971,11.290004,-1,1,2,1044,-2,-1555
972,11.301665,2,0,-2,1064,1,-1559
973,11.313251,0,-1,-1,1052,1,-1557
974,11.324808,1,0,-2,1043,-1,-1558
975,11.336374,0,3,-1,1048,0,-1560
976,11.347932,0,0,0,1046,0,-1561
977,11.359495,1,-2,0,1046,0,-1559
978,11.371044,1,0,1,1048,-1,-1561
979,11.382618,0,1,-4,1045,2,-1555
980,11.394234,0,-1,-1,1045,-3,-1556
981,11.405804,-1,0,0,1050,-2,-1558
982,11.417532,-2,-1,0,1049,1,-1557
983,11.429241,0,-1,0,1047,0,-1558
984,11.44092,-1,1,1,1048,2,-1558
985,11.452582,-1,-3,-1,1049,0,-1564
986,11.464252,-1,2,-1,1047,2,-1557
987,11.475923,0,1,-1,1050,0,-1562
988,11.487576,-1,-2,1,1049,-2,-1559
989,11.499225,0,1,2,1048,2,-1556
990,11.51091,0,-3,-1,1046,3,-1562
991,11.522575,-1,1,-1,1048,3,-1559
992,11.534135,1,0,-1,1051,0,-1558
993,11.545713,0,-1,0,1048,0,-1564
994,11.557285,1,0,0,1055,2,-1567
995,11.568879,1,0,-1,1051,2,-1568
996,11.580462,4,2,1,1049,-1,-1556
997,11.592007,-2,2,0,1052,0,-1553
998,11.603604,0,-1,0,1052,-2,-1564
999,11.615167,2,0,-2,1050,0,-1557
1000,11.626804,1,1,0,1048,-1,-1564
1001,11.638462,0,0,-1,1052,1,-1563
1002,11.65011,-1,-1,1,1049,0,-1560
1003,11.661777,0,1,0,1049,1,-1558
1004,11.673482,0,0,1,1052,0,-1554
1005,11.685146,-1,0,-2,1048,2,-1552
1006,11.696835,0,0,0,1048,-1,-1562
1007,11.708499,-1,-1,1,1046,1,-1554
1008,11.720158,1,0,2,1048,3,-1555
1009,11.731813,0,1,-1,1048,0,-1555
1010,11.743374,-1,1,-1,1048,1,-1559
1011,11.754922,2,1,-1,1046,-1,-1558
1012,11.766485,1,0,-1,1045,0,-1556
1013,11.778033,1,1,1,1046,-2,-1558
1014,11.789582,0,-1,1,1050,0,-1556
1015,11.801134,1,2,0,1051,3,-1552
1016,11.812727,0,1,3,1049,-2,-1557
1017,11.824308,-2,0,0,1050,4,-1568
1018,11.835927,0,2,-2,1049,0,-1556
1019,11.847588,1,2,-1,1050,-1,-1563
1020,11.859247,-1,2,1,1046,-1,-1560
1021,11.870907,1,0,1,1048,2,-1562
1022,11.882564,0,3,1,1048,-1,-1561
1023,11.894241,0,0,-3,1050,0,-1558
1024,11.9059,0,-1,0,1049,-1,-1562
1025,11.917584,-1,-1,0,1047,0,-1561
1026,11.929255,1,0,1,1047,-3,-1561
1027,11.94095,-1,1,1,1043,3,-1556
1028,11.95253,0,0,1,1048,1,-1563
1029,11.964083,1,-1,-1,1050,1,-1558
1030,11.975635,0,3,1,1047,0,-1561
1031,11.987207,2,1,0,1046,1,-1563
1032,11.998759,0,1,0,1047,0,-1555
1033,12.010355,1,1,1,1050,1,-1555
1034,12.021908,2,0,-1,1049,-1,-1565
1035,12.033504,0,0,2,1048,0,-1559
1036,12.04511,0,-3,2,1047,1,-1556
1037,12.056829,-1,1,2,1046,-1,-1564
1038,12.068496,1,0,-1,1052,0,-1556
1039,12.080172,0,-1,1,1047,0,-1564
1040,12.09182,1,0,0,1045,0,-1564
1041,12.103473,0,0,-1,1047,0,-1557
1042,12.115129,0,1,-2,1052,0,-1562
1043,12.126804,1,-2,-1,1051,1,-1563
1044,12.138481,0,-1,1,1048,1,-1557
1045,12.150148,0,0,0,1048,-1,-1558
1046,12.16171,1,1,1,1042,-1,-1559
1047,12.173284,1,0,2,1041,0,-1560
1048,12.184876,-1,1,0,1043,0,-1552
1049,12.196441,0,0,0,1049,-3,-1558
1050,12.207993,-1,-1,-1,1049,0,-1559
1051,12.219533,0,-1,2,1046,2,-1561
1052,12.231073,0,0,-1,1052,-1,-1558
1053,12.242631,0,0,-2,1048,0,-1562
1054,12.254284,2,-1,-1,1049,0,-1557
1055,12.265939,-1,1,-1,1050,2,-1558
1056,12.277636,0,1,1,1046,0,-1558
1057,12.289359,0,2,-1,1049,0,-1561
1058,12.301042,1,1,1,1046,1,-1563
1059,12.312721,0,-1,0,1044,0,-1557
1060,12.324392,2,1,0,1047,0,-1553
1061,12.336062,-1,0,0,1049,-1,-1566
1062,12.347728,1,-2,2,1048,3,-1560
1063,12.359381,1,-1,2,1046,-2,-1567
1064,12.37096,1,1,1,1044,-2,-1558
1065,12.382508,-1,-1,0,1045,0,-1554
1066,12.394053,1,0,2,1049,-3,-1561
1067,12.405611,2,1,1,1048,4,-1562
1068,12.417172,0,1,-1,1048,0,-1554
1069,12.428742,0,2,1,1049,1,-1558
1070,12.440327,1,0,1,1045,0,-1559
1071,12.45189,0,1,-2,1048,-1,-1560
1072,12.46354,0,3,0,1044,-1,-1555
1073,12.475206,0,0,0,1046,1,-1564
1074,12.486856,-1,2,0,1050,1,-1558
1075,12.498541,1,-1,1,1049,0,-1558
1076,12.51023,2,0,0,1048,4,-1558
1077,12.52188,1,0,1,1043,0,-1559
1078,12.533556,-1,-1,1,1051,1,-1558
1079,12.545244,1,0,0,1051,0,-1562
1080,12.556928,0,0,0,1047,0,-1556
1081,12.568566,1,1,0,1046,0,-1559
1082,12.580141,1,-1,-1,1051,0,-1558
1083,12.591711,1,1,-1,1051,0,-1559
1084,12.60325,-2,2,0,1050,3,-1558
1085,12.614789,-1,1,1,1048,0,-1559
1086,12.626361,1,0,-1,1048,0,-1552
1087,12.6379,-1,-1,0,1047,-1,-1563
1088,12.649457,0,2,1,1047,-3,-1561
1089,12.661067,2,1,0,1047,3,-1560
1090,12.672754,1,-2,0,1048,1,-1556
1091,12.684414,0,-1,0,1049,-2,-1560
1092,12.696084,0,-1,1,1049,0,-1560
1093,12.707725,0,1,1,1048,0,-1562
1094,12.719369,0,1,2,1044,3,-1554
1095,12.731039,2,1,1,1051,2,-1556
1096,12.742683,2,2,0,1046,3,-1556
1097,12.754326,2,3,-1,1047,2,-1559
1098,12.76599,0,0,1,1051,-2,-1559
1099,12.777648,-1,0,2,1047,0,-1562
1100,12.789231,2,0,1,1047,-1,-1557
1101,12.800807,1,2,-1,1046,-1,-1559
1102,12.812385,2,1,1,1047,1,-1562
1103,12.824117,0,8,0,1050,-3,-1552
1104,12.837065,1,7,0,1047,-3,-1560
1105,12.849119,1,0,3,1051,3,-1557
1106,12.860826,1,2,2,1053,0,-1556
1107,12.872392,1,0,1,1049,1,-1568
1108,12.883893,0,0,1,1048,0,-1560
1109,12.895367,-2,2,0,1044,0,-1561
1110,12.906853,1,0,0,1048,2,-1561
1111,12.918353,0,0,-2,1046,4,-1562
1112,12.929827,-1,-1,-2,1048,-2,-1562
1113,12.941314,0,2,0,1049,0,-1554
1114,12.952825,0,1,2,1046,0,-1560
1115,12.964314,1,2,0,1048,-2,-1567
1116,12.975849,0,1,1,1049,-1,-1564
1117,12.987475,0,0,2,1048,-2,-1557
1118,12.999167,1,0,1,1048,0,-1557
1119,13.010828,-1,0,-2,1046,-2,-1562
1120,13.022497,-1,1,1,1049,-1,-1559
1121,13.034191,1,-1,-1,1052,0,-1561
1122,13.045894,1,0,2,1046,-5,-1560
1123,13.057555,1,-1,2,1049,-2,-1560
1124,13.069253,1,1,0,1046,0,-1561
1125,13.08096,1,1,2,1049,-3,-1555
1126,13.092645,-1,1,2,1049,-1,-1563
1127,13.104335,0,2,-1,1051,0,-1560
1128,13.116051,-1,0,0,1049,0,-1563
1129,13.127772,0,0,-1,1049,0,-1554
1130,13.139436,0,2,1,1047,0,-1557
1131,13.151095,0,-2,0,1048,-1,-1560
1132,13.16277,-1,0,1,1050,0,-1559
1133,13.174414,-1,-1,-1,1045,1,-1559
1134,13.186082,1,0,1,1053,-2,-1558
1135,13.1978,0,2,-1,1048,0,-1561
1136,13.20937,-1,0,0,1047,0,-1562
1137,13.220963,1,1,-1,1048,0,-1553
1138,13.23258,0,-1,1,1049,0,-1561
1139,13.244156,-1,1,0,1052,-1,-1567
1140,13.255735,1,0,2,1045,-1,-1555
1141,13.267296,1,0,-1,1047,0,-1559
1142,13.27887,1,1,1,1048,0,-1558
1143,13.29043,0,2,0,1046,0,-1560
1144,13.302093,-2,2,3,1043,0,-1558
1145,13.313775,0,2,-1,1048,2,-1559
1146,13.325442,0,2,1,1047,-1,-1563
1147,13.337132,0,2,-2,1045,1,-1553
1148,13.348817,0,0,-2,1042,0,-1559
1149,13.360486,1,0,2,1048,-1,-1565
1150,13.372166,0,-1,0,1048,2,-1561
1151,13.383812,1,-1,2,1047,-3,-1558
1152,13.395475,1,0,2,1045,0,-1553
1153,13.40712,0,-1,0,1049,0,-1557
1154,13.418674,-1,0,-1,1053,0,-1560
1155,13.43025,1,-1,1,1045,1,-1563
1156,13.441846,-2,-1,1,1048,-2,-1562
1157,13.453432,-1,-2,-1,1048,0,-1562
1158,13.464992,2,-1,1,1045,-1,-1562
1159,13.476569,0,-1,2,1048,3,-1557
1160,13.488149,0,2,-1,1053,0,-1555
1161,13.499789,2,-1,-1,1047,0,-1562
1162,13.51145,0,-1,-1,1043,1,-1563
1163,13.523096,-1,0,1,1050,-2,-1561
1164,13.534776,0,1,-1,1052,-2,-1565
1165,13.546434,3,0,0,1051,-1,-1553
1166,13.558078,1,-1,1,1052,-5,-1564
1167,13.569751,0,-1,-1,1046,5,-1557
1168,13.581455,1,0,0,1047,2,-1562
1169,13.593183,0,1,0,1046,0,-1558
1170,13.604748,2,0,1,1050,0,-1561
1171,13.616322,1,0,0,1048,0,-1568
1172,13.627875,1,2,-1,1043,3,-1564
1173,13.639445,0,0,-1,1050,1,-1561
1174,13.650992,1,-1,1,1047,0,-1559
1175,13.662531,1,-1,1,1049,2,-1559
1176,13.674073,0,-1,-2,1047,-4,-1559
1177,13.685646,0,0,0,1047,0,-1553
1178,13.697226,-1,1,0,1045,-2,-1559
1179,13.708869,1,1,2,1045,-1,-1559
1180,13.720574,-1,2,1,1049,0,-1565
1181,13.732258,-1,-1,2,1045,-1,-1562
1182,13.743928,1,1,1,1048,0,-1555
1183,13.755585,-1,0,0,1053,3,-1558
1184,13.767256,1,1,-1,1046,0,-1562
1185,13.77895,-1,1,-1,1045,1,-1559
1186,13.790623,-1,0,-1,1047,0,-1560
1187,13.802299,1,1,1,1049,2,-1555
1188,13.814015,0,-1,-1,1047,-3,-1557
1189,13.825586,-1,-2,0,1048,1,-1557
1190,13.837165,-1,-2,0,1051,0,-1558
1191,13.848737,-2,-3,-1,1048,1,-1562
1192,13.860306,-2,-2,-1,1047,0,-1556
1193,13.871861,0,-1,2,1047,3,-1564
1194,13.883406,0,1,-1,1049,-1,-1562
1195,13.894961,0,-2,1,1045,-2,-1558
1196,13.906542,3,0,1,1048,-1,-1565
1197,13.91817,0,0,1,1047,3,-1560
1198,13.929879,0,1,-3,1048,1,-1559
1199,13.941545,0,0,-2,1051,-2,-1558
1200,13.953292,0,-1,1,1045,0,-1561
1201,13.964999,-1,1,1,1046,-3,-1556
1202,13.97671,0,2,2,1047,2,-1560
1203,13.988378,-2,-1,-2,1048,-1,-1557
1204,14.000049,1,-1,2,1051,1,-1560
1205,14.011725,0,3,0,1046,0,-1557
1206,14.02339,0,2,0,1047,0,-1556
1207,14.03505,1,-1,1,1051,0,-1553
1208,14.046709,-2,0,-2,1046,0,-1563
1209,14.058363,0,0,-1,1044,0,-1567
1210,14.070017,1,-1,-2,1050,0,-1561
1211,14.081697,3,0,-2,1048,0,-1562
1212,14.093363,-1,-1,-1,1051,0,-1549
1213,14.105042,0,1,0,1048,1,-1563
1214,14.116792,-1,1,1,1049,0,-1555
1215,14.12848,1,2,0,1047,-1,-1565
1216,14.140027,1,0,0,1049,1,-1565
1217,14.151603,2,0,1,1048,0,-1555
1218,14.163155,0,2,0,1051,0,-1557
1219,14.174751,2,0,-1,1046,2,-1558
1220,14.186298,2,0,-1,1048,2,-1553
1221,14.197845,0,0,-2,1050,0,-1557
1222,14.209413,0,1,-1,1049,-3,-1565
1223,14.220989,2,-1,0,1046,-1,-1561
1224,14.232701,1,-1,0,1047,-1,-1556
1225,14.244338,1,0,2,1049,1,-1561
1226,14.256011,2,0,0,1046,-1,-1566
1227,14.267683,0,-1,-1,1047,1,-1566
1228,14.279327,-1,-2,1,1048,-3,-1560
1229,14.290979,-1,0,1,1047,1,-1560
1230,14.302663,2,-2,1,1051,0,-1562
1231,14.314304,2,0,1,1045,-3,-1560
1232,14.325972,0,0,2,1049,-1,-1561
1233,14.337605,2,2,0,1051,0,-1561
1234,14.349177,0,3,0,1051,0,-1561
1235,14.360744,-2,0,0,1047,0,-1564
1236,14.37231,0,-1,-1,1050,-1,-1559
1237,14.383864,1,1,0,1047,0,-1558
1238,14.39543,0,-3,-2,1049,0,-1561
1239,14.406982,-1,-1,-1,1043,1,-1560
1240,14.418525,0,-1,-2,1047,0,-1560
1241,14.430076,2,0,0,1046,-1,-1563
1242,14.441733,0,-2,-2,1045,0,-1560
1243,14.453362,1,2,0,1048,2,-1554
1244,14.465043,-1,0,1,1048,0,-1559
1245,14.476743,-1,0,-1,1047,-1,-1564
1246,14.488404,0,2,-1,1043,-1,-1555
1247,14.500062,2,-1,-1,1046,0,-1558
1248,14.511779,1,-1,1,1045,0,-1557
1249,14.523434,0,2,0,1046,0,-1554
1250,14.53511,1,0,0,1052,0,-1557
1251,14.546801,0,-2,0,1046,1,-1558
1252,14.558373,1,-1,-1,1046,0,-1559
1253,14.569954,0,-1,-2,1047,0,-1558
1254,14.581524,1,-1,0,1050,-1,-1558
1255,14.593106,0,0,2,1046,1,-1561
1256,14.604674,1,3,1,1046,2,-1558
1257,14.616231,-1,1,-2,1046,2,-1563
1258,14.627777,1,2,0,1047,0,-1557
1259,14.639371,-1,0,-2,1047,-2,-1559
1260,14.651015,-1,-1,0,1053,-1,-1562
1261,14.662673,0,-2,1,1051,0,-1559
1262,14.674332,0,0,-1,1046,-2,-1559
1263,14.685997,-1,-1,-1,1049,1,-1562
1264,14.697635,1,1,0,1051,0,-1560
1265,14.709325,0,0,0,1044,0,-1550
1266,14.720993,1,0,-1,1047,0,-1558
1267,14.732647,1,0,1,1042,0,-1559
1268,14.744328,1,-1,-2,1045,-2,-1565
1269,14.756003,-1,0,-1,1050,-4,-1553
1270,14.767596,0,1,0,1043,-4,-1558
1271,14.779138,0,0,1,1046,-2,-1558
1272,14.790686,1,0,1,1046,-3,-1564
1273,14.802247,1,1,2,1047,0,-1561
1274,14.813794,1,0,1,1048,-3,-1567
1275,14.825345,0,2,-1,1045,-2,-1558
1276,14.836919,-2,1,0,1049,4,-1551
1277,14.848498,1,1,1,1044,0,-1553
1278,14.860192,0,-2,0,1048,3,-1560
1279,14.871855,1,1,-1,1045,0,-1556
1280,14.883523,0,1,-1,1047,-1,-1559
1281,14.895172,1,0,2,1044,0,-1554
1282,14.906823,0,1,0,1049,0,-1559
1283,14.918492,-1,1,0,1047,0,-1564
1284,14.93016,-1,0,-1,1045,0,-1565
1285,14.941815,-2,2,-1,1049,3,-1558
1286,14.953491,1,0,0,1050,0,-1556
1287,14.965169,0,1,0,1048,-4,-1559
1288,14.976741,0,-1,0,1048,-1,-1563
1289,14.988316,0,0,0,1050,2,-1562
1290,14.999873,0,3,1,1049,1,-1556
1291,15.011439,-1,1,2,1046,-1,-1563
1292,15.022988,1,1,-1,1051,-3,-1559
1293,15.034564,-1,1,1,1050,0,-1560
1294,15.04613,1,0,0,1046,0,-1557
1295,15.057719,-1,0,3,1047,0,-1565
1296,15.069357,0,0,-1,1048,1,-1560
1297,15.081037,2,-1,1,1048,0,-1556
1298,15.092713,-1,1,0,1048,0,-1559
1299,15.104404,-1,-1,0,1049,0,-1560
1300,15.116055,0,2,1,1046,0,-1564
1301,15.127743,1,-1,1,1045,0,-1561
1302,15.139442,0,-1,-3,1048,-1,-1563
1303,15.15115,-1,0,-2,1048,-1,-1563
1304,15.162861,0,-1,2,1042,0,-1559
1305,15.174431,0,1,1,1047,1,-1565
1306,15.185998,0,3,0,1050,0,-1552
1307,15.197537,0,2,0,1048,1,-1562
1308,15.209115,0,1,0,1046,0,-1561
1309,15.22069,2,-1,1,1051,0,-1557
1310,15.232248,0,0,0,1051,0,-1561
1311,15.243792,0,2,1,1048,-3,-1562
1312,15.255379,0,-1,0,1047,3,-1557
1313,15.266966,1,2,-1,1045,0,-1560
1314,15.278675,2,0,1,1048,1,-1559
1315,15.290363,0,1,-1,1049,-1,-1557
1316,15.302042,0,1,2,1041,4,-1557
1317,15.313705,0,3,0,1050,0,-1562
1318,15.325368,1,1,-1,1042,0,-1558
1319,15.337043,0,-1,0,1052,1,-1557
1320,15.348728,0,0,-1,1045,-1,-1559
1321,15.36039,0,1,0,1046,0,-1564
1322,15.372069,1,1,1,1051,0,-1559
1323,15.383737,1,1,1,1049,1,-1562
1324,15.395289,1,1,2,1048,-2,-1561
1325,15.406845,-2,2,1,1050,2,-1563
1326,15.418399,1,-2,0,1046,-2,-1555
1327,15.429943,0,4,0,1053,0,-1563
1328,15.441514,-1,0,0,1049,5,-1562
1329,15.453046,0,0,0,1050,0,-1563
1330,15.464603,1,-1,1,1048,0,-1556
1331,15.476157,-2,3,-1,1049,0,-1560
1332,15.487778,2,0,0,1047,2,-1556
1333,15.499433,-2,0,1,1049,3,-1560
1334,15.511106,2,0,0,1044,2,-1565
1335,15.522782,1,1,1,1047,-4,-1556
1336,15.53444,-1,0,0,1046,0,-1565
1337,15.546137,1,0,0,1049,1,-1563
1338,15.557793,1,2,0,1048,-1,-1562
1339,15.569475,3,-1,-1,1051,2,-1564
1340,15.581191,-1,1,0,1047,-1,-1567
1341,15.592855,-1,0,0,1048,-1,-1559
1342,15.604446,0,0,0,1047,3,-1554
1343,15.616002,1,1,-1,1045,0,-1560
1344,15.627631,0,2,-1,1046,-1,-1560
1345,15.639222,1,2,1,1047,-4,-1567
1346,15.650769,1,0,1,1045,0,-1557
1347,15.662337,0,0,0,1048,2,-1563
1348,15.673901,1,1,-1,1052,0,-1567
1349,15.685477,-1,-1,1,1044,1,-1559
1350,15.697112,0,0,-2,1042,0,-1562
1351,15.708786,0,1,1,1050,1,-1560
1352,15.720464,1,0,0,1048,0,-1560
1353,15.732142,0,1,-1,1048,0,-1556
1354,15.743789,1,1,1,1047,0,-1560
1355,15.755445,1,-1,0,1044,2,-1551
1356,15.767123,0,1,-1,1047,-2,-1564
1357,15.778783,0,-1,1,1045,-1,-1559
1358,15.790435,0,-1,0,1050,0,-1562
1359,15.802062,0,1,0,1046,-1,-1555
1360,15.813615,0,1,0,1048,0,-1555
1361,15.825189,0,0,-1,1047,2,-1561
1362,15.836745,-1,1,1,1050,0,-1555
1363,15.848324,0,-2,-1,1042,0,-1554
1364,15.859872,0,-2,-1,1048,0,-1565
1365,15.871422,0,0,-1,1050,0,-1563
1366,15.882982,0,-1,-1,1051,0,-1557
1367,15.894535,1,1,-1,1051,2,-1580
1368,15.906156,1,2,2,1045,1,-1564
1369,15.917811,1,0,-1,1045,2,-1555
1370,15.929491,2,2,-1,1048,0,-1564
1371,15.941183,0,-1,0,1051,0,-1561
1372,15.952855,0,-1,0,1050,2,-1564
1373,15.964521,1,0,-1,1051,0,-1563
1374,15.976177,0,1,0,1051,3,-1558
1375,15.987831,1,0,0,1046,0,-1561
1376,15.99953,-1,2,1,1048,-1,-1557
1377,16.011191,1,0,0,1047,0,-1561
1378,16.022766,0,2,-1,1048,-1,-1557
1379,16.034385,0,2,0,1046,0,-1561
1380,16.045963,-1,-1,0,1052,-2,-1560
1381,16.05752,1,2,-1,1050,-4,-1562
1382,16.069042,1,-1,1,1048,1,-1563
1383,16.080566,0,1,-1,1045,-1,-1561
1384,16.092111,2,1,-2,1045,-1,-1555
1385,16.103663,0,-1,1,1050,-1,-1560
1386,16.115286,0,0,-1,1050,-4,-1561
1387,16.126944,0,2,2,1043,1,-1554
1388,16.138613,0,1,-1,1048,2,-1565
1389,16.150261,1,2,-1,1048,0,-1561
1390,16.161924,2,-2,0,1045,1,-1559
1391,16.173631,-2,-1,1,1049,0,-1557
1392,16.185294,0,2,-1,1050,2,-1561
1393,16.196971,0,-2,2,1048,4,-1559
1394,16.208604,0,-1,2,1047,-2,-1556
1395,16.220272,1,3,0,1049,0,-1555
1396,16.231858,0,1,-1,1047,-3,-1560
1397,16.243419,0,-1,-2,1047,-3,-1564
1398,16.254984,3,1,0,1048,-3,-1559
1399,16.266529,0,0,0,1050,-2,-1563
1400,16.278076,-1,1,1,1048,1,-1569
1401,16.289648,1,0,0,1049,0,-1561
1402,16.301224,0,0,1,1046,0,-1563
1403,16.312814,2,0,3,1051,0,-1556
1404,16.32451,0,1,0,1047,0,-1559
1405,16.336182,2,1,-1,1046,0,-1558
1406,16.34783,1,-1,-1,1048,0,-1556
1407,16.359488,-1,0,0,1043,-2,-1566
1408,16.371186,-1,-1,-1,1048,-1,-1559
1409,16.382836,0,0,0,1051,-1,-1560
1410,16.394516,1,0,1,1050,4,-1554
1411,16.406192,0,0,-2,1050,2,-1557
1412,16.417906,0,0,0,1046,0,-1555
1413,16.429554,0,1,0,1045,0,-1560
1414,16.441128,0,0,-1,1048,0,-1557
1415,16.452718,0,0,-1,1050,1,-1556
1416,16.464282,1,-1,0,1050,-1,-1561
1417,16.475849,0,3,2,1047,2,-1556
1418,16.487398,0,1,2,1049,-1,-1563
1419,16.498974,-1,0,0,1049,3,-1554
1420,16.510514,3,1,0,1045,-2,-1561
1421,16.522063,-1,0,1,1045,0,-1557
1422,16.533692,1,-1,-2,1046,0,-1560
1423,16.545365,-2,0,-1,1043,0,-1561
1424,16.557038,1,-1,0,1050,1,-1555
1425,16.568721,0,2,-1,1050,-1,-1561
1426,16.580376,-1,2,-1,1044,-3,-1562
1427,16.592039,0,1,1,1049,2,-1559
1428,16.603696,1,1,1,1043,-3,-1560
1429,16.61534,-1,1,-2,1047,0,-1563
1430,16.627034,1,1,-1,1051,-2,-1561
1431,16.638693,-1,2,0,1049,0,-1556
1432,16.650252,1,0,-1,1048,1,-1562
1433,16.66181,0,0,-1,1048,2,-1558
1434,16.673367,1,0,0,1049,0,-1567
1435,16.684965,0,-2,2,1049,1,-1561
1436,16.696544,-2,1,0,1045,0,-1557
1437,16.708111,-1,1,-2,1045,-3,-1559
1438,16.719697,1,-1,2,1046,0,-1560
1439,16.731259,0,1,0,1049,0,-1557
1440,16.742913,0,0,-2,1047,0,-1560
1441,16.754575,0,2,0,1048,0,-1562
1442,16.766237,0,0,-1,1044,-3,-1552
1443,16.777912,1,-2,0,1049,0,-1562
1444,16.789614,-1,0,0,1048,-1,-1562
1445,16.801293,1,1,-2,1046,0,-1557
1446,16.812987,1,0,4,1050,0,-1558
1447,16.824659,-1,-2,1,1049,-2,-1561
1448,16.836343,1,0,-2,1045,1,-1558
1449,16.848011,1,-1,0,1045,-2,-1558
1450,16.85959,0,0,-1,1048,3,-1562
1451,16.871133,1,1,0,1047,0,-1558
1452,16.882676,1,1,1,1049,5,-1555
1453,16.894249,-1,2,-1,1047,0,-1564
1454,16.905797,-2,0,0,1050,0,-1563
1455,16.917346,2,-1,-1,1050,0,-1560
1456,16.928919,1,-1,1,1049,0,-1559
1457,16.940506,1,0,1,1049,2,-1561
1458,16.952154,1,1,0,1045,2,-1558
1459,16.963822,0,0,-1,1046,0,-1561
1460,16.975528,1,0,1,1051,-1,-1559
1461,16.987183,2,1,-1,1050,-2,-1557
1462,16.998833,1,1,-1,1050,1,-1558
1463,17.010508,0,0,0,1047,0,-1555
1464,17.022156,-1,0,2,1047,-2,-1558
1465,17.033807,0,1,-1,1048,0,-1557
1466,17.045524,1,2,1,1046,0,-1557
1467,17.057204,1,1,0,1050,-1,-1558
1468,17.068798,0,1,0,1049,-1,-1561
1469,17.08037,0,0,1,1049,0,-1560
1470,17.091941,1,0,-1,1049,0,-1559
1471,17.103482,0,-1,0,1043,2,-1560
1472,17.115053,-1,2,-1,1043,-1,-1561
1473,17.126605,0,-2,0,1052,-2,-1560
1474,17.138163,-1,1,-1,1043,-2,-1567
1475,17.149726,0,-1,2,1050,0,-1555
1476,17.161432,-1,1,2,1049,-2,-1557
1477,17.173126,0,1,0,1050,-1,-1557
1478,17.184777,1,-1,1,1048,0,-1554
1479,17.196457,-1,0,0,1052,-1,-1561
1480,17.208135,-1,1,1,1047,1,-1557
1481,17.219785,-1,-1,1,1048,-1,-1559
1482,17.231442,0,-1,0,1050,0,-1557
1483,17.243086,2,1,1,1045,-1,-1555
1484,17.254766,-1,2,1,1049,2,-1562
1485,17.266368,0,0,-2,1046,0,-1561
1486,17.277917,-2,0,-1,1044,0,-1556
1487,17.289466,0,2,-1,1048,2,-1552
1488,17.301047,0,0,0,1049,0,-1562
1489,17.312615,0,1,2,1046,2,-1562
1490,17.324176,-2,0,0,1048,0,-1557
1491,17.335727,1,-2,0,1043,2,-1561
1492,17.347269,0,1,-1,1049,1,-1566
1493,17.358831,2,0,1,1051,-1,-1560
1494,17.370452,0,0,-1,1048,-1,-1555
1495,17.382102,2,0,-1,1047,0,-1562
1496,17.393765,0,0,0,1053,0,-1561
1497,17.405438,-1,0,-1,1048,1,-1562
1498,17.417103,0,0,0,1048,0,-1554
1499,17.428783,0,0,0,1048,0,-1566
1500,17.440458,1,-1,0,1049,-2,-1565
1501,17.452106,0,0,0,1046,-3,-1561
1502,17.463774,0,2,1,1049,0,-1556
1503,17.475456,1,1,0,1047,0,-1560
1504,17.487021,1,3,3,1045,-1,-1553
1505,17.498578,-3,2,0,1049,-3,-1559
1506,17.510151,-1,0,-1,1049,-4,-1561
1507,17.521726,-1,-1,1,1052,0,-1557
1508,17.533294,1,1,0,1050,0,-1561
1509,17.544852,0,0,1,1049,3,-1554
1510,17.556396,0,-2,0,1050,-2,-1557
1511,17.567956,1,0,-1,1047,0,-1557
1512,17.579577,0,0,1,1052,-2,-1553
1513,17.591226,1,0,1,1046,1,-1560
1514,17.602882,-1,1,-1,1050,0,-1558
1515,17.614535,0,0,0,1053,0,-1560
1516,17.626181,0,0,2,1048,-3,-1563
1517,17.637878,0,-1,1,1045,-2,-1559
1518,17.649542,-1,-1,0,1049,0,-1559
1519,17.661214,-1,0,0,1046,0,-1559
1520,17.672865,1,1,-1,1046,2,-1563
1521,17.684521,0,1,-2,1049,-1,-1560
1522,17.696083,-1,-1,0,1048,3,-1565
1523,17.707635,-2,3,-1,1049,0,-1557
1524,17.719198,0,0,-1,1049,0,-1554
1525,17.730748,0,3,1,1055,-3,-1560
1526,17.742292,1,0,1,1047,0,-1563
1527,17.753842,1,-1,0,1049,0,-1563
1528,17.765412,-1,1,0,1048,0,-1552
1529,17.776988,3,0,-1,1045,3,-1566
1530,17.788685,0,1,1,1049,0,-1562
1531,17.800336,-1,0,0,1049,0,-1560
1532,17.81199,-2,1,-1,1046,0,-1559
1533,17.82365,-1,2,0,1045,0,-1562
1534,17.835306,0,0,0,1050,2,-1554
1535,17.846976,0,1,0,1048,0,-1560
1536,17.858638,1,0,-1,1042,0,-1558
1537,17.870293,0,1,3,1049,-1,-1561
1538,17.881966,2,0,-1,1047,0,-1557
1539,17.893629,0,1,1,1049,0,-1559
1540,17.905298,0,0,1,1046,0,-1560
1541,17.916969,1,0,-2,1052,-2,-1562
1542,17.928594,1,0,0,1048,0,-1559
1543,17.940262,-1,-1,0,1047,0,-1563
1544,17.951912,0,0,0,1048,0,-1556
1545,17.963561,0,-1,1,1043,0,-1553
1546,17.975228,1,0,-1,1045,-1,-1559
1547,17.986901,-1,-2,-1,1045,1,-1562
1548,17.998685,0,0,1,1049,-3,-1561
1549,18.010355,1,0,2,1048,-2,-1553
1550,18.022026,1,0,0,1047,1,-1561
1551,18.033693,-1,1,1,1048,-1,-1562
1552,18.045359,3,0,-1,1050,1,-1563
1553,18.057034,0,-1,0,1045,1,-1561
1554,18.068718,-2,2,0,1047,0,-1563
1555,18.080379,2,1,-1,1050,6,-1559
1556,18.09206,0,0,3,1047,-1,-1561
1557,18.103727,0,1,0,1047,-3,-1560
1558,18.115286,1,-1,1,1047,-2,-1556
1559,18.126842,-1,1,-1,1045,3,-1557
1560,18.138397,0,-2,0,1047,0,-1561
1561,18.149969,0,1,0,1045,0,-1554
1562,18.161534,-2,0,-2,1047,-4,-1560
1563,18.173099,-1,2,-1,1050,0,-1564
1564,18.184643,-2,0,-1,1047,-3,-1566
1565,18.19621,1,0,1,1047,1,-1558
1566,18.207828,3,1,0,1046,1,-1567
1567,18.219503,-1,3,1,1047,0,-1559
1568,18.231158,0,-2,1,1046,0,-1561
1569,18.242811,1,-3,1,1045,-1,-1559
1570,18.254496,1,0,2,1048,-3,-1554
1571,18.266148,0,2,0,1048,1,-1558
1572,18.277803,1,2,0,1048,1,-1556
1573,18.289505,2,0,0,1051,-2,-1563
1574,18.301181,0,-1,2,1047,-2,-1553
1575,18.312835,0,-2,-2,1047,0,-1563
1576,18.324395,-1,1,1,1047,0,-1556
1577,18.338005,1,-1,1,1049,-1,-1563
1578,18.349602,0,-1,1,1047,-1,-1565
1579,18.361187,0,0,-1,1047,-2,-1560
1580,18.372741,2,2,1,1045,7,-1556
1581,18.384329,0,0,2,1049,0,-1553
1582,18.395878,0,2,-1,1047,-2,-1560
1583,18.407479,1,2,-1,1052,0,-1558
1584,18.419024,0,-3,-1,1046,1,-1555
1585,18.43058,0,0,2,1047,3,-1561
1586,18.442125,2,2,0,1051,0,-1563
1587,18.453672,0,2,1,1047,0,-1561
1588,18.465224,-1,1,0,1049,0,-1558
1589,18.47687,1,5,-1,1049,1,-1566
1590,18.488454,0,2,1,1047,-2,-1560
1591,18.499993,0,1,0,1046,-5,-1562
1592,18.511595,1,1,1,1049,-1,-1557
1593,18.523267,0,2,-3,1049,-1,-1556
1594,18.534926,1,0,0,1049,1,-1559
1595,18.546576,1,-2,1,1048,-2,-1562
1596,18.558255,-1,0,1,1046,0,-1561
1597,18.569902,0,1,0,1052,1,-1560
1598,18.581561,0,1,1,1049,3,-1564
1599,18.59325,2,2,1,1054,-1,-1558
1600,18.604968,-1,-2,-1,1050,2,-1556
1601,18.616653,1,2,1,1045,-2,-1562
1602,18.628338,-1,-2,-1,1047,0,-1564
1603,18.639903,0,1,-2,1047,3,-1555
1604,18.651467,0,0,-1,1052,0,-1559
1605,18.663009,0,-2,0,1047,-1,-1552
1606,18.674559,0,0,2,1048,1,-1559
1607,18.686109,-1,0,2,1048,2,-1557
1608,18.6977,-2,2,2,1045,-2,-1556
1609,18.709283,0,1,1,1050,2,-1558
1610,18.720821,2,0,-1,1049,-4,-1559
1611,18.732467,2,1,1,1045,-1,-1557
1612,18.744141,1,1,-1,1047,2,-1565
1613,18.755795,1,1,2,1049,1,-1556
1614,18.767443,0,-1,0,1049,2,-1552
1615,18.779097,0,-2,-3,1050,0,-1564
1616,18.790769,-2,2,0,1050,1,-1557
1617,18.802415,0,0,1,1044,-3,-1559
1618,18.814064,0,0,-1,1048,-2,-1565
1619,18.825773,2,1,0,1048,-3,-1564
1620,18.837429,1,-2,0,1049,-2,-1552
1621,18.848997,0,1,-1,1049,1,-1565
1622,18.860579,0,1,2,1049,2,-1560
1623,18.872137,-1,1,1,1050,0,-1559
1624,18.883711,-2,0,0,1045,2,-1556
1625,18.895255,0,1,-1,1048,-5,-1561
1626,18.90681,-1,1,1,1042,-3,-1561
1627,18.91836,0,1,-1,1048,3,-1561
1628,18.929917,-1,1,0,1050,2,-1566
1629,18.941545,-2,0,2,1049,0,-1560
1630,18.953227,-1,0,1,1046,0,-1557
1631,18.964938,2,-2,-1,1047,4,-1565
1632,18.976591,1,2,0,1048,0,-1560
1633,18.98826,0,1,-1,1045,0,-1557
1634,18.999929,0,1,0,1051,0,-1560
1635,19.011578,1,0,0,1048,-2,-1552
1636,19.023265,1,-1,-1,1051,2,-1560
1637,19.034926,1,1,1,1051,2,-1562
1638,19.046609,-1,0,1,1051,2,-1561
1639,19.058199,-1,-1,0,1044,-4,-1557
1640,19.069776,2,-2,-1,1049,-3,-1560
1641,19.081332,0,-1,-2,1047,-4,-1551
1642,19.092887,0,2,0,1049,0,-1558
1643,19.104475,0,0,1,1049,1,-1563
1644,19.116097,1,3,0,1044,3,-1557
1645,19.127765,-1,1,-1,1048,3,-1562
1646,19.139362,0,0,-1,1044,0,-1560
1647,19.150958,0,0,-2,1045,-2,-1565
1648,19.162524,-1,2,1,1050,-3,-1556
1649,19.174096,-1,1,0,1052,2,-1552
1650,19.18566,0,2,2,1051,-3,-1561
1651,19.197225,0,0,2,1044,3,-1555
1652,19.208807,0,-2,0,1049,-1,-1557
1653,19.220323,0,0,-1,1049,-3,-1552
1654,19.231873,2,1,-2,1046,-1,-1562
1655,19.243533,0,1,3,1047,0,-1564
1656,19.255181,1,0,-1,1049,0,-1557
1657,19.266908,0,0,-1,1050,0,-1557
1658,19.278571,1,1,-2,1047,-2,-1559
1659,19.290254,-1,1,0,1046,-2,-1563
1660,19.301911,0,-2,-1,1046,4,-1554
1661,19.313617,1,2,1,1050,-1,-1559
1662,19.325284,-2,1,1,1050,-1,-1559
1663,19.337014,0,0,-2,1048,2,-1560
1664,19.348728,0,4,2,1048,2,-1561
1665,19.360389,-1,-2,0,1049,0,-1561
1666,19.371974,0,0,-1,1050,-1,-1558
1667,19.383524,-2,0,-2,1051,-3,-1557
1668,19.395073,0,1,1,1052,1,-1557
1669,19.406624,1,1,-2,1049,4,-1559
1670,19.418226,-1,1,2,1044,3,-1561
1671,19.429779,2,1,-1,1047,-2,-1560
1672,19.441341,1,1,0,1052,0,-1564
1673,19.452898,1,-1,1,1048,-2,-1564
1674,19.464531,-1,1,2,1047,1,-1557
1675,19.476187,1,1,0,1047,1,-1557
1676,19.487845,-1,2,-2,1051,0,-1563
1677,19.499514,2,-1,-1,1047,-1,-1556
1678,19.511167,2,-2,-1,1049,2,-1558
1679,19.522815,0,1,1,1050,1,-1556
1680,19.534473,0,1,2,1053,0,-1556
1681,19.546129,1,2,-1,1050,0,-1559
1682,19.557803,1,-1,-2,1053,0,-1559
1683,19.569495,1,-1,-1,1046,-1,-1554
1684,19.581049,0,0,1,1052,-3,-1561
1685,19.592567,1,0,0,1046,0,-1555
1686,19.60411,2,0,0,1050,0,-1557
1687,19.615695,0,-2,1,1052,1,-1557
1688,19.62724,1,0,-1,1048,0,-1561
1689,19.638812,0,0,1,1050,0,-1560
1690,19.650354,1,2,0,1049,0,-1558
1691,19.661909,2,0,1,1051,-2,-1558
1692,19.673538,0,0,-1,1045,-4,-1558
1693,19.685217,1,0,1,1050,-4,-1557
1694,19.696848,-1,-1,-1,1047,0,-1558
1695,19.708569,-1,1,0,1051,-2,-1562
1696,19.720229,0,0,0,1050,1,-1563
1697,19.731882,-1,2,1,1050,0,-1562
1698,19.743559,0,2,1,1052,0,-1554
1699,19.755203,1,0,1,1049,-4,-1559
1700,19.766858,0,0,1,1047,0,-1558
1701,19.778513,0,0,0,1050,0,-1559
1702,19.790082,0,0,0,1049,3,-1560
1703,19.801648,0,0,2,1051,0,-1554
1704,19.813207,0,1,-1,1047,-4,-1561
1705,19.824788,0,0,0,1046,5,-1554
1706,19.836328,-1,1,-1,1045,-6,-1554
1707,19.847879,2,0,-1,1049,0,-1557
1708,19.859457,1,1,0,1045,2,-1562
1709,19.870998,2,1,-2,1049,0,-1557
1710,19.882668,-1,-1,0,1048,2,-1557
1711,19.894315,-1,2,-1,1045,1,-1557
1712,19.90598,1,-1,-2,1050,0,-1557
1713,19.91765,-1,0,0,1045,0,-1559
1714,19.929303,1,1,0,1048,0,-1557
1715,19.940977,2,-3,1,1045,0,-1556
1716,19.952656,1,2,2,1050,0,-1557
1717,19.964324,1,1,0,1047,0,-1558
1718,19.976061,0,1,1,1047,3,-1560
1719,19.987732,-1,1,-2,1049,-1,-1555
1720,19.999292,0,-1,0,1048,-1,-1560
1721,20.010841,0,1,0,1048,1,-1562
1722,20.022403,0,0,1,1048,2,-1562
1723,20.033964,0,-1,2,1048,4,-1558
1724,20.045649,0,0,-1,1049,1,-1557
1725,20.05721,1,0,2,1050,0,-1561
1726,20.068799,-1,1,1,1048,-5,-1564
1727,20.080393,-1,-1,0,1046,5,-1564
1728,20.09202,-1,1,-1,1044,0,-1562
1729,20.103683,0,1,-1,1046,3,-1556
1730,20.115355,0,0,-1,1049,1,-1559
1731,20.127026,0,0,-1,1047,0,-1558
1732,20.138688,-2,-1,1,1044,-3,-1555
1733,20.150343,1,2,-1,1046,-2,-1560
1734,20.162009,0,1,0,1048,2,-1556
1735,20.17367,0,0,0,1048,-2,-1560
1736,20.185358,2,1,0,1048,-1,-1556
1737,20.197073,0,0,1,1050,0,-1559
1738,20.208634,0,-1,1,1047,0,-1566
1739,20.220193,0,0,1,1046,0,-1554
1740,20.23174,2,-1,0,1046,-1,-1562
1741,20.24329,0,0,1,1043,0,-1563
1742,20.25483,0,1,0,1049,1,-1559
1743,20.26638,-1,0,1,1050,5,-1557
1744,20.277953,1,0,0,1050,0,-1562
1745,20.289549,1,-1,-1,1046,0,-1563
1746,20.30117,-2,-1,0,1049,-3,-1562
1747,20.312844,0,1,1,1045,2,-1560
1748,20.324516,1,0,-1,1049,5,-1560
1749,20.336158,1,0,0,1045,2,-1558
1750,20.347808,1,0,0,1047,-2,-1562
1751,20.359475,1,-1,0,1046,1,-1560
1752,20.37113,0,2,0,1046,-2,-1553
1753,20.38278,0,-1,-2,1050,1,-1554
1754,20.394438,1,2,0,1051,0,-1561
1755,20.406107,0,-1,-1,1046,-1,-1559
1756,20.417667,-1,1,-2,1049,1,-1566
1757,20.429227,0,0,2,1050,-2,-1559
1758,20.440822,0,0,2,1050,0,-1560
1759,20.452383,-1,2,1,1048,0,-1554
1760,20.463952,0,-1,1,1048,0,-1555
1761,20.4755,0,1,2,1047,1,-1557
1762,20.487089,1,2,-1,1048,0,-1557
1763,20.498646,0,1,-2,1048,1,-1563
1764,20.510274,-1,0,-1,1048,1,-1560
1765,20.521918,0,-1,0,1051,0,-1559
1766,20.533597,0,0,2,1050,1,-1561
1767,20.545276,0,0,0,1051,-1,-1564
1768,20.556925,-1,-1,1,1047,2,-1554
1769,20.5686,0,3,-1,1051,5,-1559
1770,20.580253,0,0,-1,1047,-1,-1556
1771,20.5919,0,-1,-2,1050,-2,-1558
1772,20.603566,-1,0,0,1045,3,-1553
1773,20.615217,1,-1,1,1049,2,-1552
1774,20.626775,0,0,2,1043,0,-1558
1775,20.638329,0,-1,0,1047,-1,-1557
1776,20.649878,0,0,0,1045,2,-1564
1777,20.661453,0,-1,1,1049,1,-1564
1778,20.673029,0,1,2,1046,1,-1558
1779,20.684574,0,0,-2,1048,-1,-1565
1780,20.696121,0,0,1,1048,-1,-1555
1781,20.707677,0,-2,1,1048,0,-1563
1782,20.71931,1,2,-1,1051,5,-1563
1783,20.730997,0,0,1,1047,-2,-1560
1784,20.742653,0,0,-1,1048,0,-1570
1785,20.754295,1,1,-1,1045,-3,-1554
1786,20.765943,-2,0,3,1045,0,-1566
1787,20.777635,1,0,2,1048,-2,-1558
1788,20.789287,0,-1,-2,1046,0,-1560
1789,20.800975,0,1,1,1048,1,-1561
1790,20.81267,1,-2,1,1048,3,-1560
1791,20.824342,1,3,-1,1050,0,-1553
1792,20.835911,1,-1,0,1046,2,-1559
1793,20.847461,-1,0,0,1046,4,-1560
1794,20.859019,1,2,0,1047,1,-1558
1795,20.870571,0,0,1,1046,-1,-1558
1796,20.882115,0,1,1,1045,5,-1565
1797,20.893661,-2,-1,-1,1047,0,-1561
1798,20.905215,-1,2,1,1049,1,-1558
1799,20.916829,-1,-1,0,1051,0,-1562
1800,20.92847,0,-1,1,1048,-2,-1555
1801,20.94014,-1,0,0,1045,1,-1558
1802,20.951795,0,2,0,1047,3,-1557
1803,20.963456,-1,2,0,1048,1,-1553
1804,20.975152,1,2,0,1044,1,-1557
1805,20.986799,0,2,1,1052,-4,-1558
1806,20.998453,0,3,1,1050,1,-1554
1807,21.010128,-2,3,-5,1047,0,-1568
1808,21.021792,0,0,-1,1049,-1,-1556
1809,21.033492,0,0,0,1047,0,-1558
1810,21.045052,1,1,0,1049,1,-1561
1811,21.056613,0,0,-1,1043,0,-1554
1812,21.068177,1,0,-1,1047,0,-1566
1813,21.079728,0,-3,-1,1051,0,-1560
1814,21.09128,1,1,-1,1048,2,-1551
1815,21.102839,-1,1,-2,1051,-2,-1561
1816,21.114389,0,0,-1,1047,-1,-1565
1817,21.125955,0,1,-1,1050,-2,-1562
1818,21.137626,-2,-1,0,1051,2,-1559
1819,21.149289,2,-1,0,1052,4,-1557
1820,21.160981,-1,2,1,1046,0,-1555
1821,21.172643,0,1,0,1049,2,-1563
1822,21.184358,0,2,0,1046,2,-1558
1823,21.196018,0,-1,1,1044,-2,-1560
1824,21.207668,1,3,0,1048,0,-1558
1825,21.21934,1,1,-1,1048,0,-1557
1826,21.231027,-1,-1,-3,1045,2,-1560
1827,21.242592,0,-1,0,1050,-1,-1557
1828,21.254149,1,0,1,1049,-1,-1560
1829,21.265711,-1,0,0,1046,2,-1553
1830,21.277284,2,3,1,1051,0,-1556
1831,21.288807,-1,-1,0,1047,4,-1557
1832,21.300323,0,2,2,1046,-1,-1556
1833,21.311884,-1,1,-1,1050,0,-1564
1834,21.323476,1,0,-1,1051,1,-1564
1835,21.335102,0,2,-1,1049,1,-1560
1836,21.346764,0,1,1,1053,-1,-1563
1837,21.358424,0,-1,-1,1047,2,-1557
1838,21.370118,0,3,2,1047,0,-1564
1839,21.381777,0,2,1,1050,2,-1559
1840,21.393441,2,1,0,1045,4,-1556
1841,21.405122,0,0,-1,1043,0,-1555
1842,21.416773,-1,2,0,1045,1,-1560
1843,21.42847,1,1,-1,1048,-1,-1559
1844,21.440138,-1,0,1,1047,3,-1557
1845,21.451711,0,1,-1,1047,-1,-1557
1846,21.46326,0,0,-2,1048,0,-1559
1847,21.474826,2,0,1,1047,1,-1564
1848,21.486368,1,1,-1,1045,2,-1561
1849,21.497907,0,-2,-1,1046,2,-1562
1850,21.509461,0,0,1,1049,-2,-1562
1851,21.521025,-1,2,-2,1046,-1,-1562
1852,21.532575,0,0,0,1045,0,-1559
1853,21.544203,0,3,1,1053,2,-1558
1854,21.55589,0,0,0,1045,-1,-1555
1855,21.567544,-1,1,0,1047,-1,-1561
1856,21.579201,0,0,2,1048,1,-1557
1857,21.590892,1,-1,0,1052,-1,-1556
1858,21.602543,-1,2,-1,1046,0,-1564
1859,21.61423,-2,1,0,1048,5,-1564
1860,21.625885,0,0,2,1044,0,-1561
1861,21.637545,0,1,0,1050,0,-1564
1862,21.649099,0,0,-2,1047,1,-1558
1863,21.660646,0,1,0,1043,5,-1566
1864,21.672209,0,0,0,1047,0,-1556
1865,21.683756,2,1,0,1048,1,-1562
1866,21.695307,-2,2,-1,1046,-3,-1563
1867,21.706859,0,0,1,1045,6,-1556
1868,21.718437,2,-1,0,1044,1,-1557
1869,21.729991,-2,1,-1,1046,-1,-1554
1870,21.74156,2,1,0,1045,1,-1562
1871,21.753182,1,1,-1,1048,-2,-1555
1872,21.764858,-1,2,0,1045,0,-1568
1873,21.776521,1,0,0,1046,0,-1562
1874,21.788168,2,1,2,1048,0,-1562
1875,21.799824,1,0,0,1048,0,-1560
1876,21.811466,-1,-1,2,1047,2,-1558
1877,21.823119,0,2,0,1049,5,-1560
1878,21.834771,0,-1,1,1050,3,-1559
1879,21.84643,0,1,0,1048,1,-1554
1880,21.858102,1,-1,-2,1046,3,-1558
1881,21.869763,-1,0,2,1051,3,-1562
1882,21.881416,-1,-1,0,1047,0,-1558
1883,21.893109,0,-1,1,1047,1,-1558
1884,21.904768,0,2,1,1052,0,-1560
1885,21.916447,0,-3,0,1048,2,-1567
1886,21.928123,1,0,-1,1049,0,-1561
1887,21.939772,0,0,1,1051,2,-1558
1888,21.951436,0,-2,-1,1046,2,-1562
1889,21.963122,0,2,1,1044,0,-1557
1890,21.974774,0,0,-1,1047,-1,-1557
1891,21.986418,2,1,-1,1047,-1,-1558
1892,21.998079,2,-2,0,1046,2,-1561
1893,22.00975,1,2,1,1050,0,-1550
1894,22.021408,-1,1,-1,1049,0,-1559
1895,22.0331,-1,-1,1,1048,3,-1559
1896,22.044763,2,0,2,1044,1,-1558
1897,22.056461,0,1,-1,1044,0,-1559
1898,22.068126,-1,0,-1,1047,1,-1553
1899,22.079773,0,2,-1,1047,0,-1562
1900,22.091421,0,-1,-2,1046,-3,-1561
1901,22.103071,0,0,-1,1047,2,-1561
1902,22.114749,0,-1,1,1048,0,-1558
1903,22.126403,2,0,0,1043,0,-1561
1904,22.138045,0,-1,1,1048,2,-1562
1905,22.149693,1,1,-2,1050,7,-1560
1906,22.161376,0,0,-1,1045,1,-1560
1907,22.173027,0,2,2,1047,0,-1564
1908,22.184571,0,-2,0,1049,1,-1562
1909,22.196133,-1,3,2,1047,5,-1564
1910,22.207707,1,2,-1,1049,0,-1563
1911,22.219259,0,0,2,1047,0,-1554
1912,22.230827,0,0,0,1047,1,-1566
1913,22.24237,-1,1,-1,1049,3,-1557
1914,22.253913,1,0,0,1047,2,-1560
1915,22.26548,-1,0,3,1050,0,-1562
1916,22.277126,-1,0,-1,1046,0,-1558
1917,22.288792,2,1,1,1052,-1,-1557
1918,22.3005,-1,-1,0,1050,2,-1556
1919,22.312145,-1,1,1,1048,4,-1557
1920,22.323796,0,0,0,1047,1,-1564
1921,22.335488,1,2,-2,1048,-1,-1562
1922,22.347145,-2,1,1,1051,1,-1556
1923,22.3588,0,0,-1,1051,0,-1560
1924,22.370464,0,-1,1,1046,0,-1555
1925,22.382144,1,0,0,1044,0,-1559
1926,22.393706,2,0,0,1047,-5,-1555
1927,22.405274,0,-1,0,1053,1,-1559
1928,22.416806,0,1,0,1049,1,-1559
1929,22.428323,0,-1,-1,1046,0,-1556
1930,22.439883,0,0,-1,1045,1,-1561
1931,22.451435,-1,0,1,1052,1,-1555
1932,22.462992,0,2,-2,1048,-2,-1555
1933,22.474597,2,-1,-1,1053,1,-1561
1934,22.486245,1,-1,0,1044,0,-1555
1935,22.497901,2,-1,0,1050,2,-1561
1936,22.509544,-1,0,1,1048,-1,-1557
1937,22.521231,-1,1,-1,1046,2,-1556
1938,22.532896,-1,0,-2,1047,0,-1562
1939,22.544563,0,-1,-1,1046,-2,-1559
1940,22.556238,1,1,0,1046,1,-1563
1941,22.567895,-1,1,0,1049,0,-1566
1942,22.579546,-2,1,0,1045,1,-1567
1943,22.591204,2,-2,2,1046,2,-1554
1944,22.602815,-1,1,-2,1050,0,-1557
1945,22.614373,1,-2,-1,1047,4,-1560
1946,22.625925,1,0,1,1046,0,-1553
1947,22.637489,-1,-1,1,1048,1,-1559
1948,22.649071,0,1,1,1046,-3,-1559
1949,22.660628,1,1,1,1048,1,-1564
1950,22.672214,1,1,3,1048,-2,-1561
1951,22.68377,-1,1,-1,1048,0,-1556
1952,22.695393,-2,-1,0,1048,-3,-1562
1953,22.707069,3,0,1,1046,0,-1554
1954,22.718744,0,1,1,1049,0,-1562
1955,22.730392,-1,1,0,1045,-1,-1562
1956,22.742039,0,0,-3,1048,1,-1559
1957,22.753709,1,0,0,1049,0,-1553
1958,22.765362,-1,0,0,1046,-2,-1556
1959,22.777019,-1,1,2,1049,-1,-1560
1960,22.788683,1,1,0,1049,1,-1552
1961,22.800342,0,-1,2,1048,-2,-1556
1962,22.811893,1,-1,1,1048,1,-1563
1963,22.823446,2,-2,0,1048,1,-1556
1964,22.835005,1,1,0,1048,0,-1558
1965,22.846561,-1,1,-1,1050,2,-1559
1966,22.858112,-1,1,0,1048,2,-1556
1967,22.869659,0,1,-1,1049,-5,-1564
1968,22.881218,1,1,1,1044,1,-1565
1969,22.892799,-1,-1,0,1046,0,-1557
1970,22.904473,0,2,-3,1048,0,-1555
1971,22.916125,0,3,-1,1049,1,-1559
1972,22.927781,1,-2,1,1044,2,-1561
1973,22.939425,0,0,-2,1049,-2,-1559
1974,22.951067,0,2,-1,1047,1,-1564
1975,22.962742,0,0,0,1049,1,-1553
1976,22.974389,0,1,2,1043,-2,-1557
1977,22.986036,0,0,-4,1051,4,-1562
1978,22.997727,0,-1,-1,1046,0,-1559
1979,23.009363,-1,0,-1,1048,-2,-1559
1980,23.021023,-1,1,1,1051,2,-1560
1981,23.032715,0,1,-2,1048,0,-1559
1982,23.044402,2,0,1,1049,-3,-1560
1983,23.056049,-2,-1,0,1049,-1,-1559
1984,23.067727,1,0,2,1048,0,-1565
1985,23.079395,3,0,1,1049,0,-1568
1986,23.091044,0,1,1,1047,4,-1551
1987,23.102746,1,2,0,1046,0,-1565
1988,23.114407,-1,1,1,1044,0,-1564
1989,23.126129,1,-1,1,1046,0,-1558
1990,23.137797,0,0,1,1046,1,-1562
1991,23.149493,1,1,0,1048,0,-1559
1992,23.161153,-1,0,-1,1050,2,-1559
1993,23.172834,0,0,0,1044,3,-1558
1994,23.184512,0,0,1,1046,-2,-1560
1995,23.196154,1,0,0,1047,1,-1558
1996,23.207818,1,-2,0,1048,0,-1561
1997,23.219521,1,0,1,1050,0,-1558
1998,23.231079,1,1,0,1049,-4,-1560
1999,23.242627,0,1,0,1051,-2,-1558
