sample,t_s,gyro_x,gyro_y,gyro_z,accel_x,accel_y,accel_z
0,1.1e-05,6,7,10,17,23,-1035
1,0.011501,3,8,11,15,26,-1036
2,0.022729,2,7,8,11,26,-1030
3,0.033923,1,8,10,14,30,-1033
4,0.04511,1,6,9,16,28,-1038
5,0.056303,4,5,8,14,27,-1037
6,0.067456,3,5,8,13,26,-1034
7,0.078656,1,7,10,12,28,-1037
8,0.089849,2,9,9,13,22,-1039
9,0.101035,1,3,7,16,23,-1029
10,0.11222,2,6,11,13,27,-1035
11,0.123408,3,6,8,15,27,-1036
12,0.134594,1,5,11,13,28,-1033
13,0.145779,3,5,7,16,26,-1030
14,0.156962,2,6,10,15,25,-1034
15,0.168147,2,5,9,10,22,-1036
16,0.179337,4,4,7,16,25,-1029
17,0.190524,3,7,11,13,29,-1039
18,0.201711,2,9,5,0,26,-1037
19,0.212898,2,6,6,13,25,-1037
20,0.224082,4,7,8,14,23,-1038
21,0.235274,4,8,8,15,24,-1034
22,0.246461,1,5,6,12,26,-1027
23,0.257669,2,3,8,9,29,-1031
24,0.268853,1,8,8,12,29,-1035
25,0.280038,2,6,9,12,24,-1035
26,0.291228,3,7,9,15,31,-1034
27,0.302412,2,5,5,16,27,-1034
28,0.313596,5,6,11,11,26,-1036
29,0.324783,1,6,7,12,26,-1036
30,0.335967,3,7,8,15,25,-1034
31,0.347158,3,8,9,13,28,-1036
32,0.358345,3,7,10,12,25,-1037
33,0.369527,3,6,8,13,25,-1036
34,0.380714,3,7,11,12,26,-1034
35,0.391896,1,7,11,13,29,-1036
36,0.403097,4,9,7,18,24,-1054
37,0.414286,2,7,8,13,25,-1034
38,0.425465,2,5,9,12,29,-1034
39,0.436656,1,5,10,16,29,-1036
40,0.447844,1,8,10,14,24,-1036
41,0.459029,3,6,8,17,23,-1032
42,0.470214,3,7,10,11,25,-1039
43,0.481396,3,7,12,12,26,-1036
44,0.492586,2,6,8,14,27,-1033
45,0.503772,-1,6,11,14,22,-1032
46,0.514963,2,6,10,12,22,-1036
47,0.526149,3,5,8,15,23,-1037
48,0.537336,3,6,10,13,30,-1035
49,0.548528,2,7,8,14,24,-1036
50,0.559719,4,7,10,16,26,-1040
51,0.570902,3,7,9,8,23,-1037
52,0.582093,3,8,7,12,28,-1037
53,0.593281,1,3,9,14,29,-1029
54,0.604468,3,8,8,18,25,-1038
55,0.615642,3,6,9,14,25,-1032
56,0.626827,2,6,9,14,28,-1031
57,0.638011,3,5,9,17,27,-1033
58,0.649195,2,6,10,16,28,-1033
59,0.660375,3,3,8,13,26,-1032
60,0.671564,2,6,8,16,21,-1033
61,0.682716,4,9,9,13,29,-1037
62,0.693897,2,5,9,14,26,-1033
63,0.705081,3,9,8,14,25,-1033
64,0.716264,5,8,10,12,27,-1034
65,0.727458,1,7,9,16,25,-1031
66,0.738653,2,7,11,14,26,-1036
67,0.749839,4,5,10,19,25,-1031
68,0.76104,3,10,10,14,24,-1031
69,0.772225,2,8,8,13,24,-1033
70,0.783411,0,7,8,15,24,-1040
71,0.794598,3,6,9,13,27,-1041
72,0.80578,1,7,11,16,28,-1034
73,0.816965,2,6,8,14,27,-1040
74,0.828146,1,5,7,13,28,-1035
75,0.839334,1,8,10,13,26,-1039
76,0.850521,2,7,7,20,28,-1034
77,0.861725,1,5,9,14,28,-1039
78,0.872914,2,9,9,14,26,-1039
79,0.884102,3,7,9,15,28,-1030
80,0.895272,1,6,9,13,23,-1033
81,0.906461,1,7,8,14,23,-1034
82,0.917648,3,6,8,13,27,-1035
83,0.928836,3,7,8,9,25,-1041
84,0.940024,0,8,10,14,26,-1044
85,0.951219,2,4,9,13,24,-1035
86,0.962406,1,8,12,17,29,-1035
87,0.973604,2,7,9,16,26,-1040
88,0.984788,2,7,8,12,23,-1033
89,0.99597,3,7,9,13,28,-1028
90,1.007159,2,8,9,14,25,-1031
91,1.018344,2,7,10,14,22,-1036
92,1.029528,2,8,8,15,27,-1039
93,1.040719,3,6,10,10,30,-1038
94,1.051902,4,7,10,14,27,-1030
95,1.063091,1,7,8,10,28,-1035
96,1.074272,1,6,8,13,29,-1035
97,1.085458,4,6,11,14,25,-1033
98,1.096644,0,6,10,14,25,-1036
99,1.107828,2,7,8,13,29,-1035
100,1.119041,2,7,7,14,27,-1037
101,1.130231,3,8,9,11,27,-1037
102,1.141416,3,6,11,15,27,-1034
103,1.152599,3,4,10,17,26,-1045
104,1.163786,0,5,9,14,26,-1037
105,1.174974,0,6,7,12,30,-1034
106,1.186164,1,7,9,13,25,-1032
107,1.197348,1,3,10,12,27,-1037
108,1.208537,4,9,8,12,25,-1034
109,1.219724,1,4,10,14,24,-1034
110,1.230901,3,8,7,13,22,-1036
111,1.242094,3,7,9,14,28,-1032
112,1.253278,2,10,10,13,31,-1035
113,1.264464,1,8,6,14,27,-1034
114,1.275641,2,7,7,10,31,-1034
115,1.286835,3,5,8,15,25,-1038
116,1.298019,3,6,9,12,29,-1037
117,1.309205,3,7,10,16,26,-1034
118,1.320391,1,4,9,14,24,-1036
119,1.331585,2,8,8,11,26,-1034
120,1.342776,3,8,10,17,28,-1035
121,1.353963,3,6,8,17,31,-1028
122,1.365151,3,7,10,13,28,-1032
123,1.376337,1,5,7,12,26,-1035
124,1.387527,0,4,7,13,22,-1035
125,1.398719,3,7,7,13,22,-1037
126,1.409902,3,8,9,12,25,-1033
127,1.421087,0,3,9,18,28,-1041
128,1.432283,3,6,10,14,26,-1037
129,1.443457,2,8,8,10,30,-1032
130,1.454653,2,7,9,16,32,-1037
131,1.465834,2,6,8,9,27,-1036
132,1.477037,2,6,10,16,28,-1029
133,1.488227,1,6,10,16,27,-1033
134,1.499412,3,5,7,13,26,-1038
135,1.510596,2,5,9,15,24,-1036
136,1.521778,3,10,12,13,29,-1033
137,1.532961,2,6,6,14,25,-1032
138,1.544143,1,5,9,15,29,-1033
139,1.555331,3,6,9,11,28,-1033
140,1.566513,2,7,8,10,24,-1037
141,1.577698,4,6,8,13,28,-1031
142,1.588881,2,6,7,12,28,-1038
143,1.600064,2,5,8,14,25,-1035
144,1.611264,2,8,10,13,25,-1032
145,1.622448,3,8,9,12,24,-1037
146,1.633632,1,7,8,14,24,-1035
147,1.644815,0,5,8,8,29,-1038
148,1.655999,1,8,8,14,24,-1035
149,1.667194,4,8,11,17,27,-1037
150,1.678399,2,6,10,14,25,-1037
151,1.689588,2,7,9,11,28,-1038
152,1.700776,1,4,10,13,21,-1035
153,1.71196,0,5,10,15,30,-1038
154,1.72315,5,11,9,15,29,-1035
155,1.734332,2,5,9,18,25,-1036
156,1.745518,2,6,10,18,26,-1035
157,1.756706,2,5,10,16,27,-1035
158,1.767891,2,3,11,13,25,-1036
159,1.779084,2,6,10,12,24,-1039
160,1.790266,3,6,9,11,25,-1040
161,1.801452,2,8,9,16,25,-1030
162,1.812643,1,6,8,13,29,-1032
163,1.823827,1,5,10,11,26,-1032
164,1.835033,3,9,9,12,24,-1037
165,1.846217,2,6,6,14,29,-1033
166,1.857401,4,5,10,11,24,-1031
167,1.868586,3,8,9,13,27,-1039
168,1.879774,2,3,11,14,26,-1031
169,1.890969,2,8,10,14,25,-1032
170,1.90215,1,8,9,13,24,-1030
171,1.913334,3,6,9,18,25,-1037
172,1.924515,2,7,8,13,22,-1030
173,1.935703,3,4,10,13,24,-1038
174,1.946898,5,6,10,14,30,-1036
175,1.958081,1,8,9,14,25,-1035
176,1.969265,3,4,9,15,27,-1031
177,1.980464,4,10,7,15,25,-1032
178,1.991679,3,8,9,16,26,-1034
179,2.002987,0,5,8,15,27,-1034
180,2.01418,3,5,9,12,28,-1033
181,2.025367,3,7,6,18,27,-1036
182,2.036562,2,7,9,11,28,-1033
183,2.04776,2,6,10,17,27,-1035
184,2.058954,2,8,9,12,25,-1031
185,2.070141,1,8,7,14,24,-1032
186,2.08133,2,4,9,16,26,-1039
187,2.092524,2,6,9,16,27,-1040
188,2.103714,2,6,10,16,29,-1035
189,2.114902,3,8,7,12,24,-1028
190,2.126092,3,6,10,15,22,-1029
191,2.137282,2,7,9,12,27,-1030
192,2.148511,5,-1,12,10,25,-1033
193,2.159808,0,4,6,11,29,-1029
194,2.171027,2,6,9,13,24,-1039
195,2.182231,1,0,11,16,28,-1041
196,2.193497,1,4,9,10,27,-1037
197,2.204711,1,7,10,14,28,-1035
198,2.215902,2,3,9,13,19,-1033
199,2.227089,4,7,10,15,25,-1033
200,2.238276,1,5,9,14,26,-1030
201,2.249463,1,9,8,16,24,-1036
202,2.260648,3,5,9,16,26,-1036
203,2.271834,3,6,11,14,25,-1034
204,2.283028,1,6,11,10,27,-1029
205,2.294219,3,7,7,13,26,-1031
206,2.305403,1,6,7,14,24,-1040
207,2.31659,1,9,10,15,29,-1034
208,2.327778,2,7,9,11,20,-1028
209,2.338969,2,6,11,10,27,-1028
210,2.350159,3,6,10,10,22,-1039
211,2.361342,2,7,9,12,23,-1033
212,2.372534,3,6,10,11,25,-1034
213,2.38372,3,11,12,16,25,-1042
214,2.394906,2,3,9,8,26,-1036
215,2.406094,0,7,10,16,22,-1038
216,2.417279,0,7,10,16,26,-1033
217,2.428466,2,3,10,12,24,-1028
218,2.439643,0,6,8,15,26,-1040
219,2.450839,5,5,9,15,24,-1033
220,2.462021,3,6,8,15,27,-1033
221,2.473207,2,6,9,14,23,-1035
222,2.484391,5,10,10,14,23,-1036
223,2.495578,4,7,8,12,31,-1038
224,2.506767,3,8,9,16,23,-1037
225,2.517949,1,6,5,15,21,-1044
226,2.529135,1,6,11,13,29,-1037
227,2.540322,5,5,11,13,26,-1042
228,2.551532,1,8,9,15,26,-1036
229,2.562711,3,7,9,13,27,-1032
230,2.573896,2,7,9,14,26,-1033
231,2.585084,3,9,7,12,27,-1032
232,2.596278,2,7,9,13,28,-1037
233,2.607459,2,8,7,11,23,-1035
234,2.618642,2,7,10,11,26,-1028
235,2.629829,2,5,8,6,27,-1034
236,2.641018,3,5,10,16,22,-1034
237,2.652204,4,6,8,10,29,-1038
238,2.663392,3,7,12,18,25,-1031
239,2.674582,0,4,10,15,23,-1031
240,2.685764,4,9,13,15,27,-1030
241,2.69695,3,4,11,16,29,-1030
242,2.708131,-1,13,7,14,31,-1031
243,2.71932,3,8,10,12,25,-1033
244,2.7305,2,7,9,13,25,-1031
245,2.741681,3,2,8,19,24,-1039
246,2.752862,5,4,11,12,27,-1031
247,2.764042,2,5,10,12,24,-1040
248,2.775228,3,8,7,14,23,-1036
249,2.786414,2,4,9,16,24,-1035
250,2.797596,1,9,8,14,22,-1039
251,2.80878,1,7,8,15,23,-1040
252,2.819961,1,8,10,16,26,-1040
253,2.831151,5,7,13,15,27,-1028
254,2.842349,4,6,10,13,27,-1035
255,2.85354,1,6,10,14,26,-1036
256,2.864789,3,8,10,15,27,-1036
257,2.875988,3,5,10,11,27,-1036
258,2.887175,4,6,11,13,26,-1037
259,2.898361,1,8,7,15,29,-1037
260,2.909575,1,6,10,14,24,-1034
261,2.920769,4,10,9,11,26,-1034
262,2.931951,3,4,7,11,28,-1038
263,2.943144,3,9,7,15,25,-1036
264,2.954344,1,7,10,15,24,-1039
265,2.965529,3,6,9,13,32,-1040
266,2.976717,2,7,11,15,24,-1031
267,2.987905,2,6,7,15,25,-1034
268,2.999088,2,8,9,16,30,-1037
269,3.010277,0,4,9,12,26,-1032
270,3.02146,2,5,12,16,28,-1032
271,3.03266,0,6,8,13,27,-1032
272,3.043847,3,10,11,16,27,-1039
273,3.055041,2,7,9,16,26,-1035
274,3.066225,2,7,8,12,27,-1031
275,3.07741,2,8,9,16,22,-1039
276,3.088597,1,4,10,15,24,-1034
277,3.099784,1,7,7,16,24,-1036
278,3.110974,4,7,8,14,24,-1037
279,3.122158,1,7,10,17,24,-1038
280,3.13334,1,9,8,14,25,-1030
281,3.144525,1,0,12,15,26,-1034
282,3.155715,4,6,9,14,27,-1034
283,3.166904,4,6,8,17,26,-1031
284,3.178088,3,8,9,14,24,-1030
285,3.18927,3,8,7,11,25,-1037
286,3.200454,3,7,9,11,28,-1035
287,3.211644,1,7,11,18,23,-1034
288,3.222834,2,6,10,11,27,-1032
289,3.234019,3,9,11,15,25,-1041
290,3.2452,1,1,9,15,25,-1032
291,3.256402,2,7,10,14,25,-1037
292,3.267589,4,7,10,16,24,-1035
293,3.278774,2,5,8,13,29,-1037
294,3.289958,3,7,10,13,28,-1038
295,3.301143,2,3,8,9,24,-1031
296,3.312336,1,6,11,14,26,-1044
297,3.323523,2,8,6,9,27,-1029
298,3.334716,1,6,9,14,24,-1034
299,3.345898,1,1,10,15,29,-1037
300,3.357081,2,5,8,16,26,-1034
301,3.368267,3,6,10,14,25,-1035
302,3.379457,3,7,7,16,26,-1035
303,3.390642,2,5,10,14,26,-1038
304,3.401827,2,7,8,16,28,-1034
305,3.413014,2,6,7,11,28,-1036
306,3.4242,3,8,10,12,29,-1041
307,3.435389,0,7,7,15,26,-1033
308,3.446578,1,7,9,10,27,-1036
309,3.457779,3,7,10,16,24,-1033
310,3.468962,1,6,9,14,28,-1047
311,3.480147,2,5,11,17,25,-1035
312,3.491334,2,5,11,13,27,-1034
313,3.502517,2,7,7,14,27,-1034
314,3.513709,1,7,9,11,25,-1038
315,3.524893,0,7,11,17,25,-1034
316,3.53608,2,6,8,15,24,-1035
317,3.54727,2,6,12,16,25,-1036
318,3.558454,2,7,11,16,27,-1031
319,3.569636,2,7,11,14,27,-1032
320,3.580825,3,7,8,12,26,-1035
321,3.59201,3,6,8,16,24,-1039
322,3.603204,0,9,8,15,27,-1031
323,3.6144,3,7,8,16,28,-1035
324,3.625582,1,7,9,18,27,-1033
325,3.636767,2,4,10,14,27,-1029
326,3.647954,3,8,7,10,24,-1035
327,3.659139,1,5,9,16,21,-1029
328,3.670342,3,6,10,15,27,-1038
329,3.681531,4,6,9,15,28,-1034
330,3.692717,2,7,7,14,27,-1030
331,3.703902,0,1,9,15,30,-1025
332,3.715087,2,7,10,15,26,-1034
333,3.72627,2,6,9,16,23,-1033
334,3.737454,2,7,8,17,25,-1033
335,3.748655,2,3,11,14,26,-1030
336,3.759839,2,8,9,16,26,-1029
337,3.771024,1,6,9,15,25,-1036
338,3.782206,2,4,11,14,25,-1040
339,3.793391,2,8,9,12,27,-1030
340,3.804575,0,-1,9,16,25,-1037
341,3.815765,2,6,8,16,23,-1042
342,3.826952,3,7,10,12,23,-1036
343,3.838138,2,7,9,17,28,-1036
344,3.84932,3,8,9,18,24,-1037
345,3.860504,2,7,11,14,22,-1029
346,3.87169,3,7,9,15,23,-1030
347,3.882876,1,6,10,13,28,-1036
348,3.894064,3,8,9,14,26,-1038
349,3.905252,3,5,5,16,27,-1029
350,3.916455,3,7,9,11,20,-1038
351,3.927642,5,4,9,11,28,-1035
352,3.938837,0,6,10,16,27,-1037
353,3.950023,3,6,8,15,29,-1040
354,3.961202,4,6,10,12,29,-1039
355,3.972405,3,6,10,16,27,-1040
356,3.9836,4,5,6,16,26,-1033
357,3.994812,2,5,11,15,28,-1032
358,4.00603,1,2,10,18,24,-1036
359,4.017223,1,5,9,12,24,-1038
360,4.02841,3,5,10,15,24,-1034
361,4.039601,1,4,8,15,27,-1037
362,4.050789,2,6,8,12,24,-1031
363,4.061973,2,7,8,17,26,-1033
364,4.073156,1,6,10,15,27,-1037
365,4.084339,3,8,8,14,27,-1044
366,4.095527,2,4,10,14,27,-1035
367,4.106717,4,10,9,14,29,-1038
368,4.117902,2,8,8,16,23,-1032
369,4.129086,2,8,8,14,25,-1034
370,4.140275,1,5,9,15,25,-1030
371,4.151456,2,3,8,16,28,-1036
372,4.162647,1,7,9,15,23,-1035
373,4.173831,2,6,9,13,27,-1036
374,4.185019,2,7,9,13,29,-1036
375,4.196206,4,3,8,14,26,-1038
376,4.207393,0,3,10,13,24,-1034
377,4.21858,2,7,10,14,27,-1035
378,4.229766,2,5,7,14,20,-1035
379,4.240952,2,7,8,11,26,-1038
380,4.252146,3,7,6,15,23,-1029
381,4.263333,2,4,11,12,24,-1038
382,4.274518,3,5,9,12,23,-1029
383,4.285705,1,6,9,13,24,-1041
384,4.29689,2,6,10,16,22,-1036
385,4.308078,3,6,10,13,25,-1042
386,4.319271,3,7,9,10,28,-1036
387,4.330474,2,7,10,16,27,-1038
388,4.341656,1,6,10,16,23,-1036
389,4.352838,2,5,10,15,25,-1031
390,4.364021,0,8,10,14,26,-1034
391,4.375203,1,6,9,15,25,-1040
392,4.386386,1,6,7,15,26,-1031
393,4.397571,3,6,9,17,27,-1031
394,4.408756,2,6,8,14,27,-1029
395,4.419946,5,5,8,14,25,-1028
396,4.431136,0,7,9,18,26,-1033
397,4.442318,3,8,10,13,20,-1038
398,4.453523,2,5,8,14,24,-1036
399,4.464708,4,7,6,11,23,-1040
400,4.475892,1,7,9,12,26,-1034
401,4.487088,1,9,10,14,24,-1039
402,4.498273,4,4,7,15,26,-1036
403,4.509457,2,9,10,15,25,-1033
404,4.520658,2,7,8,13,23,-1035
405,4.532225,3,6,9,10,25,-1032
406,4.543935,0,7,10,15,24,-1031
407,4.555606,1,5,10,13,24,-1038
408,4.567301,3,5,7,17,26,-1039
409,4.578964,1,7,10,11,27,-1032
410,4.590621,2,6,9,17,26,-1039
411,4.60231,3,7,11,13,29,-1037
412,4.61396,2,5,9,19,24,-1030
413,4.62563,3,4,9,13,26,-1031
414,4.637309,1,7,10,16,26,-1032
415,4.648869,3,4,8,12,24,-1039
416,4.660428,1,6,11,12,29,-1035
417,4.671961,2,7,9,17,26,-1035
418,4.683518,1,5,10,15,27,-1035
419,4.695102,3,7,9,16,22,-1036
420,4.706667,2,7,10,12,22,-1040
421,4.718218,2,5,9,13,24,-1032
422,4.729797,2,7,10,13,24,-1033
423,4.741417,3,3,10,15,29,-1036
424,4.753083,2,7,8,16,28,-1035
425,4.764743,1,6,10,16,25,-1033
426,4.776407,3,4,12,13,27,-1033
427,4.788069,1,6,8,18,26,-1028
428,4.799734,2,6,8,10,30,-1034
429,4.811427,3,7,9,16,27,-1027
430,4.823087,1,5,10,17,33,-1035
431,4.834768,1,5,9,11,29,-1039
432,4.846431,2,7,9,14,30,-1029
433,4.85803,3,6,9,12,30,-1033
434,4.86959,3,6,8,14,28,-1035
435,4.881163,2,4,7,15,25,-1030
436,4.892676,3,5,9,15,26,-1032
437,4.904218,3,8,10,11,25,-1038
438,4.915768,2,7,8,14,24,-1039
439,4.92732,6,5,10,13,22,-1033
440,4.938904,3,8,9,17,27,-1035
441,4.950608,2,6,7,17,25,-1033
442,4.962278,2,5,10,15,28,-1038
443,4.973956,3,7,8,17,25,-1034
444,4.985605,1,4,8,17,25,-1037
445,4.997258,4,7,8,14,26,-1035
446,5.008951,1,7,8,13,28,-1043
447,5.020617,1,5,11,14,29,-1034
448,5.032332,2,6,9,14,25,-1032
449,5.044003,3,6,8,13,22,-1033
450,5.05568,3,6,8,15,23,-1039
451,5.067374,1,7,12,15,26,-1028
452,5.07893,3,5,12,17,23,-1034
453,5.090473,2,6,10,14,24,-1037
454,5.102021,4,7,7,15,27,-1032
455,5.113568,2,6,10,10,23,-1032
456,5.125131,3,7,8,16,27,-1032
457,5.136688,2,5,10,12,26,-1035
458,5.148275,3,7,10,14,29,-1033
459,5.159948,3,6,11,12,26,-1034
460,5.171614,1,7,10,13,21,-1040
461,5.183278,2,7,9,17,25,-1042
462,5.194954,0,5,8,15,27,-1040
463,5.20661,3,6,6,9,23,-1032
464,5.218265,2,5,8,14,28,-1040
465,5.229934,2,6,9,13,28,-1032
466,5.241591,2,6,8,11,25,-1033
467,5.253257,3,5,10,15,24,-1040
468,5.264907,4,7,8,17,27,-1036
469,5.276466,3,6,8,14,31,-1032
470,5.288019,1,5,8,12,24,-1034
471,5.299599,3,6,8,11,26,-1035
472,5.311166,2,5,11,14,26,-1035
473,5.32274,2,7,11,15,23,-1040
474,5.334293,4,7,11,14,31,-1023
475,5.345833,4,7,8,14,28,-1042
476,5.357397,4,8,8,13,24,-1038
477,5.369164,3,7,8,12,27,-1036
478,5.380915,1,6,9,13,27,-1032
479,5.392589,3,5,9,14,26,-1035
480,5.404247,2,5,9,15,23,-1034
481,5.415916,1,8,9,13,25,-1035
482,5.42761,1,7,10,9,30,-1034
483,5.439301,3,7,11,14,31,-1041
484,5.451011,1,5,9,16,24,-1037
485,5.462694,3,6,9,14,27,-1031
486,5.474373,3,5,10,15,27,-1037
487,5.486021,2,5,10,14,25,-1031
488,5.497674,2,5,9,16,28,-1039
489,5.509351,2,5,10,11,25,-1039
490,5.52101,3,7,9,16,26,-1033
491,5.532682,3,5,10,16,26,-1041
492,5.544353,0,5,7,13,23,-1034
493,5.556058,2,8,6,16,32,-1038
494,5.567765,5,8,10,16,23,-1032
495,5.579319,2,7,11,15,25,-1038
496,5.590889,3,4,9,14,26,-1035
497,5.602439,0,6,10,14,24,-1036
498,5.615318,2,8,9,13,28,-1037
499,5.628052,-3,-6,7,15,27,-1031
500,5.641774,-2,7,7,16,27,-1033
501,5.657936,1,12,7,15,25,-1038
502,5.670114,0,7,4,14,27,-1038
503,5.681666,2,8,7,10,27,-1032
504,5.693125,3,5,8,11,27,-1034
505,5.704566,2,4,7,15,30,-1034
506,5.715956,3,3,10,14,27,-1031
507,5.72732,2,5,8,11,25,-1036
508,5.738662,3,7,8,14,29,-1031
509,5.750008,3,5,10,18,27,-1030
510,5.761417,3,5,9,9,25,-1040
511,5.772885,2,6,9,12,26,-1040
512,5.784373,2,8,9,10,28,-1040
513,5.795868,4,6,8,15,23,-1039
514,5.807342,4,6,9,18,27,-1034
515,5.818849,0,6,8,14,23,-1035
516,5.830315,4,6,11,16,26,-1033
517,5.841782,2,5,10,19,23,-1035
518,5.853261,2,5,10,15,24,-1032
519,5.864798,2,7,7,13,24,-1036
520,5.876423,2,7,12,11,28,-1030
521,5.888107,2,5,11,17,27,-1039
522,5.899783,3,5,9,16,26,-1033
523,5.911465,2,4,9,17,29,-1033
524,5.923157,2,6,11,16,28,-1033
525,5.934871,2,4,7,14,28,-1030
526,5.94653,3,6,8,17,26,-1031
527,5.958208,0,7,8,13,26,-1035
528,5.969895,2,6,11,15,27,-1034
529,5.981536,1,5,10,13,22,-1035
530,5.993097,2,6,6,12,25,-1029
531,6.00466,3,5,9,11,25,-1032
532,6.016204,4,7,8,13,25,-1036
533,6.027763,4,6,9,18,25,-1036
534,6.039313,2,6,8,13,22,-1032
535,6.050887,3,7,9,16,25,-1034
536,6.062444,2,7,8,17,24,-1038
537,6.074031,2,7,11,15,30,-1034
538,6.085705,1,8,10,16,23,-1039
539,6.097365,1,6,8,15,25,-1036
540,6.109035,3,7,10,13,28,-1033
541,6.120694,3,7,10,11,26,-1037
542,6.132341,2,7,9,16,27,-1030
543,6.144052,3,5,9,16,26,-1031
544,6.15572,4,5,9,14,27,-1036
545,6.167418,1,7,12,12,24,-1033
546,6.179131,1,7,8,11,24,-1035
547,6.190825,2,5,9,15,28,-1028
548,6.202409,4,4,9,12,23,-1038
549,6.213953,2,7,8,17,25,-1029
550,6.2255,1,6,9,12,31,-1033
551,6.237053,3,6,11,15,28,-1034
552,6.248624,3,6,10,15,23,-1035
553,6.260197,2,7,8,13,27,-1036
554,6.271711,3,4,10,12,29,-1035
555,6.283247,1,8,10,17,30,-1039
556,6.29488,1,5,11,12,27,-1037
557,6.306533,2,8,7,14,26,-1035
558,6.318184,3,7,8,13,29,-1030
559,6.329847,2,6,9,15,27,-1035
560,6.341491,3,9,9,13,27,-1033
561,6.353146,1,5,7,14,30,-1030
562,6.364829,5,6,8,13,25,-1039
563,6.376476,2,5,8,13,22,-1029
564,6.388141,3,5,8,13,25,-1037
565,6.399815,4,5,10,13,28,-1040
566,6.411405,2,9,7,17,24,-1030
567,6.42298,2,6,9,12,27,-1034
568,6.434552,2,6,9,13,30,-1030
569,6.446093,3,6,8,11,26,-1040
570,6.457642,1,6,9,13,23,-1037
571,6.469188,3,8,9,16,27,-1031
572,6.480732,2,5,8,14,27,-1034
573,6.492298,3,6,9,12,26,-1033
574,6.503921,2,5,9,14,29,-1032
575,6.515591,3,6,9,13,24,-1040
576,6.527272,3,5,10,14,24,-1031
577,6.53895,3,6,10,10,26,-1034
578,6.55062,2,5,8,12,23,-1037
579,6.562269,4,8,7,12,28,-1030
580,6.573941,4,5,9,14,30,-1036
581,6.585583,3,6,9,13,26,-1036
582,6.597232,1,7,9,12,26,-1030
583,6.608785,2,6,5,17,26,-1034
584,6.620327,4,6,9,12,25,-1037
585,6.631883,2,7,11,12,26,-1028
586,6.643455,4,9,9,12,26,-1035
587,6.654997,3,7,9,17,27,-1034
588,6.666542,2,10,9,11,25,-1031
589,6.67812,2,7,8,15,24,-1033
590,6.68967,3,6,11,13,23,-1035
591,6.701249,1,7,9,15,26,-1042
592,6.712925,2,8,9,10,28,-1032
593,6.724583,3,7,10,10,26,-1030
594,6.736235,2,7,9,12,25,-1032
595,6.747906,3,6,9,17,25,-1036
596,6.759531,2,7,9,13,26,-1035
597,6.771209,2,6,9,17,28,-1037
598,6.782877,3,9,10,14,24,-1034
599,6.794526,2,5,9,14,25,-1038
600,6.806214,1,8,7,13,28,-1029
601,6.817861,1,7,9,14,25,-1033
602,6.829513,3,5,11,9,26,-1029
603,6.841183,4,8,9,15,26,-1032
604,6.852829,4,4,10,14,25,-1035
605,6.864474,1,7,8,15,25,-1040
606,6.876125,1,6,9,15,23,-1033
607,6.887805,2,4,8,13,23,-1035
608,6.899469,4,6,9,12,24,-1031
609,6.911165,3,6,9,13,29,-1035
610,6.922856,1,7,10,12,23,-1035
611,6.93452,2,6,7,10,26,-1036
612,6.946195,1,4,8,18,28,-1040
613,6.957838,2,6,9,26,28,-1029
614,6.969485,2,6,9,15,28,-1029
615,6.981144,1,5,7,15,25,-1036
616,6.992804,0,8,8,16,26,-1039
617,7.004568,1,6,8,10,23,-1039
618,7.016296,3,6,8,13,22,-1033
619,7.027983,2,4,11,13,28,-1036
620,7.039561,2,5,9,12,25,-1033
621,7.051148,3,6,9,13,25,-1036
622,7.062698,1,5,8,15,26,-1035
623,7.074273,2,8,8,13,25,-1030
624,7.085816,1,6,9,18,24,-1030
625,7.097368,4,4,10,13,32,-1032
626,7.108918,3,6,9,13,28,-1035
627,7.120474,3,6,10,15,23,-1036
628,7.132094,0,3,9,17,25,-1033
629,7.143783,3,5,8,13,28,-1034
630,7.155466,1,6,9,12,28,-1037
631,7.16714,2,9,7,11,29,-1035
632,7.178805,2,5,10,14,29,-1036
633,7.190458,1,6,10,15,23,-1044
634,7.2021,4,5,10,15,27,-1029
635,7.213747,2,9,9,16,27,-1035
636,7.225436,2,5,9,14,26,-1029
637,7.237065,2,4,8,16,28,-1033
638,7.248628,4,7,8,14,31,-1035
639,7.260224,2,6,10,17,24,-1032
640,7.271777,2,8,12,12,26,-1038
641,7.283345,2,5,9,17,22,-1043
642,7.294939,2,6,10,15,31,-1034
643,7.306486,2,7,9,13,26,-1036
644,7.318033,3,6,8,14,27,-1034
645,7.32961,1,7,8,17,25,-1037
646,7.341263,3,5,8,13,25,-1037
647,7.352941,3,6,9,15,24,-1033
648,7.364586,3,5,7,15,22,-1038
649,7.376238,1,5,10,16,26,-1037
650,7.387928,2,7,10,12,25,-1039
651,7.399583,4,5,9,17,29,-1033
652,7.411266,4,5,8,19,25,-1034
653,7.422966,2,7,9,11,27,-1036
654,7.434611,1,7,7,15,27,-1033
655,7.446169,1,7,8,15,27,-1039
656,7.457753,1,6,10,10,26,-1030
657,7.469295,2,8,10,14,26,-1032
658,7.480847,2,6,9,16,22,-1035
659,7.492407,1,6,10,13,29,-1031
660,7.503959,3,8,10,12,23,-1034
661,7.515497,1,6,9,10,25,-1041
662,7.527047,2,4,8,14,22,-1035
663,7.538602,2,7,9,14,27,-1030
664,7.550208,5,5,11,10,27,-1036
665,7.561856,3,9,9,12,22,-1034
666,7.573503,2,5,7,13,23,-1034
667,7.585173,2,6,11,15,27,-1035
668,7.596829,2,6,9,14,28,-1032
669,7.608481,2,6,10,17,24,-1035
670,7.620158,1,7,9,16,24,-1038
671,7.631803,2,5,10,13,25,-1037
672,7.643478,4,7,10,19,22,-1037
673,7.655148,1,6,9,10,28,-1034
674,7.666786,2,8,10,17,26,-1034
675,7.678362,2,5,8,11,25,-1034
676,7.689905,2,7,8,13,21,-1033
677,7.70145,2,6,7,15,31,-1039
678,7.713003,3,6,11,14,24,-1038
679,7.724553,1,7,9,15,26,-1028
680,7.736102,3,9,9,16,22,-1031
681,7.747672,5,7,9,14,27,-1036
682,7.759391,1,6,8,12,26,-1046
683,7.771025,0,8,9,13,23,-1033
684,7.782699,1,6,9,13,22,-1036
685,7.794353,0,5,8,18,27,-1037
686,7.805997,3,6,10,16,25,-1031
687,7.817646,3,5,9,12,22,-1038
688,7.829333,4,8,10,15,21,-1037
689,7.840974,1,4,9,16,25,-1032
690,7.852673,1,6,9,9,24,-1038
691,7.86434,2,6,9,16,26,-1040
692,7.875906,0,7,9,17,26,-1040
693,7.887476,2,5,9,17,25,-1032
694,7.898996,4,5,7,13,29,-1038
695,7.910573,2,7,9,11,21,-1039
696,7.922142,1,7,10,16,25,-1036
697,7.93369,2,6,11,11,24,-1037
698,7.945238,0,6,9,13,25,-1032
699,7.956795,1,7,10,14,29,-1034
700,7.968435,1,7,9,15,26,-1039
701,7.980101,3,5,10,11,26,-1034
702,7.991885,2,5,9,13,27,-1029
703,8.003987,3,7,8,14,28,-1030
704,8.01656,2,7,9,14,30,-1034
705,8.029579,4,8,11,14,26,-1035
706,8.041487,3,5,8,17,27,-1041
707,8.053242,2,6,9,12,22,-1034
708,8.064942,2,6,8,14,28,-1040
709,8.076496,3,6,9,15,25,-1032
710,8.087904,2,7,12,15,27,-1033
711,8.099315,2,6,10,11,27,-1034
712,8.110737,3,6,9,14,27,-1041
713,8.122134,4,6,8,16,26,-1034
714,8.133537,2,7,9,13,24,-1034
715,8.144944,2,6,11,13,26,-1036
716,8.156356,1,7,10,14,23,-1032
717,8.167814,1,7,8,13,29,-1031
718,8.17943,3,7,10,16,26,-1039
719,8.191138,1,7,10,18,24,-1036
720,8.202817,3,5,9,16,27,-1038
721,8.214477,2,6,11,12,25,-1035
722,8.226129,3,7,9,12,25,-1032
723,8.237796,1,6,8,14,27,-1033
724,8.249459,3,6,12,14,24,-1035
725,8.261108,3,4,9,14,22,-1032
726,8.272772,4,6,9,17,28,-1036
727,8.284433,2,6,7,14,24,-1038
728,8.296091,2,6,9,14,30,-1036
729,8.307793,2,4,9,13,25,-1036
730,8.319458,2,4,10,18,25,-1029
731,8.331148,4,6,11,17,26,-1033
732,8.342816,3,5,8,13,27,-1037
733,8.354462,1,7,9,14,25,-1042
734,8.366115,2,6,6,13,27,-1037
735,8.377813,2,5,10,15,22,-1039
736,8.389468,2,5,7,19,22,-1032
737,8.401117,3,6,9,11,28,-1036
738,8.412857,3,7,9,10,26,-1034
739,8.42451,4,7,10,11,28,-1039
740,8.436197,3,6,10,12,26,-1035
741,8.447848,2,5,9,16,27,-1041
742,8.459528,2,6,8,13,25,-1033
743,8.471209,1,6,8,16,26,-1036
744,8.48296,0,5,8,12,23,-1031
745,8.494597,1,6,6,19,24,-1035
746,8.506157,3,6,10,17,23,-1044
747,8.51771,3,6,10,9,24,-1036
748,8.529252,2,7,10,16,27,-1035
749,8.540801,0,8,11,16,30,-1036
750,8.552347,3,4,7,18,27,-1030
751,8.5639,0,7,8,15,26,-1036
752,8.575468,2,8,9,16,25,-1038
753,8.587007,3,6,9,11,26,-1032
754,8.59864,3,6,10,13,24,-1032
755,8.610303,2,6,10,16,29,-1034
756,8.62196,1,6,10,15,25,-1032
757,8.633608,1,7,9,13,25,-1039
758,8.645257,1,6,9,18,23,-1045
759,8.656939,3,5,9,11,24,-1035
760,8.668587,3,6,9,16,26,-1038
761,8.680401,3,8,9,11,23,-1034
762,8.692081,3,5,10,17,23,-1039
763,8.703778,2,6,8,12,29,-1040
764,8.715379,2,3,9,13,25,-1039
765,8.72693,4,7,9,13,26,-1036
766,8.738479,2,5,7,12,29,-1031
767,8.750029,1,6,10,16,27,-1033
768,8.761595,2,7,9,14,23,-1034
769,8.77314,2,8,10,14,22,-1030
770,8.784729,4,5,10,12,25,-1032
771,8.796292,1,6,10,12,29,-1037
772,8.807924,1,5,9,15,25,-1034
773,8.819585,1,7,11,13,27,-1036
774,8.831291,2,8,9,18,27,-1033
775,8.842942,2,6,10,13,27,-1037
776,8.854597,2,6,9,17,25,-1028
777,8.866281,2,4,9,13,27,-1033
778,8.877935,3,8,11,10,21,-1031
779,8.889582,2,6,9,12,27,-1033
780,8.901236,2,4,9,11,27,-1036
781,8.912869,3,6,8,14,31,-1032
782,8.924429,3,7,9,14,27,-1034
783,8.936,1,5,9,13,24,-1035
784,8.947553,2,6,8,12,30,-1034
785,8.959142,1,6,9,14,25,-1035
786,8.97068,4,5,8,13,25,-1038
787,8.982218,1,8,9,15,25,-1031
788,8.993764,1,7,10,16,29,-1032
789,9.005322,2,5,9,12,24,-1033
790,9.016944,4,5,8,13,22,-1040
791,9.028601,2,7,10,19,26,-1032
792,9.04031,3,6,9,14,26,-1036
793,9.05212,0,6,9,13,24,-1035
794,9.063795,1,6,9,14,24,-1036
795,9.075462,1,6,10,13,30,-1030
796,9.087156,2,2,8,15,25,-1035
797,9.098814,2,6,9,11,27,-1035
798,9.110464,1,5,10,13,24,-1033
799,9.122015,1,4,10,18,25,-1040
800,9.133579,0,6,9,12,25,-1040
801,9.145163,2,5,9,19,24,-1036
802,9.156765,3,6,9,10,26,-1037
803,9.168316,2,4,9,15,26,-1032
804,9.179883,2,9,7,13,23,-1032
805,9.191458,3,7,9,15,23,-1034
806,9.202995,2,8,10,16,24,-1036
807,9.214555,1,8,9,16,23,-1030
808,9.226178,2,4,10,14,25,-1040
809,9.237828,4,4,11,14,28,-1032
810,9.249478,3,6,10,15,25,-1050
811,9.261145,2,7,9,13,26,-1035
812,9.272794,3,6,8,14,28,-1034
813,9.284447,2,5,9,12,23,-1033
814,9.296108,2,8,9,14,27,-1042
815,9.307797,1,4,8,13,25,-1029
816,9.319461,2,5,9,10,26,-1035
817,9.331169,2,3,8,13,25,-1029
818,9.342753,2,7,10,13,26,-1032
819,9.3543,1,6,11,16,26,-1030
820,9.365842,1,5,9,13,28,-1030
821,9.377394,1,5,7,9,26,-1038
822,9.38894,3,5,10,16,25,-1037
823,9.400507,2,9,8,14,26,-1040
824,9.412106,2,7,11,17,29,-1036
825,9.42367,2,6,8,13,25,-1035
826,9.435289,1,8,7,13,28,-1037
827,9.446948,3,6,9,15,25,-1035
828,9.45859,2,6,8,11,23,-1032
829,9.470238,3,7,8,16,27,-1037
830,9.481909,2,6,8,15,29,-1034
831,9.493562,1,7,9,14,28,-1039
832,9.505213,2,7,9,12,26,-1036
833,9.516886,3,7,10,15,28,-1037
834,9.528549,2,6,9,19,23,-1032
835,9.54013,2,7,9,12,24,-1038
836,9.551717,2,7,9,10,22,-1030
837,9.563238,3,8,9,12,26,-1035
838,9.574752,0,4,9,15,26,-1038
839,9.586301,3,5,9,14,26,-1036
840,9.597873,1,8,8,10,24,-1027
841,9.609419,1,7,9,15,23,-1037
842,9.620998,3,9,9,15,28,-1033
843,9.632551,3,6,7,15,27,-1030
844,9.644192,4,6,10,12,25,-1041
845,9.655844,3,6,10,10,28,-1035
846,9.667526,2,6,7,15,27,-1032
847,9.679198,1,4,8,14,20,-1034
848,9.690843,2,6,9,11,24,-1039
849,9.702486,1,7,9,16,29,-1033
850,9.714156,2,5,9,15,24,-1033
851,9.725806,2,6,9,14,22,-1035
852,9.737467,2,7,10,15,26,-1040
853,9.749139,3,6,11,15,33,-1025
854,9.760693,1,6,9,15,24,-1039
855,9.772241,0,7,12,15,24,-1035
856,9.783789,1,6,10,15,21,-1039
857,9.795353,3,5,8,12,24,-1033
858,9.806926,2,7,8,14,26,-1028
859,9.818522,4,6,9,15,23,-1032
860,9.830084,3,6,8,14,23,-1036
861,9.841646,3,5,9,15,28,-1032
862,9.853264,2,7,10,12,28,-1032
863,9.864922,2,8,8,16,27,-1039
864,9.876577,4,6,9,18,27,-1038
865,9.888315,4,6,9,16,22,-1031
866,9.899974,2,6,7,9,22,-1038
867,9.911663,1,6,7,18,23,-1036
868,9.923327,1,6,9,10,25,-1039
869,9.934998,2,7,9,16,25,-1032
870,9.946682,4,7,10,15,29,-1027
871,9.95833,2,7,8,15,24,-1036
872,9.969884,2,8,11,9,30,-1032
873,9.981479,3,6,11,16,25,-1033
874,9.993031,2,7,8,20,26,-1034
875,10.004599,4,6,11,16,26,-1036
876,10.016206,3,6,8,16,26,-1030
877,10.027898,1,8,9,11,29,-1036
878,10.039476,1,7,9,11,25,-1036
879,10.051073,2,4,9,13,24,-1034
880,10.062634,1,7,9,15,25,-1031
881,10.074185,1,7,8,11,27,-1031
882,10.085744,2,5,8,18,25,-1035
883,10.097298,1,7,9,15,24,-1039
884,10.108869,1,7,8,14,26,-1033
885,10.120419,3,6,10,16,26,-1037
886,10.131989,2,7,7,11,22,-1038
887,10.143538,2,6,8,12,25,-1037
888,10.155206,1,6,7,12,26,-1032
889,10.166861,3,6,11,18,29,-1036
890,10.17855,2,8,10,17,25,-1034
891,10.190195,3,5,10,11,28,-1031
892,10.201846,1,6,11,12,28,-1033
893,10.213521,4,5,9,15,26,-1037
894,10.22518,2,6,8,12,28,-1031
895,10.236827,3,4,9,18,29,-1032
896,10.248476,2,6,8,9,27,-1036
897,10.260205,3,8,9,15,25,-1038
898,10.271861,2,7,7,13,26,-1032
899,10.283543,3,8,10,14,25,-1037
900,10.295188,1,6,10,14,26,-1037
901,10.306839,4,4,10,13,22,-1036
902,10.318511,4,6,9,13,24,-1034
903,10.330186,1,8,7,15,26,-1032
904,10.34184,1,6,9,11,27,-1035
905,10.353482,3,7,6,13,27,-1037
906,10.365162,1,6,7,13,26,-1034
907,10.376766,3,8,9,13,27,-1032
908,10.38833,3,9,8,12,24,-1036
909,10.399882,2,7,10,15,23,-1030
910,10.411492,3,5,7,15,24,-1037
911,10.423049,2,6,9,21,25,-1033
912,10.434622,3,6,9,14,30,-1033
913,10.446165,1,8,10,15,24,-1035
914,10.457702,0,5,10,13,27,-1038
915,10.46931,2,6,10,14,24,-1036
916,10.480955,1,6,9,15,23,-1030
917,10.492615,2,6,9,16,22,-1032
918,10.504299,3,8,8,16,28,-1040
919,10.515963,1,6,9,18,29,-1033
920,10.527608,2,5,12,14,28,-1033
921,10.539283,2,5,12,16,30,-1037
922,10.550937,2,7,9,18,25,-1036
923,10.562582,3,5,8,16,29,-1039
924,10.57424,3,7,10,15,28,-1033
925,10.585919,2,4,10,16,26,-1035
926,10.597576,2,7,10,18,29,-1032
927,10.609231,1,7,9,15,29,-1033
928,10.620877,2,5,11,13,26,-1034
929,10.632556,2,5,9,15,23,-1032
930,10.644215,3,8,10,16,25,-1032
931,10.655859,1,5,9,13,26,-1036
932,10.667537,4,6,11,13,25,-1032
933,10.67923,1,4,9,13,30,-1038
934,10.690907,3,6,9,14,27,-1031
935,10.70256,3,6,8,16,27,-1041
936,10.714213,3,6,8,15,25,-1036
937,10.725853,2,5,8,16,27,-1031
938,10.737499,1,6,10,13,28,-1036
939,10.749164,1,7,10,15,30,-1026
940,10.76081,2,5,10,16,26,-1034
941,10.772458,2,5,9,14,29,-1030
942,10.784168,2,6,7,14,31,-1034
943,10.795791,0,7,10,12,24,-1035
944,10.807451,3,7,8,15,24,-1040
945,10.819145,0,9,8,12,29,-1034
946,10.830809,1,6,9,12,20,-1036
947,10.842461,3,6,9,17,21,-1034
948,10.854102,4,6,9,15,23,-1031
949,10.86575,2,5,9,12,27,-1032
950,10.877422,2,6,9,14,26,-1033
951,10.88916,1,7,7,16,25,-1033
952,10.900819,3,9,9,15,27,-1036
953,10.912381,2,7,10,14,23,-1036
954,10.92395,1,5,8,14,28,-1031
955,10.935477,0,8,10,17,25,-1027
956,10.946994,1,6,9,13,23,-1034
957,10.958542,2,6,9,16,24,-1035
958,10.970111,2,7,10,13,23,-1037
959,10.981656,0,6,7,12,27,-1032
960,10.993246,0,6,10,12,27,-1029
961,11.004991,2,10,10,14,29,-1030
962,11.016657,3,5,10,10,27,-1036
963,11.028308,1,6,9,10,25,-1035
964,11.039971,3,5,9,12,26,-1035
965,11.051651,0,7,10,13,28,-1032
966,11.063285,1,5,8,16,27,-1038
967,11.074944,0,7,6,12,24,-1037
968,11.086585,1,6,9,16,25,-1033
969,11.098263,2,5,9,15,22,-1027
970,11.109935,2,5,7,15,24,-1037
971,11.121493,4,6,8,11,24,-1032
972,11.13305,1,5,10,12,27,-1037
973,11.144623,3,6,9,14,22,-1040
974,11.156234,3,5,9,14,25,-1037
975,11.16778,2,5,9,15,28,-1033
976,11.179351,4,6,9,16,32,-1032
977,11.190901,2,7,11,9,28,-1033
978,11.202455,4,6,10,17,26,-1031
979,11.214074,2,7,10,13,29,-1032
980,11.225724,1,6,8,14,26,-1035
981,11.237396,1,7,10,15,30,-1037
982,11.249047,1,8,8,11,26,-1035
983,11.260698,3,7,9,13,25,-1030
984,11.272344,5,7,10,18,27,-1033
985,11.284033,3,8,9,17,25,-1028
986,11.295696,2,6,9,9,25,-1037
987,11.307359,2,6,9,13,27,-1040
988,11.319007,3,8,8,17,25,-1030
989,11.330565,3,4,10,13,29,-1039
990,11.342127,2,6,8,11,28,-1039
991,11.353708,1,6,8,14,25,-1028
992,11.365256,1,4,10,14,25,-1032
993,11.376844,2,5,13,15,29,-1034
994,11.388398,0,9,8,13,26,-1029
995,11.399988,2,7,8,15,23,-1028
996,11.411555,1,4,8,12,27,-1044
997,11.423184,3,4,12,12,29,-1032
998,11.434847,2,7,10,17,30,-1032
999,11.4465,3,7,7,14,27,-1033
1000,11.458165,1,10,9,16,27,-1037
1001,11.469817,3,6,8,15,23,-1041
1002,11.481459,4,7,9,13,29,-1035
1003,11.493114,2,6,10,17,25,-1034
1004,11.504798,3,6,10,14,30,-1036
1005,11.516455,2,6,9,13,27,-1031
1006,11.528119,3,6,10,13,22,-1036
1007,11.539702,0,6,12,14,22,-1035
1008,11.551235,4,6,11,15,22,-1031
1009,11.562754,4,6,9,13,26,-1033
1010,11.57432,0,6,10,14,27,-1032
1011,11.585876,2,6,9,11,27,-1035
1012,11.597422,2,6,9,11,24,-1034
1013,11.60899,2,7,8,13,28,-1038
1014,11.620555,2,6,10,17,28,-1038
1015,11.632232,2,7,8,17,25,-1028
1016,11.643927,1,8,11,12,29,-1033
1017,11.655591,2,5,8,10,26,-1038
1018,11.66729,3,4,9,15,22,-1033
1019,11.678946,3,4,9,13,27,-1036
1020,11.690605,0,8,9,17,26,-1034
1021,11.702264,3,7,7,15,25,-1033
1022,11.713928,2,5,9,12,24,-1034
1023,11.725592,3,7,10,15,25,-1031
1024,11.737272,0,6,9,20,25,-1036
1025,11.748901,2,6,10,13,27,-1041
1026,11.760448,1,5,10,16,23,-1032
1027,11.772005,1,7,10,18,26,-1029
1028,11.783589,4,6,9,14,24,-1040
1029,11.79515,1,7,9,15,28,-1030
1030,11.806758,1,4,10,15,26,-1042
1031,11.818326,3,6,10,17,30,-1033
1032,11.829872,3,6,10,16,27,-1029
1033,11.841545,1,7,10,16,27,-1036
1034,11.853195,2,6,9,15,21,-1032
1035,11.864874,2,5,10,15,26,-1033
1036,11.876531,2,6,10,12,28,-1045
1037,11.888199,2,8,8,12,25,-1040
1038,11.899868,2,6,9,14,26,-1027
1039,11.911538,3,6,10,18,28,-1033
1040,11.923203,3,6,8,12,27,-1038
1041,11.934884,2,6,9,17,22,-1036
1042,11.946482,4,5,8,17,27,-1041
1043,11.958038,3,5,10,13,27,-1029
1044,11.969587,0,7,7,16,23,-1029
1045,11.981143,3,7,9,13,26,-1032
1046,11.992685,3,5,9,16,26,-1038
1047,12.004251,4,8,11,11,31,-1028
1048,12.015795,1,8,8,13,25,-1034
1049,12.027361,3,7,8,13,27,-1030
1050,12.038934,4,7,9,17,28,-1030
1051,12.050563,3,6,9,13,25,-1031
1052,12.062246,3,4,9,14,28,-1035
1053,12.073909,1,4,8,10,28,-1027
1054,12.085562,2,8,9,12,23,-1034
1055,12.097221,2,7,11,13,27,-1042
1056,12.10892,3,7,9,11,24,-1034
1057,12.120576,2,7,9,15,26,-1035
1058,12.132279,1,6,10,15,25,-1040
1059,12.143945,1,6,10,14,28,-1031
1060,12.155648,4,8,8,14,23,-1039
1061,12.167231,1,6,10,18,24,-1031
1062,12.178754,1,6,8,15,27,-1032
1063,12.190336,1,7,10,9,27,-1031
1064,12.201888,4,6,10,14,25,-1035
1065,12.213466,2,7,9,15,29,-1033
1066,12.225011,1,6,11,10,27,-1030
1067,12.236555,2,5,9,13,26,-1027
1068,12.248125,4,8,10,13,27,-1033
1069,12.259802,2,7,10,14,26,-1038
1070,12.271471,3,8,9,12,28,-1033
1071,12.283176,0,6,10,13,23,-1034
1072,12.294832,2,8,9,12,28,-1033
1073,12.306491,1,7,9,13,24,-1035
1074,12.31816,2,7,10,19,28,-1038
1075,12.329819,3,5,9,14,25,-1034
1076,12.341465,2,7,9,12,26,-1030
1077,12.353145,1,6,9,18,28,-1032
1078,12.364887,4,5,9,14,28,-1035
1079,12.376443,1,8,7,13,23,-1035
1080,12.38799,1,7,10,15,28,-1036
1081,12.399549,3,6,8,14,26,-1032
1082,12.411124,2,7,8,14,25,-1034
1083,12.422663,1,6,11,15,30,-1032
1084,12.434202,2,7,8,12,24,-1034
1085,12.445749,2,5,6,15,27,-1031
1086,12.457328,2,7,7,13,26,-1038
1087,12.468949,2,6,9,13,24,-1033
1088,12.480682,2,5,8,14,22,-1034
1089,12.492339,2,6,9,14,27,-1036
1090,12.504038,3,8,12,14,27,-1041
1091,12.515702,3,7,10,13,26,-1029
1092,12.527349,3,6,9,10,28,-1035
1093,12.53902,4,6,9,16,24,-1034
1094,12.550672,2,7,10,14,31,-1036
1095,12.562329,0,6,10,17,28,-1041
1096,12.574009,2,7,10,15,23,-1033
1097,12.585602,2,5,9,13,26,-1035
1098,12.597141,4,7,10,19,28,-1030
1099,12.608684,2,6,8,20,27,-1031
1100,12.620232,2,7,8,11,24,-1037
1101,12.631782,3,8,9,13,26,-1041
1102,12.643367,0,6,11,14,23,-1036
1103,12.654917,3,6,10,12,26,-1032
1104,12.66648,4,6,8,12,26,-1033
1105,12.678115,2,6,7,10,26,-1033
1106,12.689769,3,6,9,12,23,-1033
1107,12.701433,2,6,10,14,26,-1032
1108,12.713086,3,7,10,11,29,-1037
1109,12.724728,1,6,8,14,23,-1033
1110,12.736396,3,9,10,16,25,-1032
1111,12.748054,3,7,10,16,23,-1032
1112,12.759696,3,6,10,17,27,-1033
1113,12.771356,2,8,11,11,26,-1032
1114,12.783026,1,6,9,14,23,-1033
1115,12.794608,2,5,11,12,27,-1034
1116,12.806162,2,6,10,16,26,-1032
1117,12.817728,2,6,8,12,21,-1038
1118,12.829273,2,8,11,15,24,-1028
1119,12.840825,6,9,9,15,26,-1037
1120,12.8524,2,7,8,12,23,-1037
1121,12.863959,1,6,11,14,27,-1032
1122,12.875491,3,5,7,16,28,-1031
1123,12.887187,3,6,10,14,25,-1027
1124,12.898834,3,6,8,17,27,-1034
1125,12.910479,1,8,9,14,26,-1032
1126,12.922158,2,6,8,13,23,-1039
1127,12.9338,4,5,9,10,27,-1034
1128,12.94545,2,6,9,14,32,-1030
1129,12.957119,1,7,8,12,29,-1038
1130,12.968783,1,5,12,13,27,-1042
1131,12.980443,3,5,8,16,23,-1041
1132,12.992121,2,7,8,15,27,-1034
1133,13.003788,2,6,7,14,28,-1041
1134,13.015444,3,6,9,14,26,-1032
1135,13.027108,3,6,10,12,26,-1037
1136,13.038763,3,8,9,18,27,-1034
1137,13.050412,3,7,9,14,26,-1030
1138,13.062051,3,6,10,12,20,-1039
1139,13.073701,1,9,9,18,26,-1036
1140,13.08537,2,6,8,14,27,-1037
1141,13.097031,3,6,9,14,25,-1035
1142,13.10868,2,7,9,10,25,-1035
1143,13.120325,2,7,8,13,27,-1040
1144,13.131975,4,6,10,16,25,-1040
1145,13.143664,1,7,11,11,27,-1033
1146,13.155327,2,7,7,13,25,-1036
1147,13.167026,3,5,10,13,25,-1038
1148,13.178665,2,5,10,12,29,-1032
1149,13.190375,2,5,10,17,27,-1037
1150,13.202048,3,7,7,14,29,-1036
1151,13.213604,2,6,9,17,25,-1032
1152,13.22517,0,4,9,14,29,-1037
1153,13.236721,4,6,9,12,27,-1033
1154,13.248266,2,6,7,10,29,-1032
1155,13.259851,1,5,8,10,27,-1040
1156,13.271403,3,7,8,17,27,-1036
1157,13.282986,1,5,8,14,26,-1034
1158,13.294535,0,8,9,16,27,-1037
1159,13.306163,2,8,9,14,26,-1033
1160,13.317805,2,8,9,13,26,-1034
1161,13.32945,3,7,9,15,21,-1033
1162,13.341115,1,4,7,9,25,-1029
1163,13.352787,4,7,10,14,25,-1035
1164,13.364431,3,5,8,13,28,-1033
1165,13.376042,3,7,9,10,25,-1033
1166,13.387698,1,7,7,13,25,-1032
1167,13.399355,2,4,10,16,28,-1036
1168,13.411024,3,4,10,13,24,-1039
1169,13.422674,2,6,9,14,27,-1032
1170,13.434319,3,7,11,11,27,-1030
1171,13.445966,2,6,10,11,29,-1039
1172,13.457603,2,6,9,15,29,-1034
1173,13.469244,1,4,10,14,24,-1032
1174,13.480904,3,5,10,13,24,-1031
1175,13.492543,3,9,12,14,27,-1034
1176,13.504221,2,6,9,9,29,-1033
1177,13.515918,2,5,9,17,24,-1035
1178,13.52757,1,9,9,21,27,-1036
1179,13.539216,1,7,9,16,24,-1040
1180,13.550903,1,7,10,14,24,-1031
1181,13.562547,2,6,9,12,27,-1040
1182,13.57419,3,8,10,16,26,-1033
1183,13.58585,5,7,9,14,24,-1040
1184,13.597534,1,3,8,15,26,-1037
1185,13.609216,0,6,10,15,26,-1039
1186,13.620891,1,7,9,12,23,-1033
1187,13.632545,4,7,11,15,23,-1036
1188,13.644198,2,8,8,14,29,-1036
1189,13.655864,0,7,10,15,22,-1031
1190,13.667524,3,5,10,10,26,-1031
1191,13.679177,2,7,7,12,24,-1031
1192,13.690824,3,5,10,16,26,-1035
1193,13.702466,2,8,11,13,24,-1036
1194,13.714127,2,5,9,15,26,-1034
1195,13.725732,3,5,10,10,25,-1032
1196,13.737316,1,7,9,14,27,-1034
1197,13.748866,2,7,8,14,28,-1030
1198,13.760444,3,7,8,13,25,-1037
1199,13.772003,2,8,10,14,28,-1032
1200,13.783607,1,7,9,16,27,-1035
1201,13.795155,2,5,8,16,23,-1039
1202,13.806729,2,8,9,12,22,-1032
1203,13.818287,2,6,9,15,28,-1038
1204,13.829923,2,4,10,14,32,-1029
1205,13.841617,2,7,12,13,22,-1040
1206,13.853282,1,4,8,12,28,-1032
1207,13.864935,1,5,9,16,26,-1029
1208,13.876602,1,7,11,12,27,-1038
1209,13.888291,3,5,9,14,27,-1029
1210,13.899953,2,7,11,15,26,-1036
1211,13.911622,0,7,11,17,28,-1035
1212,13.923299,3,6,9,10,28,-1036
1213,13.93495,1,5,8,14,26,-1034
1214,13.946512,3,6,9,17,23,-1039
1215,13.958091,2,7,11,14,25,-1033
1216,13.969659,1,6,8,15,26,-1033
1217,13.981211,4,8,8,15,27,-1033
1218,13.992802,4,7,8,14,23,-1040
1219,14.004547,3,7,9,17,27,-1035
1220,14.016142,2,6,9,12,30,-1028
1221,14.027714,3,6,8,17,24,-1035
1222,14.039278,3,6,11,15,24,-1033
1223,14.050886,3,8,9,14,27,-1029
1224,14.062487,0,6,11,14,25,-1035
1225,14.074037,3,8,8,14,23,-1034
1226,14.0856,3,8,8,12,29,-1026
1227,14.097137,2,5,10,15,26,-1033
1228,14.108681,3,7,8,18,25,-1036
1229,14.120235,0,5,11,10,23,-1037
1230,14.131788,2,7,9,14,26,-1039
1231,14.143435,0,3,8,15,26,-1029
1232,14.155096,2,7,9,15,24,-1034
1233,14.166774,2,5,10,16,26,-1036
1234,14.178437,1,6,11,13,28,-1031
1235,14.190077,3,4,8,15,26,-1036
1236,14.201727,2,8,8,16,26,-1038
1237,14.213391,3,7,11,13,25,-1036
1238,14.225028,3,4,9,12,25,-1036
1239,14.236701,2,6,7,15,27,-1041
1240,14.248393,2,6,9,15,26,-1033
1241,14.259979,2,6,8,12,27,-1036
1242,14.27153,2,7,10,19,26,-1039
1243,14.283122,1,6,11,14,28,-1031
1244,14.294665,4,5,9,12,25,-1040
1245,14.306214,2,7,11,13,26,-1040
1246,14.317768,1,7,10,12,28,-1035
1247,14.32934,3,7,9,8,23,-1031
1248,14.340979,3,7,10,16,29,-1035
1249,14.352609,2,4,6,16,27,-1042
1250,14.364289,2,7,8,13,26,-1036
1251,14.375949,2,7,10,17,24,-1035
1252,14.387624,2,5,10,14,29,-1030
1253,14.399282,2,6,10,12,27,-1036
1254,14.41094,2,7,9,14,22,-1033
1255,14.422608,2,6,11,15,27,-1038
1256,14.434262,1,7,10,12,28,-1039
1257,14.445926,1,8,8,12,27,-1032
1258,14.457591,2,8,9,12,29,-1034
1259,14.469178,1,7,10,10,25,-1036
1260,14.480742,2,6,7,17,28,-1030
1261,14.492314,2,7,7,13,26,-1037
1262,14.503867,2,5,9,13,26,-1034
1263,14.515421,3,5,9,13,31,-1030
1264,14.526996,2,5,10,19,29,-1040
1265,14.538545,1,6,9,11,30,-1029
1266,14.550118,0,6,10,14,25,-1034
1267,14.561768,3,9,9,13,28,-1029
1268,14.573424,2,6,10,16,26,-1033
1269,14.585077,2,6,11,17,26,-1032
1270,14.596729,3,6,9,13,25,-1032
1271,14.608397,3,6,9,16,27,-1030
1272,14.620056,1,6,9,15,23,-1032
1273,14.631702,0,7,10,13,27,-1031
1274,14.643356,3,9,8,12,28,-1034
1275,14.65502,2,5,9,19,26,-1033
1276,14.666598,2,7,9,15,28,-1034
1277,14.678152,3,5,9,12,29,-1036
1278,14.689726,2,5,10,15,24,-1033
1279,14.701283,2,9,10,16,26,-1035
1280,14.712883,4,8,9,16,25,-1031
1281,14.724424,0,7,8,15,24,-1032
1282,14.735964,1,6,9,15,26,-1037
1283,14.747521,0,4,9,17,28,-1033
1284,14.759121,1,7,10,11,23,-1043
1285,14.770768,1,6,9,15,29,-1041
1286,14.782418,2,7,8,12,27,-1037
1287,14.794071,2,7,11,21,25,-1033
1288,14.805715,1,7,9,11,30,-1034
1289,14.817393,3,6,10,13,23,-1034
1290,14.829057,1,8,8,16,29,-1035
1291,14.840734,2,8,9,12,24,-1038
1292,14.852392,2,5,7,17,27,-1034
1293,14.864071,4,5,10,10,29,-1034
1294,14.875715,3,3,9,14,23,-1040
1295,14.887407,1,6,10,12,22,-1034
1296,14.89907,3,8,7,9,26,-1032
1297,14.910744,0,7,8,19,22,-1031
1298,14.9224,1,6,9,13,28,-1036
1299,14.934049,1,8,10,15,25,-1040
1300,14.945701,2,6,7,13,26,-1032
1301,14.957397,0,7,9,17,26,-1040
1302,14.969055,1,7,11,14,27,-1032
1303,14.980728,2,9,11,15,23,-1035
1304,14.992388,2,6,8,13,27,-1035
1305,15.004054,3,5,8,12,26,-1032
1306,15.015731,2,4,9,15,29,-1028
1307,15.027416,3,4,10,16,24,-1040
1308,15.039075,3,6,11,15,23,-1034
1309,15.050768,3,6,9,11,24,-1035
1310,15.062408,3,8,10,13,26,-1024
1311,15.073996,2,6,9,10,24,-1036
1312,15.085583,1,6,10,14,28,-1035
1313,15.097124,2,9,10,10,24,-1031
1314,15.108667,3,5,10,17,28,-1038
1315,15.120219,1,7,10,15,25,-1035
1316,15.131778,1,8,6,12,28,-1033
1317,15.143397,4,6,10,17,24,-1037
1318,15.154995,1,5,8,13,28,-1036
1319,15.166576,2,7,6,14,24,-1035
1320,15.178237,2,6,10,12,27,-1033
1321,15.189914,1,6,8,12,30,-1042
1322,15.201583,1,6,9,18,27,-1034
1323,15.213235,1,6,11,12,24,-1028
1324,15.224905,3,5,8,15,26,-1033
1325,15.236558,3,5,8,13,30,-1035
1326,15.248214,2,6,10,17,23,-1040
1327,15.25986,1,6,10,17,27,-1032
1328,15.271552,3,5,9,14,28,-1033
1329,15.283254,1,7,8,14,25,-1036
1330,15.294822,3,6,10,14,21,-1033
1331,15.306378,3,6,9,13,22,-1037
1332,15.317923,3,8,9,15,25,-1033
1333,15.329532,3,7,9,13,24,-1028
1334,15.341096,1,5,8,12,20,-1034
1335,15.352664,1,5,8,15,23,-1044
1336,15.364224,1,5,9,14,24,-1028
1337,15.375782,3,5,8,14,27,-1035
1338,15.387413,3,5,9,13,23,-1036
1339,15.399069,0,6,9,15,26,-1032
1340,15.410752,3,4,9,13,25,-1032
1341,15.422405,3,8,9,12,28,-1033
1342,15.43405,2,5,8,13,23,-1026
1343,15.44572,4,7,7,13,29,-1041
1344,15.457386,2,6,10,14,26,-1035
1345,15.469033,1,5,8,15,22,-1039
1346,15.4807,2,6,8,13,28,-1036
1347,15.492352,3,5,10,16,26,-1034
1348,15.503969,3,6,9,12,23,-1035
1349,15.515529,3,7,11,16,25,-1036
1350,15.52711,3,5,10,11,25,-1032
1351,15.53865,3,7,8,15,27,-1029
1352,15.550192,3,6,10,15,28,-1034
1353,15.561737,1,6,10,16,26,-1034
1354,15.573303,2,6,10,17,26,-1028
1355,15.584862,3,6,8,14,26,-1040
1356,15.59656,1,6,8,11,27,-1035
1357,15.608255,4,7,10,17,25,-1037
1358,15.61993,1,7,7,15,23,-1027
1359,15.631585,2,6,10,16,28,-1034
1360,15.643283,2,5,9,12,20,-1040
1361,15.654935,0,5,9,13,28,-1034
1362,15.666596,1,7,9,18,30,-1038
1363,15.678271,1,5,9,13,23,-1028
1364,15.689925,2,8,9,13,24,-1032
1365,15.701578,1,6,10,17,25,-1037
1366,15.71314,3,6,9,14,21,-1036
1367,15.724717,2,8,9,11,22,-1036
1368,15.736262,1,7,7,14,25,-1032
1369,15.747838,4,6,8,16,29,-1038
1370,15.759395,1,6,9,15,20,-1033
1371,15.770989,4,6,8,15,25,-1038
1372,15.782574,3,7,7,14,27,-1035
1373,15.794129,1,8,11,13,25,-1031
1374,15.805779,1,6,9,12,26,-1032
1375,15.817469,2,6,9,13,26,-1033
1376,15.829136,2,5,9,14,27,-1032
1377,15.840781,4,8,7,13,27,-1036
1378,15.852432,2,8,8,14,27,-1033
1379,15.864046,3,6,9,15,25,-1043
1380,15.875697,3,5,10,13,23,-1034
1381,15.887393,1,6,8,11,25,-1040
1382,15.899052,2,6,11,11,32,-1030
1383,15.9107,3,8,9,11,23,-1033
1384,15.922375,2,5,9,12,22,-1039
1385,15.934024,3,6,11,15,24,-1038
1386,15.945671,3,5,11,16,28,-1031
1387,15.957328,0,6,9,7,30,-1033
1388,15.968977,2,7,7,16,30,-1030
1389,15.980669,4,7,8,17,23,-1035
1390,15.992324,1,7,10,16,22,-1029
1391,16.004053,0,7,9,10,27,-1036
1392,16.015627,1,5,8,18,24,-1038
1393,16.027231,3,5,9,14,27,-1033
1394,16.038802,1,7,10,13,28,-1035
1395,16.05036,2,5,9,12,28,-1036
1396,16.061904,3,7,7,10,32,-1040
1397,16.073457,2,4,9,15,28,-1033
1398,16.085006,3,6,8,14,27,-1032
1399,16.096572,2,5,9,13,25,-1034
1400,16.108148,4,3,10,15,22,-1035
1401,16.119848,2,5,10,11,25,-1036
1402,16.131536,4,9,8,14,26,-1032
1403,16.143184,2,6,8,12,28,-1036
1404,16.154836,2,5,9,20,25,-1034
1405,16.166516,3,8,7,13,25,-1034
1406,16.178153,4,7,9,14,26,-1036
1407,16.189832,2,6,9,16,24,-1037
1408,16.201515,3,7,10,13,26,-1033
1409,16.213154,3,5,6,15,28,-1035
1410,16.224732,1,7,9,14,27,-1036
1411,16.236295,1,6,10,15,25,-1032
1412,16.247851,1,8,8,13,28,-1033
1413,16.25941,3,5,10,15,29,-1035
1414,16.270992,3,7,9,16,27,-1035
1415,16.282544,1,6,6,10,26,-1028
1416,16.294105,2,7,9,15,25,-1040
1417,16.305702,1,7,7,10,26,-1030
1418,16.317297,0,6,7,12,25,-1029
1419,16.328914,4,5,10,14,26,-1031
1420,16.340573,2,5,9,14,26,-1029
1421,16.352228,2,7,8,13,23,-1030
1422,16.3639,2,6,11,14,27,-1037
1423,16.375535,2,6,10,14,27,-1035
1424,16.387186,4,7,9,12,25,-1032
1425,16.398838,1,5,9,13,27,-1031
1426,16.41051,1,5,11,14,25,-1043
1427,16.422167,1,6,9,15,26,-1031
1428,16.433841,1,7,8,13,24,-1033
1429,16.445448,1,6,8,8,25,-1039
1430,16.456997,3,6,9,13,25,-1035
1431,16.468542,2,6,9,18,25,-1034
1432,16.480103,1,6,9,14,25,-1030
1433,16.491711,3,7,11,14,26,-1032
1434,16.503235,3,7,9,15,25,-1036
1435,16.514751,3,8,7,15,24,-1030
1436,16.526294,1,9,10,14,27,-1036
1437,16.537949,3,7,11,16,24,-1032
1438,16.549594,2,7,6,14,26,-1033
1439,16.561277,2,6,9,11,27,-1041
1440,16.572928,3,5,11,11,27,-1032
1441,16.584569,2,6,8,13,24,-1038
1442,16.596227,3,6,9,14,26,-1037
1443,16.607915,1,6,10,12,28,-1039
1444,16.619533,4,7,9,15,24,-1037
1445,16.631204,2,5,9,12,23,-1036
1446,16.642891,2,6,10,14,25,-1034
1447,16.654534,2,5,8,11,24,-1028
1448,16.666181,2,7,9,16,28,-1033
1449,16.677854,2,5,7,12,28,-1037
1450,16.689507,1,8,9,12,26,-1030
1451,16.701158,2,7,9,13,27,-1032
1452,16.712806,3,6,9,16,27,-1028
1453,16.724478,1,4,7,15,26,-1044
1454,16.736202,1,7,9,13,26,-1036
1455,16.747861,2,5,9,14,26,-1037
1456,16.759531,2,5,9,10,25,-1030
1457,16.771189,1,6,10,13,27,-1036
1458,16.782836,1,5,8,11,25,-1031
1459,16.794494,2,5,11,10,28,-1034
1460,16.806152,3,5,11,12,24,-1036
1461,16.81782,4,4,9,13,24,-1027
1462,16.829472,0,6,8,14,29,-1025
1463,16.841156,4,7,10,13,29,-1034
1464,16.852817,2,7,7,15,27,-1031
1465,16.864372,3,7,8,13,23,-1034
1466,16.875957,2,4,10,8,23,-1032
1467,16.88748,3,8,8,10,25,-1032
1468,16.899056,1,6,8,13,27,-1034
1469,16.910606,2,7,10,13,25,-1038
1470,16.922187,3,6,9,15,23,-1036
1471,16.933759,3,3,10,12,20,-1038
1472,16.945345,2,6,9,15,23,-1030
1473,16.956969,3,7,10,17,25,-1037
1474,16.968625,2,6,8,14,24,-1038
1475,16.980305,3,5,10,14,27,-1030
1476,16.991957,1,7,8,15,22,-1033
1477,17.003653,3,6,11,11,27,-1035
1478,17.015283,2,6,11,14,25,-1030
1479,17.026931,3,6,10,16,27,-1032
1480,17.038605,5,9,11,16,27,-1032
1481,17.050282,3,6,10,13,26,-1031
1482,17.061929,2,7,10,12,26,-1033
1483,17.073482,4,8,9,13,25,-1031
1484,17.085066,3,5,6,14,21,-1035
1485,17.09662,4,5,9,14,30,-1034
1486,17.10821,3,5,8,14,24,-1034
1487,17.119758,2,8,9,13,25,-1036
1488,17.131316,1,7,9,16,23,-1032
1489,17.142875,2,6,10,11,27,-1029
1490,17.154431,0,7,8,16,24,-1032
1491,17.166048,2,7,10,11,27,-1032
1492,17.177694,0,5,10,15,28,-1031
1493,17.189363,1,4,9,14,27,-1031
1494,17.20101,2,7,8,15,25,-1031
1495,17.21266,2,8,10,12,26,-1029
1496,17.224307,2,5,9,16,22,-1033
1497,17.235987,2,8,10,13,25,-1036
1498,17.247668,2,6,8,14,25,-1032
1499,17.259343,3,6,10,16,22,-1031
1500,17.270893,2,6,9,14,23,-1034
1501,17.282439,4,7,9,15,23,-1037
1502,17.293986,3,4,10,13,26,-1027
1503,17.305601,2,7,8,15,28,-1038
1504,17.317184,2,5,10,16,23,-1028
1505,17.328729,4,6,11,14,29,-1038
1506,17.340268,4,6,9,10,23,-1037
1507,17.351834,1,8,11,16,28,-1031
1508,17.363393,1,4,10,16,21,-1031
1509,17.375023,2,7,8,14,32,-1038
1510,17.386673,3,8,9,14,25,-1035
1511,17.39834,1,7,11,12,26,-1032
1512,17.410005,1,7,8,12,27,-1030
1513,17.421655,3,6,11,7,28,-1033
1514,17.433304,2,6,10,13,25,-1035
1515,17.444974,3,7,10,14,28,-1041
1516,17.456666,4,7,10,13,25,-1036
1517,17.468437,1,7,9,13,27,-1039
1518,17.480233,2,4,10,12,26,-1032
1519,17.491835,1,4,11,14,20,-1037
1520,17.50341,2,5,9,11,31,-1036
1521,17.514986,1,6,10,12,27,-1036
1522,17.526555,3,6,9,15,26,-1032
1523,17.538093,4,7,12,11,25,-1036
1524,17.549637,2,6,9,12,28,-1028
1525,17.561188,4,7,9,17,24,-1034
1526,17.57275,3,6,9,15,22,-1036
1527,17.584375,2,9,10,17,26,-1032
1528,17.596053,2,3,9,14,23,-1037
1529,17.607735,3,7,10,14,28,-1030
1530,17.619419,2,6,10,12,25,-1031
1531,17.631081,3,6,8,12,25,-1039
1532,17.642763,3,6,8,14,25,-1038
1533,17.654406,3,7,10,17,23,-1038
1534,17.666053,1,6,9,16,24,-1035
1535,17.677775,2,7,9,14,29,-1030
1536,17.689427,3,6,10,15,25,-1032
1537,17.700992,2,5,10,15,24,-1041
1538,17.712571,1,8,8,13,29,-1039
1539,17.724141,2,6,9,15,28,-1039
1540,17.735712,3,7,9,15,28,-1029
1541,17.747237,1,7,9,14,26,-1031
1542,17.758814,4,6,9,12,25,-1036
1543,17.770363,2,6,10,15,28,-1030
1544,17.781951,4,6,7,11,23,-1037
1545,17.793589,0,6,9,10,26,-1035
1546,17.80525,3,8,9,14,29,-1031
1547,17.816907,1,5,8,14,26,-1028
1548,17.828577,2,7,10,14,22,-1041
1549,17.840249,2,4,10,16,24,-1032
1550,17.851916,1,7,7,12,26,-1031
1551,17.863538,4,5,8,12,23,-1032
1552,17.875202,2,6,10,13,23,-1034
1553,17.886899,1,5,11,14,24,-1034
1554,17.898558,3,5,10,16,27,-1035
1555,17.910129,2,6,10,14,28,-1036
1556,17.921704,2,6,9,14,24,-1036
1557,17.93326,2,6,11,15,24,-1032
1558,17.944832,2,4,10,12,25,-1031
1559,17.956376,3,5,9,11,24,-1034
1560,17.967958,2,7,9,16,28,-1031
1561,17.979532,1,7,8,16,27,-1036
1562,17.991123,2,5,9,12,23,-1033
1563,18.002767,1,6,7,15,28,-1038
1564,18.014423,0,6,8,13,26,-1036
1565,18.026098,1,8,9,11,23,-1032
1566,18.037779,2,4,11,12,26,-1035
1567,18.049431,2,8,9,15,28,-1036
1568,18.061102,4,6,10,13,26,-1039
1569,18.07276,2,4,10,18,25,-1036
1570,18.084409,3,6,10,16,25,-1040
1571,18.096063,1,7,9,13,28,-1032
1572,18.107729,3,6,9,17,31,-1040
1573,18.119313,3,7,9,12,27,-1025
1574,18.130881,0,6,9,17,29,-1034
1575,18.142468,1,8,9,14,28,-1036
1576,18.154028,1,5,9,15,26,-1032
1577,18.165577,2,6,9,12,24,-1039
1578,18.177115,2,6,7,13,27,-1034
1579,18.188664,2,5,10,15,25,-1034
1580,18.200227,2,6,10,13,24,-1038
1581,18.211854,3,6,10,15,24,-1034
1582,18.223533,2,7,9,14,22,-1032
1583,18.235214,1,7,9,12,23,-1032
1584,18.246902,2,6,11,10,28,-1030
1585,18.258564,4,5,11,14,29,-1026
1586,18.27024,2,7,9,15,24,-1033
1587,18.281894,1,6,9,15,22,-1038
1588,18.293568,2,7,9,16,26,-1032
1589,18.305236,2,7,9,15,27,-1035
1590,18.316892,3,5,7,16,26,-1033
1591,18.328468,1,7,11,15,31,-1037
1592,18.340045,2,5,7,12,30,-1034
1593,18.351609,2,5,9,16,26,-1039
1594,18.363163,2,8,9,12,23,-1040
1595,18.374737,3,5,10,17,25,-1039
1596,18.386282,3,6,9,11,24,-1032
1597,18.397825,3,7,8,18,25,-1039
1598,18.409411,2,7,11,13,30,-1037
1599,18.421039,3,5,9,14,27,-1038
1600,18.432715,4,7,8,10,28,-1035
1601,18.44437,1,8,8,14,28,-1037
1602,18.45604,1,6,9,16,26,-1037
1603,18.467726,3,7,8,16,23,-1037
1604,18.479408,1,8,10,13,25,-1033
1605,18.49107,3,7,9,17,25,-1038
1606,18.502765,3,7,9,13,25,-1033
1607,18.514423,2,8,10,13,28,-1038
1608,18.526094,4,5,10,13,24,-1032
1609,18.537646,2,7,9,16,26,-1035
1610,18.549195,2,5,10,12,25,-1037
1611,18.560747,2,5,8,15,27,-1032
1612,18.572318,4,6,8,16,27,-1038
1613,18.586263,0,6,8,14,22,-1032
1614,18.597852,2,5,9,14,21,-1032
1615,18.609439,2,6,8,12,26,-1034
1616,18.621003,2,8,10,13,28,-1032
1617,18.632569,2,6,8,14,24,-1029
1618,18.64412,2,6,10,16,24,-1031
1619,18.655696,2,5,7,13,25,-1033
1620,18.66724,4,8,10,13,22,-1034
1621,18.678817,2,7,8,14,24,-1044
1622,18.690368,4,5,8,10,27,-1038
1623,18.701939,2,5,10,13,25,-1023
1624,18.713478,3,7,10,13,28,-1038
1625,18.725104,3,7,11,10,27,-1036
1626,18.736764,1,6,7,14,26,-1033
1627,18.748442,1,7,9,15,21,-1038
1628,18.760117,1,6,8,14,28,-1035
1629,18.77179,2,6,8,14,27,-1039
1630,18.783449,2,8,9,11,24,-1032
1631,18.795156,4,6,11,18,29,-1034
1632,18.806841,0,6,9,12,22,-1035
1633,18.818498,4,7,10,17,28,-1036
1634,18.830162,3,8,10,16,23,-1043
1635,18.841821,1,5,9,12,27,-1034
1636,18.853478,2,6,8,15,24,-1032
1637,18.865134,4,6,11,13,29,-1032
1638,18.87679,2,9,7,14,25,-1034
1639,18.888441,1,6,9,14,26,-1034
1640,18.900104,4,9,7,12,25,-1036
1641,18.911791,4,7,9,17,27,-1028
1642,18.923443,3,6,9,12,21,-1037
1643,18.935212,2,6,8,12,21,-1033
1644,18.946897,1,6,11,14,25,-1034
1645,18.958461,2,6,9,15,26,-1038
1646,18.97002,2,6,10,13,27,-1034
1647,18.981573,1,6,10,15,23,-1037
1648,18.993113,1,7,11,14,28,-1034
1649,19.004661,2,6,9,13,26,-1034
1650,19.016208,3,8,6,16,23,-1041
1651,19.027757,3,5,10,14,22,-1035
1652,19.039335,2,3,8,12,24,-1035
1653,19.05103,2,7,9,13,28,-1042
1654,19.062672,2,7,8,11,25,-1042
1655,19.074339,3,6,8,17,27,-1030
1656,19.086,0,7,10,15,19,-1033
1657,19.097637,2,5,11,13,25,-1037
1658,19.109281,1,6,8,12,21,-1028
1659,19.120959,1,7,9,11,21,-1032
1660,19.132613,2,6,6,14,26,-1035
1661,19.144308,1,5,7,13,30,-1036
1662,19.155989,4,6,9,12,25,-1039
1663,19.167551,5,6,8,10,27,-1033
1664,19.179142,1,5,8,18,26,-1037
1665,19.190696,1,5,8,14,27,-1032
1666,19.202254,3,7,10,16,26,-1040
1667,19.21382,1,7,9,13,28,-1039
1668,19.225372,3,5,10,15,25,-1035
1669,19.236942,2,6,8,12,24,-1031
1670,19.248495,2,8,10,11,28,-1033
1671,19.260143,3,6,9,12,24,-1034
1672,19.271788,2,6,11,15,24,-1031
1673,19.283468,0,6,8,15,30,-1038
1674,19.295156,2,6,9,15,28,-1030
1675,19.306804,1,6,10,15,28,-1033
1676,19.318455,0,8,8,12,23,-1036
1677,19.330126,1,5,8,14,23,-1037
1678,19.341768,3,7,10,13,26,-1031
1679,19.353431,1,7,12,11,22,-1038
1680,19.365106,2,5,8,13,25,-1030
1681,19.376708,2,3,9,15,26,-1029
1682,19.388282,3,6,7,16,28,-1036
1683,19.399847,4,7,9,13,22,-1036
1684,19.411406,0,6,7,12,25,-1038
1685,19.422987,2,5,9,17,27,-1031
1686,19.434559,5,7,9,10,23,-1034
1687,19.446121,4,5,9,16,25,-1034
1688,19.457704,3,5,8,14,25,-1038
1689,19.469341,1,6,9,12,29,-1033
1690,19.481011,1,7,10,18,26,-1034
1691,19.492654,1,9,9,13,26,-1034
1692,19.5043,4,6,9,16,24,-1033
1693,19.515976,1,9,8,16,27,-1038
1694,19.527656,2,7,10,17,25,-1031
1695,19.539321,2,7,9,13,21,-1030
1696,19.551034,3,8,10,15,28,-1035
1697,19.562757,3,6,10,13,26,-1033
1698,19.574406,1,5,7,10,29,-1029
1699,19.58596,1,7,8,13,23,-1036
1700,19.597538,2,6,9,12,27,-1036
1701,19.60909,4,7,10,13,28,-1040
1702,19.620672,1,5,9,15,27,-1031
1703,19.632217,1,8,9,14,27,-1038
1704,19.643764,3,8,9,12,25,-1033
1705,19.655314,3,5,8,13,26,-1035
1706,19.666884,3,6,10,15,24,-1034
1707,19.678497,2,8,10,18,22,-1038
1708,19.690148,2,7,9,11,25,-1036
1709,19.701812,2,7,9,15,27,-1027
1710,19.713478,3,8,10,13,26,-1034
1711,19.725132,3,7,11,12,28,-1035
1712,19.736779,1,6,10,13,24,-1036
1713,19.748444,1,5,8,13,27,-1028
1714,19.760101,1,7,10,16,26,-1035
1715,19.771817,1,6,9,16,24,-1030
1716,19.783485,0,6,8,15,23,-1035
1717,19.795074,1,5,10,15,24,-1031
1718,19.806659,1,6,7,15,26,-1029
1719,19.818217,1,7,11,17,26,-1034
1720,19.829795,1,6,8,14,28,-1037
1721,19.84134,3,7,7,15,24,-1033
1722,19.852887,1,5,9,12,26,-1037
1723,19.864441,2,7,11,13,27,-1038
1724,19.875984,4,6,10,12,27,-1035
1725,19.887612,2,5,10,12,28,-1033
1726,19.899279,3,7,8,12,24,-1040
1727,19.910952,2,7,8,15,26,-1033
1728,19.922628,2,4,10,13,31,-1033
1729,19.934279,1,7,9,17,28,-1031
1730,19.945949,0,7,9,9,26,-1029
1731,19.957603,4,6,9,10,25,-1031
1732,19.969257,3,6,7,13,26,-1031
1733,19.980935,3,7,8,12,29,-1033
1734,19.992698,1,5,9,12,25,-1037
1735,20.004357,3,8,9,15,25,-1030
1736,20.015954,2,7,9,15,24,-1029
1737,20.027556,3,7,8,14,26,-1036
1738,20.039125,2,4,9,14,28,-1033
1739,20.050702,3,5,9,16,25,-1034
1740,20.06225,3,7,10,12,27,-1032
1741,20.073793,2,7,9,14,24,-1031
1742,20.085361,2,8,9,12,25,-1040
1743,20.096946,3,5,10,13,27,-1043
1744,20.108497,2,5,10,14,24,-1032
1745,20.120068,2,7,8,10,26,-1029
1746,20.131621,1,6,9,14,32,-1032
1747,20.143173,3,5,9,15,26,-1039
1748,20.154737,2,8,10,13,25,-1029
1749,20.166302,3,8,9,10,25,-1031
1750,20.177851,3,8,10,13,28,-1030
1751,20.189504,2,5,8,13,25,-1030
1752,20.201146,2,7,12,15,22,-1035
1753,20.212811,4,8,8,9,23,-1033
1754,20.224477,1,7,9,14,28,-1033
1755,20.236133,2,7,10,10,26,-1032
1756,20.247787,3,7,8,11,26,-1031
1757,20.259441,1,8,9,10,25,-1038
1758,20.271152,1,5,8,12,24,-1039
1759,20.282806,1,6,9,14,24,-1031
1760,20.294497,2,5,8,14,27,-1028
1761,20.30616,3,6,9,12,28,-1035
1762,20.317846,2,4,8,15,29,-1039
1763,20.329497,2,5,8,14,28,-1032
1764,20.341146,0,7,8,9,32,-1032
1765,20.352791,1,6,9,17,26,-1032
1766,20.364442,3,6,9,15,26,-1038
1767,20.376116,1,5,7,12,25,-1032
1768,20.387784,2,6,9,14,25,-1032
1769,20.399522,2,8,9,17,25,-1037
1770,20.411198,3,6,10,17,25,-1030
1771,20.422755,2,6,11,15,23,-1034
1772,20.434323,1,7,9,17,26,-1041
1773,20.445905,3,6,11,12,27,-1025
1774,20.457454,2,5,9,10,26,-1032
1775,20.469012,2,5,8,14,28,-1030
1776,20.480567,5,5,9,14,24,-1037
1777,20.492116,3,7,9,11,26,-1033
1778,20.503677,2,6,9,14,31,-1038
1779,20.515282,2,5,7,15,29,-1032
1780,20.526936,3,6,11,13,27,-1032
1781,20.538611,2,7,10,16,27,-1037
1782,20.550268,4,7,9,15,28,-1036
1783,20.561913,1,7,9,14,29,-1037
1784,20.573588,3,7,9,17,25,-1033
1785,20.585242,2,7,9,12,25,-1035
1786,20.596896,2,7,7,16,25,-1036
1787,20.60857,1,7,8,11,28,-1038
1788,20.620225,2,8,10,18,29,-1028
1789,20.631808,2,6,9,12,27,-1039
1790,20.643377,4,8,8,17,27,-1033
1791,20.654932,3,7,8,10,23,-1035
1792,20.666498,2,6,10,12,23,-1035
1793,20.678062,1,5,8,13,23,-1033
1794,20.689612,2,8,8,17,24,-1037
1795,20.701177,4,6,9,12,25,-1034
1796,20.712729,2,7,9,17,29,-1034
1797,20.724356,2,6,9,15,27,-1031
1798,20.736032,3,7,10,15,28,-1041
1799,20.747686,2,7,8,13,30,-1034
1800,20.759355,2,7,9,16,29,-1039
1801,20.771021,1,7,9,17,23,-1036
1802,20.782669,0,5,10,12,25,-1043
1803,20.794346,2,6,9,14,28,-1033
1804,20.806003,2,7,8,12,27,-1029
1805,20.817654,2,6,8,11,25,-1032
1806,20.829237,3,8,8,14,27,-1035
1807,20.840808,2,7,9,16,27,-1035
1808,20.852354,2,5,8,11,26,-1036
1809,20.863924,2,9,8,17,25,-1036
1810,20.875472,3,6,9,12,24,-1034
1811,20.886992,4,3,9,13,25,-1035
1812,20.898548,2,6,8,8,26,-1030
1813,20.910091,5,5,9,14,24,-1034
1814,20.921644,1,8,10,14,26,-1029
1815,20.933259,2,4,10,14,28,-1038
1816,20.944913,4,4,9,13,26,-1040
1817,20.956584,3,6,9,11,22,-1042
1818,20.968239,3,6,7,13,22,-1037
1819,20.979914,2,7,11,13,25,-1037
1820,20.991594,4,5,10,16,25,-1035
1821,21.003267,0,8,10,16,28,-1042
1822,21.014921,3,5,9,15,26,-1034
1823,21.026635,4,8,10,13,23,-1035
1824,21.038286,3,5,10,14,23,-1031
1825,21.049851,1,6,8,12,27,-1036
1826,21.061436,2,8,9,15,27,-1035
1827,21.072991,2,5,11,12,23,-1040
1828,21.084558,1,5,10,11,24,-1030
1829,21.09613,3,6,8,13,26,-1031
1830,21.107711,2,7,8,17,27,-1030
1831,21.119307,2,7,10,13,25,-1028
1832,21.130879,1,5,8,15,22,-1038
1833,21.142501,1,7,9,13,25,-1033
1834,21.154145,1,6,9,18,26,-1029
1835,21.16579,2,5,10,16,25,-1039
1836,21.177459,1,7,11,14,24,-1033
1837,21.189108,2,6,8,15,24,-1034
1838,21.200759,2,7,8,15,23,-1032
1839,21.212422,3,6,8,14,26,-1031
1840,21.224063,3,4,8,16,24,-1035
1841,21.235736,2,6,7,13,29,-1036
1842,21.247409,3,6,9,12,25,-1035
1843,21.259105,1,6,12,13,26,-1033
1844,21.270762,1,6,9,13,27,-1034
1845,21.282427,2,5,10,17,28,-1035
1846,21.294096,2,5,11,13,24,-1034
1847,21.305748,2,5,9,13,24,-1029
1848,21.3174,2,6,8,10,30,-1031
1849,21.329074,3,6,9,13,27,-1034
1850,21.340854,0,8,10,17,26,-1039
1851,21.352506,3,6,11,11,27,-1040
1852,21.364075,4,5,8,9,27,-1029
1853,21.375629,2,7,9,13,25,-1033
1854,21.387178,2,5,8,13,23,-1035
1855,21.398764,2,7,7,14,27,-1029
1856,21.410318,3,6,9,14,23,-1034
1857,21.421897,2,6,11,16,24,-1033
1858,21.433447,2,7,9,11,26,-1035
1859,21.445017,1,5,11,16,29,-1037
1860,21.456628,2,8,10,16,25,-1033
1861,21.46834,2,6,9,14,24,-1032
1862,21.480018,0,10,9,14,27,-1028
1863,21.4917,2,7,7,12,25,-1038
1864,21.503392,3,8,10,14,22,-1039
1865,21.515023,3,6,8,12,26,-1039
1866,21.526702,2,7,8,15,32,-1031
1867,21.538353,1,4,9,14,25,-1035
1868,21.550018,3,4,10,8,25,-1039
1869,21.561707,1,9,11,11,28,-1034
1870,21.573302,3,7,9,13,25,-1033
1871,21.584851,3,6,8,12,24,-1030
1872,21.596442,2,6,8,11,25,-1031
1873,21.60801,1,6,8,10,27,-1029
1874,21.619556,2,6,9,9,29,-1035
1875,21.631115,2,6,11,17,23,-1042
1876,21.642665,1,5,10,15,25,-1034
1877,21.654221,3,6,9,10,23,-1031
1878,21.665837,2,6,7,14,29,-1038
1879,21.677493,1,7,8,16,27,-1034
1880,21.689143,1,6,8,14,25,-1036
1881,21.700811,2,8,11,13,26,-1033
1882,21.712462,2,8,10,12,25,-1032
1883,21.72413,2,7,8,14,26,-1040
1884,21.735802,3,7,8,13,23,-1035
1885,21.747493,1,8,8,13,23,-1036
1886,21.759147,2,6,10,15,26,-1029
1887,21.770739,2,6,11,16,22,-1033
1888,21.782306,2,7,9,14,26,-1035
1889,21.793859,4,8,8,14,26,-1033
1890,21.805424,4,7,9,15,29,-1037
1891,21.81697,3,6,7,13,27,-1034
1892,21.82855,2,8,8,16,25,-1036
1893,21.840105,2,7,7,14,26,-1041
1894,21.851689,1,5,10,16,27,-1029
1895,21.863291,0,6,11,15,26,-1032
1896,21.874947,3,7,10,17,28,-1033
1897,21.88661,3,7,11,16,22,-1034
1898,21.898265,3,8,8,16,26,-1030
1899,21.909912,3,7,8,12,25,-1035
1900,21.921565,0,5,8,10,30,-1035
1901,21.933244,2,6,8,14,25,-1041
1902,21.94489,3,5,9,15,22,-1036
1903,21.956542,2,5,8,10,24,-1031
1904,21.968234,1,7,8,18,24,-1043
1905,21.979885,4,6,9,10,23,-1039
1906,21.991476,2,5,8,14,24,-1034
1907,22.003054,3,6,10,9,26,-1037
1908,22.014607,3,5,9,17,27,-1037
1909,22.026176,3,9,9,13,26,-1039
1910,22.037716,2,8,8,11,25,-1031
1911,22.049277,2,6,8,15,25,-1032
1912,22.060831,2,5,8,17,26,-1028
1913,22.072427,2,5,10,12,24,-1032
1914,22.084031,1,7,7,15,28,-1036
1915,22.095711,4,7,11,13,29,-1036
1916,22.107401,0,7,9,16,25,-1036
1917,22.119071,3,6,8,15,25,-1032
1918,22.13075,2,7,9,11,29,-1035
1919,22.142434,1,7,11,15,24,-1031
1920,22.154096,2,5,8,15,26,-1039
1921,22.165743,1,8,8,12,23,-1027
1922,22.177406,2,6,9,14,29,-1035
1923,22.189068,1,8,11,11,24,-1037
1924,22.20067,1,6,8,15,25,-1035
1925,22.212215,1,6,9,9,25,-1034
1926,22.223764,3,7,10,13,25,-1032
1927,22.235322,2,5,8,17,27,-1030
1928,22.246899,3,6,12,13,26,-1039
1929,22.258446,2,6,10,16,23,-1033
1930,22.270031,4,8,9,12,23,-1035
1931,22.281582,3,4,9,13,26,-1030
1932,22.293236,2,6,10,16,26,-1033
1933,22.30489,1,5,10,12,26,-1029
1934,22.316534,2,6,10,11,25,-1038
1935,22.328185,0,6,8,12,28,-1028
1936,22.339857,2,6,9,15,24,-1034
1937,22.351523,4,7,7,11,22,-1040
1938,22.363217,2,6,9,10,26,-1040
1939,22.374893,3,6,9,15,25,-1032
1940,22.386569,2,5,11,16,31,-1037
1941,22.398234,2,6,10,15,23,-1035
1942,22.409808,2,6,9,13,28,-1033
1943,22.421368,3,7,10,17,27,-1033
1944,22.432928,1,9,7,18,29,-1037
1945,22.444473,2,6,9,14,23,-1043
1946,22.456021,1,5,11,18,25,-1033
1947,22.467593,1,7,9,15,26,-1038
1948,22.479145,3,7,8,16,25,-1029
1949,22.490704,2,7,10,10,28,-1037
1950,22.502387,1,7,8,10,26,-1037
1951,22.514091,3,7,10,11,27,-1035
1952,22.525734,3,7,11,16,23,-1034
1953,22.53738,4,7,9,16,28,-1031
1954,22.549027,1,9,11,13,26,-1032
1955,22.560702,2,7,12,11,21,-1033
1956,22.572352,1,5,9,12,24,-1035
1957,22.584045,2,7,10,16,28,-1037
1958,22.595728,2,7,9,15,24,-1034
1959,22.607403,1,6,8,15,26,-1039
1960,22.619021,2,6,11,12,25,-1038
1961,22.630668,2,7,10,11,27,-1029
1962,22.642338,1,5,11,15,21,-1035
1963,22.653984,3,3,7,15,29,-1039
1964,22.665632,3,5,10,11,24,-1036
1965,22.677293,3,7,9,16,25,-1032
1966,22.688959,3,5,10,15,23,-1032
1967,22.700665,1,7,10,13,24,-1036
1968,22.712336,3,6,9,17,23,-1034
1969,22.723984,1,6,9,18,26,-1031
1970,22.735657,4,7,10,14,26,-1036
1971,22.747353,2,8,10,11,29,-1032
1972,22.759026,0,6,8,15,29,-1036
1973,22.770676,2,7,9,14,28,-1033
1974,22.782345,1,5,9,14,22,-1038
1975,22.793988,1,7,7,10,23,-1037
1976,22.805702,3,6,8,13,26,-1037
1977,22.817367,2,7,9,15,27,-1035
1978,22.828934,4,6,8,15,26,-1037
1979,22.84049,3,6,9,12,23,-1035
1980,22.852047,2,7,10,17,25,-1033
1981,22.863607,1,6,9,15,26,-1031
1982,22.875187,2,5,10,12,27,-1031
1983,22.886774,3,6,7,14,29,-1030
1984,22.898317,3,6,9,16,23,-1030
1985,22.90987,2,6,9,14,26,-1030
1986,22.921493,4,4,11,13,24,-1020
1987,22.933136,2,7,11,15,25,-1031
1988,22.944788,3,7,9,17,28,-1035
1989,22.956467,2,6,9,18,28,-1032
1990,22.968117,1,8,10,15,23,-1038
1991,22.979787,3,5,10,11,26,-1037
1992,22.991465,2,5,9,13,25,-1033
1993,23.003134,1,6,9,18,24,-1029
1994,23.014777,3,7,8,16,25,-1039
1995,23.026443,2,5,9,17,27,-1039
1996,23.037992,3,4,9,15,26,-1039
1997,23.049543,1,6,10,13,29,-1032
1998,23.061091,2,7,8,12,26,-1029
1999,23.07266,1,5,9,13,26,-1037
