sample,t_s,gyro_x,gyro_y,gyro_z,accel_x,accel_y,accel_z
0,2e-05,0,1,-2,1046,2,-1558
1,0.011736,1,2,1,1047,-1,-1560
2,0.023394,2,0,-1,1047,-2,-1556
3,0.035083,0,0,0,1046,0,-1558
4,0.046761,2,1,0,1046,0,-1563
5,0.058415,0,2,-1,1045,-3,-1554
6,0.070103,1,0,0,1048,-2,-1556
7,0.081747,0,3,-2,1047,3,-1558
8,0.093397,0,0,-1,1049,-1,-1562
9,0.10508,0,2,0,1044,0,-1552
10,0.116732,2,1,0,1048,0,-1563
11,0.128418,-1,2,0,1047,1,-1552
12,0.140141,-1,1,1,1048,0,-1547
13,0.151782,-1,1,0,1043,1,-1558
14,0.163353,0,-1,2,1042,-1,-1561
15,0.174924,0,1,-1,1048,0,-1560
16,0.18647,0,2,0,1045,-2,-1561
17,0.198023,2,3,0,1044,-2,-1560
18,0.209575,2,0,-1,1048,0,-1561
19,0.221143,1,0,-1,1049,-4,-1554
20,0.232726,-2,2,-2,1047,-4,-1563
21,0.244294,1,3,0,1043,0,-1553
22,0.255878,-2,1,0,1047,-1,-1556
23,0.267427,2,0,0,1051,-2,-1553
24,0.278968,0,2,1,1049,-4,-1556
25,0.29052,1,1,1,1050,-3,-1557
26,0.302069,0,2,1,1049,2,-1556
27,0.313639,0,0,2,1045,-4,-1558
28,0.325198,1,0,2,1051,-5,-1557
29,0.3368,-1,2,0,1045,2,-1559
30,0.348347,0,-1,-2,1047,-3,-1562
31,0.359973,0,4,2,1045,-1,-1560
32,0.37164,2,1,2,1048,0,-1558
33,0.383301,-1,-1,1,1047,-2,-1564
34,0.394958,0,2,1,1046,0,-1555
35,0.406609,0,-2,-2,1044,1,-1557
36,0.41825,0,3,1,1047,-3,-1556
37,0.429911,-1,2,0,1046,-1,-1564
38,0.441576,0,0,-1,1047,0,-1559
39,0.45323,0,0,0,1046,0,-1558
40,0.464951,2,0,0,1046,0,-1562
41,0.476624,0,-1,-1,1048,-3,-1559
42,0.488226,1,1,0,1045,-2,-1566
43,0.49979,0,3,2,1045,1,-1561
44,0.511357,0,3,-1,1047,2,-1562
45,0.522916,-1,1,0,1049,0,-1561
46,0.534461,1,1,0,1046,2,-1560
47,0.546011,0,4,0,1048,-3,-1557
48,0.557554,-1,0,2,1051,1,-1564
49,0.569152,-1,4,-1,1045,1,-1567
50,0.580801,0,3,-1,1047,0,-1556
51,0.592475,1,2,-1,1046,-2,-1563
52,0.604151,2,1,-2,1048,0,-1568
53,0.615817,3,0,0,1046,-6,-1560
54,0.627468,-1,0,3,1046,0,-1557
55,0.639118,1,1,0,1044,0,-1568
56,0.650768,0,4,-1,1046,1,-1559
57,0.662443,0,-1,-1,1049,1,-1558
58,0.674091,1,-1,1,1044,0,-1557
59,0.685676,0,1,0,1046,-6,-1552
60,0.697217,-2,2,-1,1047,3,-1554
61,0.708764,1,1,0,1047,0,-1561
62,0.720338,-1,-1,-1,1046,0,-1556
63,0.731867,1,4,0,1045,0,-1559
64,0.743418,2,0,0,1046,-4,-1563
65,0.754971,0,2,0,1047,2,-1558
66,0.76653,2,1,1,1049,0,-1555
67,0.778082,0,3,-3,1047,0,-1559
68,0.789715,0,3,-2,1047,2,-1553
69,0.801362,2,1,1,1048,-1,-1555
70,0.813009,2,3,0,1049,0,-1556
71,0.824703,1,0,2,1045,-3,-1556
72,0.836347,1,1,0,1046,0,-1556
73,0.848027,0,2,1,1048,-4,-1560
74,0.859706,-2,1,1,1046,0,-1560
75,0.871374,2,1,-1,1045,0,-1564
76,0.883016,0,2,0,1045,0,-1556
77,0.894573,0,4,-3,1044,1,-1561
78,0.906114,-1,2,0,1050,-3,-1557
79,0.917658,-1,2,-1,1048,0,-1561
80,0.929202,0,4,-1,1047,0,-1560
81,0.940778,0,2,0,1049,0,-1555
82,0.952331,0,0,2,1045,0,-1560
83,0.963855,0,1,-1,1044,1,-1558
84,0.975377,-1,1,1,1048,1,-1558
85,0.986933,-1,0,2,1048,-2,-1555
86,0.998549,0,0,1,1045,-4,-1561
87,1.010217,-1,2,2,1042,-2,-1557
88,1.021867,2,2,0,1047,-3,-1561
89,1.033526,1,0,0,1048,-1,-1564
90,1.045186,0,2,-2,1050,0,-1558
91,1.05684,1,0,-2,1045,0,-1561
92,1.068494,0,1,-2,1048,0,-1557
93,1.080156,-1,0,1,1049,-4,-1561
94,1.09183,0,3,2,1050,-1,-1560
95,1.10348,1,1,0,1045,1,-1559
96,1.115051,0,1,-3,1048,-1,-1559
97,1.126627,0,2,1,1049,0,-1553
98,1.138171,-1,0,0,1047,2,-1561
99,1.149721,0,1,1,1046,-4,-1556
100,1.161275,-2,2,0,1047,0,-1563
101,1.172822,0,1,0,1050,-3,-1558
102,1.184341,2,1,-1,1047,-4,-1557
103,1.195993,0,0,-1,1045,1,-1562
104,1.207652,0,-1,-1,1044,-1,-1560
105,1.219316,1,1,-1,1048,-1,-1557
106,1.230972,0,1,1,1046,0,-1559
107,1.242628,0,2,0,1045,-4,-1556
108,1.254272,0,3,0,1049,3,-1560
109,1.265957,-1,3,1,1041,0,-1559
110,1.27761,0,2,-2,1046,-1,-1558
111,1.289253,1,1,2,1048,-3,-1560
112,1.300964,-1,1,1,1043,0,-1556
113,1.312622,1,2,-1,1051,-3,-1560
114,1.324186,1,1,1,1045,0,-1560
115,1.335781,-1,2,0,1047,0,-1561
116,1.347324,1,2,0,1049,-1,-1557
117,1.358873,0,2,-1,1045,-2,-1559
118,1.370421,1,1,1,1046,-1,-1560
119,1.381967,-1,0,0,1045,-5,-1560
120,1.39352,0,1,-1,1045,-3,-1559
121,1.405084,-1,2,0,1045,0,-1561
122,1.416718,-1,3,1,1050,-2,-1558
123,1.428423,0,4,-1,1051,-2,-1555
124,1.440088,0,0,1,1047,4,-1562
125,1.451771,0,2,1,1044,-5,-1557
126,1.463444,1,1,1,1045,-1,-1562
127,1.47509,-1,1,-2,1050,-1,-1561
128,1.486737,1,2,-1,1043,-1,-1562
129,1.498388,0,1,1,1047,0,-1562
130,1.51005,0,1,-1,1043,-1,-1559
131,1.521706,-1,2,1,1045,3,-1558
132,1.53329,1,2,2,1047,2,-1555
133,1.54484,0,1,1,1044,-4,-1565
134,1.556393,1,2,4,1045,1,-1562
135,1.567967,-1,1,-2,1045,1,-1553
136,1.579534,-2,2,1,1043,2,-1559
137,1.591081,1,3,1,1045,0,-1558
138,1.602642,0,3,1,1043,2,-1559
139,1.614181,-1,0,0,1048,1,-1559
140,1.625838,0,4,-1,1049,0,-1561
141,1.637484,-2,1,2,1048,-3,-1560
142,1.649141,0,1,-1,1048,-4,-1557
143,1.660828,-1,3,1,1047,2,-1562
144,1.672475,1,0,0,1050,1,-1558
145,1.684156,1,0,-1,1049,2,-1558
146,1.695846,0,0,1,1049,-1,-1559
147,1.707526,0,2,0,1050,-2,-1566
148,1.719204,2,2,-2,1047,2,-1560
149,1.730864,1,2,0,1044,1,-1565
150,1.742421,0,2,0,1047,-1,-1556
151,1.753985,0,1,1,1044,0,-1563
152,1.765711,1,0,0,1047,-2,-1563
153,1.777338,1,1,1,1048,-1,-1558
154,1.788912,-1,1,-1,1046,0,-1564
155,1.800481,1,0,-1,1045,0,-1556
156,1.812036,0,4,-1,1047,-2,-1559
157,1.823731,0,1,-1,1048,0,-1561
158,1.835398,0,1,-1,1050,-4,-1559
159,1.847088,0,2,-1,1047,3,-1565
160,1.858745,0,2,0,1046,-4,-1561
161,1.870422,0,2,1,1047,1,-1559
162,1.882081,1,3,1,1047,2,-1554
163,1.893738,1,1,0,1049,0,-1562
164,1.905399,-1,0,1,1043,1,-1562
165,1.917065,2,0,2,1043,-2,-1558
166,1.928741,-1,2,-1,1045,3,-1556
167,1.940435,2,0,1,1047,0,-1555
168,1.952133,0,2,1,1047,-4,-1565
169,1.963812,0,3,-1,1049,3,-1559
170,1.975467,3,2,0,1046,0,-1557
171,1.987113,3,2,-1,1049,-5,-1561
172,1.998753,-1,1,0,1047,-3,-1564
173,2.010409,0,0,0,1050,2,-1558
174,2.0221,-1,2,2,1048,-1,-1561
175,2.033756,1,2,0,1048,1,-1561
176,2.045482,0,1,1,1049,-3,-1560
177,2.05704,2,2,2,1047,0,-1557
178,2.068589,1,2,1,1045,0,-1564
179,2.080145,0,2,1,1048,0,-1560
180,2.091693,0,-1,2,1050,0,-1563
181,2.103237,1,2,1,1052,-2,-1556
182,2.114783,1,2,0,1045,0,-1557
183,2.126364,0,1,-1,1045,-1,-1557
184,2.137929,-1,2,-1,1051,2,-1566
185,2.149573,2,3,1,1043,0,-1557
186,2.161232,0,1,-2,1047,0,-1561
187,2.172923,0,1,0,1046,-2,-1559
188,2.184584,-1,0,-1,1053,-1,-1553
189,2.196238,0,3,2,1045,-2,-1562
190,2.207902,2,3,0,1045,1,-1560
191,2.219596,0,-1,1,1043,0,-1560
192,2.231272,0,1,1,1044,1,-1557
193,2.242935,0,2,0,1046,-1,-1560
194,2.254513,2,1,0,1041,0,-1558
195,2.266068,1,0,0,1046,0,-1561
196,2.277643,1,0,-2,1047,-2,-1553
197,2.289183,0,1,-1,1045,-2,-1564
198,2.300729,0,0,2,1049,0,-1563
199,2.312312,0,2,2,1048,-1,-1557
200,2.323863,0,2,1,1047,0,-1561
201,2.335428,0,2,0,1046,-4,-1561
202,2.347041,1,1,0,1050,-5,-1564
203,2.3587,0,1,-1,1047,1,-1555
204,2.37053,-1,2,0,1046,0,-1555
205,2.382302,0,2,0,1044,-4,-1559
206,2.393962,0,1,1,1048,0,-1552
207,2.405621,0,1,-2,1048,1,-1560
208,2.417277,1,1,-4,1048,-1,-1560
209,2.42895,0,1,1,1047,0,-1560
210,2.440599,-1,-2,1,1047,0,-1558
211,2.452324,0,1,0,1050,4,-1562
212,2.464047,0,2,0,1052,-7,-1559
213,2.475627,0,1,-1,1045,-3,-1564
214,2.487186,1,0,0,1050,0,-1559
215,2.498787,1,2,-1,1045,-2,-1561
216,2.510357,1,1,2,1046,-1,-1564
217,2.521903,0,2,1,1049,0,-1557
218,2.533488,1,0,-1,1047,0,-1557
219,2.545042,0,-1,-2,1043,0,-1557
220,2.556605,0,2,1,1047,-4,-1558
221,2.568232,1,0,0,1047,1,-1559
222,2.579897,3,0,0,1047,-3,-1558
223,2.591578,0,1,1,1047,0,-1566
224,2.603218,-1,2,0,1046,0,-1559
225,2.614868,-1,-1,0,1045,0,-1564
226,2.626537,1,0,-1,1050,0,-1558
227,2.638195,1,0,-2,1047,1,-1554
228,2.649846,-1,1,-2,1050,-1,-1557
229,2.661527,2,3,3,1050,1,-1563
230,2.673184,2,0,0,1047,2,-1559
231,2.684774,0,1,-1,1049,-4,-1560
232,2.696366,-1,3,1,1045,-4,-1560
233,2.707933,3,2,0,1048,0,-1558
234,2.719522,-1,3,0,1049,1,-1556
235,2.731073,1,3,0,1048,1,-1556
236,2.74264,1,0,-1,1046,-3,-1554
237,2.754186,-1,1,-1,1048,4,-1558
238,2.765772,0,0,2,1046,0,-1556
239,2.777387,0,1,-1,1045,-1,-1560
240,2.789045,1,2,0,1046,-2,-1557
241,2.800677,0,5,-1,1047,-3,-1558
242,2.812327,-1,0,0,1041,0,-1558
243,2.823981,1,2,2,1048,4,-1556
244,2.835642,0,2,1,1048,0,-1556
245,2.847301,0,1,-1,1047,2,-1564
246,2.858951,-1,1,-1,1049,0,-1563
247,2.870607,-1,1,1,1046,0,-1564
248,2.882243,1,2,-1,1045,-2,-1557
249,2.893781,0,1,2,1045,-1,-1559
250,2.90532,1,0,0,1046,-1,-1560
251,2.916864,0,0,0,1047,-4,-1560
252,2.928414,-1,2,-1,1046,2,-1552
253,2.939976,0,2,1,1051,-1,-1558
254,2.951522,2,0,0,1047,1,-1563
255,2.963082,-1,2,-1,1048,0,-1554
256,2.974642,-2,3,1,1046,-3,-1555
257,2.986316,0,2,-1,1051,-1,-1564
258,2.997977,1,2,0,1045,1,-1558
259,3.009644,0,0,0,1049,-2,-1564
260,3.021327,0,3,0,1046,0,-1559
261,3.032983,1,0,0,1044,-3,-1563
262,3.044678,1,2,-2,1049,0,-1558
263,3.056358,1,1,0,1052,0,-1566
264,3.068045,1,4,0,1047,-2,-1558
265,3.079715,1,1,0,1047,2,-1553
266,3.091386,0,1,-1,1048,0,-1565
267,3.103063,-1,1,-1,1045,0,-1559
268,3.114705,-2,2,0,1045,1,-1557
269,3.126358,0,3,2,1045,2,-1563
270,3.138027,-1,3,-2,1049,-1,-1560
271,3.149698,-1,-1,1,1045,-1,-1557
272,3.161347,0,2,0,1047,-3,-1562
273,3.173005,-2,2,0,1043,-2,-1562
274,3.18469,0,-2,-1,1049,-3,-1560
275,3.196259,-1,2,-1,1046,-3,-1559
276,3.207817,0,3,-2,1046,-4,-1562
277,3.219386,1,1,-1,1044,-5,-1559
278,3.230942,1,1,0,1048,-1,-1558
279,3.242509,1,2,-1,1046,0,-1558
280,3.254071,0,-1,0,1044,-1,-1565
281,3.265635,1,1,1,1051,0,-1555
282,3.277183,1,0,0,1050,1,-1560
283,3.288824,0,0,1,1049,0,-1558
284,3.300446,0,3,1,1046,0,-1561
285,3.312167,-1,2,1,1047,3,-1565
286,3.323832,0,0,-1,1049,-2,-1559
287,3.335516,1,0,2,1044,0,-1556
288,3.347178,1,-1,1,1047,1,-1552
289,3.358832,0,0,1,1046,2,-1560
290,3.370481,1,1,1,1047,0,-1555
291,3.382146,0,2,0,1048,0,-1557
292,3.394001,-1,1,1,1049,-1,-1561
293,3.405647,0,3,2,1048,4,-1557
294,3.417198,0,0,2,1049,-1,-1563
295,3.428796,0,1,-2,1042,-7,-1563
296,3.440343,0,1,-1,1051,-1,-1557
297,3.451864,0,1,-1,1046,0,-1551
298,3.463446,-1,1,0,1043,1,-1560
299,3.47508,1,1,0,1043,0,-1561
300,3.486652,0,2,-1,1047,0,-1559
301,3.498228,1,1,0,1050,-3,-1558
302,3.509778,-2,2,-1,1049,0,-1562
303,3.521325,1,1,-2,1044,-1,-1564
304,3.532892,0,3,0,1049,0,-1559
305,3.544488,-1,1,1,1043,0,-1553
306,3.556039,-1,0,0,1048,0,-1565
307,3.567616,0,3,2,1048,-3,-1559
308,3.579154,-1,2,-2,1047,0,-1559
309,3.590711,0,2,-1,1048,3,-1561
310,3.602388,-1,-1,1,1049,-4,-1559
311,3.614066,2,2,0,1050,0,-1557
312,3.625726,0,1,0,1046,-1,-1560
313,3.637399,-2,2,-1,1048,-1,-1560
314,3.649066,-2,0,0,1051,3,-1565
315,3.660724,1,0,1,1048,-4,-1562
316,3.672431,1,3,1,1042,1,-1559
317,3.68409,1,1,0,1050,1,-1561
318,3.695786,0,0,1,1048,-5,-1557
319,3.707453,-1,1,-1,1046,-2,-1557
320,3.71903,0,0,1,1046,-2,-1560
321,3.730606,1,-1,0,1048,-3,-1558
322,3.742153,-1,-1,-1,1045,2,-1561
323,3.753756,0,0,0,1049,1,-1562
324,3.765355,0,3,0,1047,0,-1560
325,3.776906,-1,0,-1,1050,-2,-1560
326,3.788474,0,0,1,1046,-3,-1558
327,3.80007,-1,0,-1,1050,-2,-1558
328,3.811784,0,1,2,1047,-3,-1562
329,3.823452,0,1,0,1047,0,-1555
330,3.835115,0,1,-2,1047,-5,-1565
331,3.846802,1,0,1,1049,-1,-1560
332,3.858461,1,3,0,1047,2,-1565
333,3.870113,0,0,1,1046,2,-1553
334,3.881778,1,2,1,1046,2,-1560
335,3.893431,0,3,0,1047,-2,-1552
336,3.90509,-1,2,1,1049,1,-1558
337,3.916769,0,1,1,1043,0,-1554
338,3.928374,0,1,2,1046,0,-1558
339,3.939932,0,1,2,1047,0,-1558
340,3.951516,1,0,0,1042,0,-1565
341,3.963071,1,1,1,1046,-1,-1563
342,3.974639,1,1,2,1047,-3,-1558
343,3.986202,2,0,1,1048,0,-1559
344,3.997769,-1,3,-1,1047,-2,-1560
345,4.00934,-2,2,1,1045,1,-1555
346,4.021014,0,2,0,1048,-6,-1564
347,4.032683,-1,1,1,1047,1,-1558
348,4.044344,0,0,1,1049,-1,-1560
349,4.056036,0,1,-2,1048,1,-1562
350,4.067689,-1,2,-1,1049,-2,-1558
351,4.079371,-1,1,1,1047,-1,-1562
352,4.091054,0,3,-1,1047,-3,-1564
353,4.102706,-2,0,1,1046,-2,-1564
354,4.114366,1,-1,1,1041,0,-1561
355,4.126065,-2,3,1,1049,1,-1559
356,4.137639,-1,0,-2,1048,-1,-1562
357,4.14919,-1,2,0,1048,0,-1564
358,4.160762,0,0,-1,1047,-2,-1559
359,4.172347,0,1,-1,1047,5,-1556
360,4.183906,-2,1,2,1049,0,-1555
361,4.195451,0,2,-2,1048,0,-1563
362,4.207002,-1,0,1,1043,-1,-1556
363,4.218562,-1,2,-2,1044,0,-1556
364,4.230195,-1,-1,-1,1046,-1,-1564
365,4.241858,0,1,1,1047,-1,-1560
366,4.253532,0,1,0,1048,-3,-1561
367,4.265189,1,2,0,1048,0,-1560
368,4.27686,-1,-1,1,1049,-3,-1560
369,4.28855,0,1,1,1049,0,-1559
370,4.300209,1,0,0,1045,0,-1562
371,4.311889,-1,0,0,1048,-1,-1555
372,4.323568,0,0,1,1047,0,-1557
373,4.335133,1,0,0,1045,-2,-1555
374,4.346702,1,0,0,1043,-6,-1561
375,4.358262,0,0,1,1049,0,-1559
376,4.369816,1,1,0,1045,1,-1560
377,4.381384,1,1,-1,1048,0,-1555
378,4.392923,1,2,1,1044,-3,-1556
379,4.404473,-2,-2,1,1046,0,-1560
380,4.416033,0,1,0,1046,-3,-1558
381,4.427629,2,1,-1,1045,0,-1557
382,4.439278,2,1,2,1047,2,-1565
383,4.450937,1,3,0,1043,0,-1561
384,4.462593,1,0,3,1049,-1,-1557
385,4.474234,1,0,1,1047,4,-1558
386,4.485917,0,2,0,1049,0,-1555
387,4.497574,0,0,2,1046,2,-1556
388,4.509214,1,1,1,1051,-1,-1555
389,4.520864,0,2,1,1048,-3,-1559
390,4.532564,0,0,1,1048,-3,-1560
391,4.544258,0,2,1,1044,1,-1560
392,4.555841,0,1,2,1051,0,-1556
393,4.567378,1,3,1,1047,0,-1561
394,4.578922,1,1,-2,1050,0,-1552
395,4.590467,1,1,1,1048,-2,-1564
396,4.602014,0,-1,1,1046,-3,-1556
397,4.613584,-1,1,0,1042,0,-1556
398,4.625137,2,1,-1,1048,0,-1559
399,4.636737,1,1,0,1043,-1,-1561
400,4.648352,0,3,1,1046,2,-1561
401,4.660054,1,3,0,1050,0,-1565
402,4.671716,1,0,0,1048,-1,-1567
403,4.683395,-1,0,0,1048,-3,-1560
404,4.695052,2,0,1,1051,0,-1558
405,4.706701,0,2,0,1048,0,-1557
406,4.718351,0,0,2,1044,2,-1558
407,4.730014,0,0,-1,1046,-2,-1557
408,4.741672,-1,1,1,1046,1,-1559
409,4.753253,-1,3,1,1046,-1,-1558
410,4.764827,0,-2,1,1045,-1,-1561
411,4.776382,1,1,1,1046,2,-1562
412,4.787943,0,3,0,1047,-1,-1567
413,4.799507,1,1,0,1046,-4,-1562
414,4.81105,1,1,0,1047,0,-1558
415,4.822591,2,1,-1,1047,1,-1562
416,4.834138,1,3,0,1044,-2,-1560
417,4.845694,2,1,1,1047,0,-1559
418,4.85734,1,2,-2,1047,-4,-1562
419,4.868991,0,1,0,1049,2,-1555
420,4.880688,2,1,-2,1046,0,-1563
421,4.892339,0,0,-2,1045,1,-1558
422,4.904013,-1,2,0,1045,0,-1553
423,4.915744,1,2,-1,1046,0,-1559
424,4.927386,-2,2,0,1048,2,-1560
425,4.939049,1,2,0,1046,-2,-1560
426,4.950716,-1,1,-1,1047,1,-1559
427,4.962373,-1,-1,-1,1043,0,-1555
428,4.973926,-1,1,0,1046,-5,-1559
429,4.985486,1,1,0,1045,-1,-1558
430,4.997038,-1,3,-1,1044,0,-1560
431,5.008587,0,2,1,1042,-4,-1559
432,5.020144,2,2,0,1051,-1,-1560
433,5.031759,1,2,1,1048,0,-1567
434,5.043308,0,-1,-1,1049,-6,-1560
435,5.05489,0,1,0,1045,0,-1560
436,5.066588,-1,0,1,1045,0,-1566
437,5.078264,-1,0,0,1048,0,-1564
438,5.089933,-1,3,1,1045,1,-1555
439,5.101585,-1,-2,0,1047,-5,-1560
440,5.113254,2,2,-1,1047,-1,-1558
441,5.124931,2,3,1,1044,0,-1560
442,5.13659,0,3,1,1047,0,-1560
443,5.148291,-1,-1,1,1046,0,-1560
444,5.159958,1,1,1,1047,0,-1563
445,5.171628,3,3,0,1051,0,-1555
446,5.183185,-1,0,0,1050,2,-1562
447,5.194756,1,3,1,1048,2,-1558
448,5.206295,0,0,0,1042,0,-1563
449,5.217848,0,1,-1,1047,0,-1560
450,5.22942,0,0,0,1045,0,-1560
451,5.240969,-2,1,0,1044,0,-1562
452,5.252524,-1,1,0,1050,1,-1562
453,5.264136,0,3,-1,1049,-1,-1554
454,5.275807,0,0,-1,1050,0,-1562
455,5.28747,1,0,0,1046,0,-1562
456,5.29916,-1,2,-1,1047,-4,-1562
457,5.310824,-1,-1,0,1047,-3,-1559
458,5.322471,0,1,-1,1047,0,-1558
459,5.334126,0,3,0,1045,0,-1555
460,5.345817,0,0,0,1048,0,-1558
461,5.357465,0,-2,1,1050,-3,-1560
462,5.369133,-2,0,1,1048,0,-1561
463,5.38081,1,-1,0,1047,3,-1566
464,5.392343,1,3,-1,1046,0,-1558
465,5.403861,1,0,0,1048,0,-1561
466,5.415377,1,1,-1,1043,-2,-1560
467,5.42692,0,0,1,1047,0,-1563
468,5.438462,-1,1,0,1047,0,-1556
469,5.450004,1,-1,1,1049,-4,-1558
470,5.461557,0,0,-1,1046,-1,-1559
471,5.473134,0,0,0,1049,-2,-1564
472,5.484798,0,2,0,1045,-2,-1559
473,5.496459,0,2,-1,1048,-3,-1560
474,5.508133,0,2,0,1049,1,-1557
475,5.5198,0,2,-1,1046,0,-1564
476,5.531457,0,0,-1,1051,1,-1558
477,5.543103,1,2,0,1050,-3,-1562
478,5.554773,2,0,0,1045,1,-1568
479,5.566421,1,1,0,1050,-2,-1561
480,5.578081,-1,1,0,1048,-1,-1561
481,5.589742,1,2,-1,1044,-1,-1559
482,5.601353,0,2,1,1047,-2,-1557
483,5.612899,0,2,-1,1048,-1,-1554
484,5.624468,0,1,0,1049,-3,-1559
485,5.636029,0,0,-1,1051,0,-1557
486,5.647633,1,2,0,1043,0,-1558
487,5.65921,1,2,1,1045,0,-1557
488,5.670774,-1,0,0,1045,1,-1556
489,5.682356,0,0,1,1043,-4,-1561
490,5.693976,1,-2,-1,1047,-1,-1565
491,5.705649,-1,2,-1,1048,0,-1557
492,5.717302,1,1,0,1047,1,-1560
493,5.728949,0,0,0,1047,-2,-1562
494,5.740605,0,4,1,1047,-1,-1564
495,5.752282,1,2,-1,1046,0,-1562
496,5.763954,1,1,0,1046,0,-1561
497,5.775635,0,0,0,1049,3,-1559
498,5.787298,0,1,0,1045,1,-1557
499,5.798966,-1,0,0,1047,-2,-1559
500,5.81053,1,1,0,1045,0,-1551
501,5.82211,1,0,2,1047,0,-1564
502,5.833665,1,1,1,1046,-3,-1559
503,5.845242,0,0,0,1046,-1,-1563
504,5.856808,0,2,3,1044,0,-1565
505,5.868367,1,1,0,1063,-1,-1565
506,5.879927,-1,0,0,1046,-2,-1562
507,5.891517,0,2,0,1045,-1,-1556
508,5.903172,-1,3,1,1046,2,-1565
509,5.914829,0,2,-2,1046,2,-1555
510,5.926471,-1,0,0,1050,-3,-1553
511,5.938122,0,0,1,1049,1,-1560
512,5.949813,1,2,-1,1048,-1,-1563
513,5.961459,-1,2,0,1048,-3,-1554
514,5.973159,0,0,-1,1045,0,-1562
515,5.984825,0,1,2,1044,-4,-1569
516,5.99649,1,2,1,1051,-3,-1559
517,6.008146,0,1,-1,1047,0,-1554
518,6.019716,1,2,0,1045,-4,-1561
519,6.031264,0,2,1,1044,1,-1561
520,6.042845,1,0,0,1046,-1,-1554
521,6.0544,0,2,3,1051,0,-1559
522,6.065952,-2,2,0,1045,-2,-1557
523,6.077493,0,1,-1,1047,0,-1563
524,6.089042,1,2,-2,1051,1,-1558
525,6.100622,-2,4,0,1047,-2,-1552
526,6.11225,0,1,0,1049,2,-1553
527,6.123915,-1,0,-1,1047,-1,-1557
528,6.135566,0,-1,1,1049,0,-1555
529,6.147216,0,1,2,1044,-2,-1560
530,6.15888,0,1,-2,1045,0,-1558
531,6.170543,1,2,-1,1046,1,-1560
532,6.182192,-1,2,0,1044,-1,-1555
533,6.193841,0,-2,-1,1048,2,-1555
534,6.205519,-1,2,0,1048,-1,-1559
535,6.217179,-1,0,0,1046,1,-1558
536,6.228832,1,2,1,1046,-1,-1561
537,6.240504,-1,1,4,1048,-1,-1560
538,6.252165,-1,0,2,1047,0,-1557
539,6.263816,-1,2,1,1048,0,-1560
540,6.275466,0,2,1,1047,3,-1561
541,6.287105,-1,3,1,1050,1,-1563
542,6.298757,-2,1,0,1045,-4,-1564
543,6.310423,-1,0,0,1050,-2,-1560
544,6.321999,1,1,-1,1046,4,-1560
545,6.333539,-1,-1,1,1050,2,-1565
546,6.34512,-1,4,-1,1049,0,-1561
547,6.356691,1,0,0,1049,-1,-1558
548,6.368243,-1,5,1,1042,-2,-1560
549,6.379798,-1,2,0,1046,4,-1559
550,6.391397,0,0,-1,1047,4,-1567
551,6.402983,-1,-1,-1,1047,-3,-1556
552,6.414583,1,0,1,1044,-1,-1563
553,6.426207,-2,1,1,1045,0,-1557
554,6.437888,1,1,1,1044,-2,-1562
555,6.449548,0,0,2,1048,0,-1562
556,6.461205,-1,1,0,1045,0,-1563
557,6.472886,-1,2,0,1046,0,-1556
558,6.484565,2,1,1,1048,-1,-1566
559,6.496242,0,5,-1,1046,0,-1558
560,6.50791,1,0,0,1047,0,-1557
561,6.519582,0,-1,-3,1046,-1,-1559
562,6.531245,0,2,1,1045,0,-1567
563,6.54282,0,2,0,1050,2,-1558
564,6.554376,1,0,2,1047,1,-1554
565,6.565933,-2,1,3,1049,0,-1561
566,6.577486,1,0,0,1046,-3,-1555
567,6.589038,1,2,0,1044,0,-1562
568,6.600612,1,3,0,1045,-4,-1556
569,6.612166,1,-1,0,1046,0,-1565
570,6.623759,-1,2,-1,1043,0,-1558
571,6.635391,0,-1,1,1046,0,-1552
572,6.647051,-1,3,0,1046,0,-1556
573,6.658702,1,0,0,1045,1,-1559
574,6.670363,-1,1,1,1045,0,-1559
575,6.68203,-2,-1,0,1044,0,-1556
576,6.693682,-1,0,0,1048,-2,-1564
577,6.705331,-1,2,0,1044,0,-1562
578,6.717023,1,2,1,1046,-2,-1561
579,6.728692,1,2,-1,1048,0,-1553
580,6.740353,-1,1,1,1046,0,-1560
581,6.75191,1,1,0,1048,1,-1551
582,6.763487,1,1,0,1044,-2,-1558
583,6.775041,1,2,2,1048,-4,-1567
584,6.786586,1,2,-2,1047,1,-1557
585,6.798146,-1,3,1,1045,-1,-1557
586,6.809745,1,0,-1,1049,0,-1564
587,6.821295,0,2,0,1042,-2,-1559
588,6.832878,-1,1,-1,1047,0,-1555
589,6.844593,0,2,0,1047,0,-1557
590,6.856287,2,2,-1,1047,3,-1559
591,6.867904,0,1,-1,1048,-1,-1561
592,6.879565,-1,0,0,1046,-1,-1561
593,6.891232,1,1,2,1050,-3,-1564
594,6.902903,1,2,-1,1045,-3,-1563
595,6.914562,-1,-1,0,1048,1,-1557
596,6.926214,2,0,-2,1050,-1,-1553
597,6.937897,1,0,1,1049,0,-1559
598,6.949553,1,1,0,1046,-1,-1561
599,6.961119,0,3,0,1048,0,-1557
600,6.972669,-2,2,0,1046,-1,-1565
601,6.984221,0,1,-2,1044,-3,-1559
602,6.995781,-1,1,1,1046,1,-1557
603,7.007371,-1,-1,1,1050,-1,-1563
604,7.018918,1,2,2,1051,-1,-1557
605,7.030482,-1,0,0,1046,2,-1564
606,7.042033,-1,0,0,1047,3,-1559
607,7.053665,-1,1,2,1048,0,-1557
608,7.06532,1,2,0,1044,3,-1560
609,7.076996,-2,3,1,1049,0,-1563
610,7.088673,0,1,0,1043,0,-1550
611,7.10033,2,-1,0,1047,4,-1558
612,7.111989,1,3,0,1046,0,-1553
613,7.123649,2,4,2,1049,-2,-1558
614,7.135308,-2,2,1,1046,0,-1559
615,7.146972,1,1,-1,1046,1,-1558
616,7.158625,-1,1,2,1048,0,-1561
617,7.170224,0,0,1,1047,-2,-1557
618,7.181782,3,3,-1,1049,0,-1559
619,7.193364,-1,1,2,1051,-1,-1566
620,7.204912,0,2,1,1047,0,-1557
621,7.216477,-1,1,0,1046,-4,-1559
622,7.228036,0,2,0,1046,-1,-1555
623,7.239617,-1,0,1,1047,0,-1560
624,7.251201,0,2,2,1044,-1,-1557
625,7.262829,0,1,0,1048,0,-1559
626,7.274505,2,3,1,1047,0,-1555
627,7.286163,-1,0,1,1047,-3,-1562
628,7.29781,2,1,-2,1043,-3,-1557
629,7.309462,0,-1,1,1047,-1,-1560
630,7.321117,1,0,1,1047,2,-1553
631,7.332796,1,1,0,1049,-2,-1560
632,7.344466,1,2,-1,1048,0,-1552
633,7.356161,1,0,-1,1044,0,-1560
634,7.367819,0,0,-1,1042,0,-1559
635,7.379379,2,-1,2,1046,0,-1566
636,7.390956,1,-1,0,1047,-3,-1555
637,7.402507,0,0,-2,1048,0,-1565
638,7.414064,0,2,-1,1047,-2,-1557
639,7.425614,2,-1,-1,1046,0,-1560
640,7.437151,0,2,0,1046,1,-1555
641,7.448749,2,-2,-1,1046,0,-1558
642,7.460335,0,2,0,1048,-3,-1557
643,7.47197,0,1,2,1047,0,-1558
644,7.483657,0,0,0,1050,0,-1560
645,7.495317,-1,0,0,1048,2,-1563
646,7.506986,0,2,-1,1046,0,-1560
647,7.518657,2,0,-1,1046,0,-1558
648,7.530314,1,2,-1,1048,1,-1560
649,7.541956,1,2,0,1047,0,-1562
650,7.553609,-1,0,0,1049,-4,-1559
651,7.565305,-1,1,-1,1050,-3,-1561
652,7.576955,1,0,0,1046,0,-1559
653,7.588518,2,3,1,1049,-1,-1557
654,7.600091,-1,4,-1,1046,-1,-1559
655,7.611626,-1,2,-1,1046,-2,-1566
656,7.623169,-1,1,-2,1044,0,-1551
657,7.634709,-2,4,2,1044,0,-1559
658,7.646249,1,2,-2,1048,0,-1566
659,7.657813,0,2,0,1046,0,-1556
660,7.66938,-1,1,1,1046,1,-1570
661,7.681066,-1,-1,-1,1047,0,-1561
662,7.692734,-1,0,2,1044,1,-1558
663,7.704408,0,1,2,1050,0,-1558
664,7.716069,2,2,0,1048,-1,-1556
665,7.727729,0,2,0,1049,0,-1561
666,7.739388,0,0,0,1044,-1,-1559
667,7.751061,0,-1,0,1044,-1,-1557
668,7.762952,1,1,1,1047,0,-1557
669,7.774686,0,0,0,1049,1,-1558
670,7.7864,0,0,-2,1045,0,-1562
671,7.797966,0,0,1,1045,0,-1564
672,7.809517,-1,1,-1,1046,0,-1559
673,7.821129,1,0,-1,1048,1,-1565
674,7.832752,0,2,2,1049,1,-1555
675,7.844361,2,2,-2,1046,-2,-1563
676,7.855935,1,1,2,1047,1,-1562
677,7.867502,1,2,2,1045,-2,-1554
678,7.879094,-1,2,-1,1047,0,-1562
679,7.890756,1,1,0,1045,-4,-1557
680,7.90242,2,2,0,1047,-4,-1561
681,7.914078,-2,1,-2,1048,0,-1563
682,7.92576,0,-1,1,1048,-3,-1557
683,7.937411,0,-1,-2,1046,0,-1556
684,7.949068,2,1,1,1049,0,-1562
685,7.960768,0,1,1,1045,-1,-1565
686,7.972413,1,2,-1,1050,3,-1559
687,7.984091,3,0,-2,1047,0,-1566
688,7.995755,0,-1,1,1048,-1,-1558
689,8.007318,0,0,1,1047,0,-1555
690,8.018878,1,1,0,1046,-1,-1559
691,8.030425,2,-2,2,1051,0,-1566
692,8.041972,-1,1,-1,1049,-1,-1559
693,8.053524,0,2,0,1047,0,-1553
694,8.065102,-1,1,-2,1048,0,-1559
695,8.076665,0,1,0,1046,-2,-1559
696,8.08825,0,0,0,1049,-1,-1563
697,8.0999,-1,1,3,1045,-1,-1561
698,8.111558,2,-1,2,1050,-2,-1568
699,8.123214,0,2,0,1048,0,-1562
700,8.134872,-2,1,0,1049,1,-1568
701,8.146525,0,2,0,1043,0,-1559
702,8.158185,0,2,-1,1048,1,-1566
703,8.169835,1,3,2,1048,-1,-1559
704,8.181484,1,0,0,1044,-1,-1563
705,8.193199,0,3,2,1046,2,-1562
706,8.204877,0,5,-1,1046,1,-1561
707,8.216453,0,2,1,1044,4,-1559
708,8.228014,0,4,1,1048,0,-1562
709,8.239629,0,1,1,1044,-3,-1559
710,8.251235,0,0,-2,1049,1,-1555
711,8.262786,1,0,1,1045,0,-1559
712,8.274351,0,1,1,1047,0,-1557
713,8.285891,0,3,1,1047,-5,-1559
714,8.29745,0,2,1,1046,0,-1559
715,8.309066,0,3,-1,1046,0,-1560
716,8.320728,0,2,-2,1048,0,-1559
717,8.332408,0,3,-1,1050,0,-1556
718,8.344072,-1,2,1,1048,-1,-1563
719,8.355713,2,2,-1,1046,2,-1555
720,8.367377,0,1,-1,1046,-2,-1556
721,8.379028,1,1,1,1047,0,-1560
722,8.390676,1,2,0,1047,0,-1557
723,8.402328,1,1,0,1041,0,-1556
724,8.414006,1,0,0,1048,0,-1556
725,8.425603,1,2,-1,1047,1,-1554
726,8.437148,0,2,0,1048,0,-1559
727,8.448718,0,0,2,1044,0,-1557
728,8.460273,1,2,0,1048,-7,-1560
729,8.47186,0,0,0,1046,-1,-1553
730,8.483435,-1,1,0,1046,-3,-1561
731,8.495,-1,2,2,1045,0,-1555
732,8.506578,0,2,-1,1051,0,-1561
733,8.518191,-1,3,0,1047,1,-1561
734,8.529863,0,3,1,1046,0,-1559
735,8.541525,1,3,1,1047,4,-1564
736,8.553205,1,-1,1,1048,3,-1557
737,8.56489,1,1,-2,1046,0,-1561
738,8.576557,0,0,-2,1045,-2,-1553
739,8.588277,2,1,1,1043,-4,-1559
740,8.599953,1,1,0,1045,-2,-1561
741,8.611683,0,1,-2,1047,-2,-1559
742,8.623362,0,-1,1,1048,2,-1556
743,8.635021,0,2,-1,1044,-1,-1560
744,8.646672,0,3,0,1047,0,-1559
745,8.658312,-1,0,1,1047,-4,-1559
746,8.669959,0,0,0,1044,-6,-1564
747,8.681632,1,0,0,1049,2,-1554
748,8.693292,1,-1,2,1051,-2,-1561
749,8.70494,1,0,1,1047,0,-1555
750,8.716652,0,0,2,1046,0,-1562
751,8.728313,0,2,0,1048,2,-1558
752,8.739965,0,-2,1,1047,-2,-1557
753,8.751652,-1,1,0,1050,-2,-1554
754,8.763294,1,1,-1,1046,-3,-1562
755,8.774941,-1,1,-1,1046,0,-1559
756,8.78661,1,2,1,1050,-2,-1559
757,8.79827,1,0,2,1043,0,-1562
758,8.809922,0,0,0,1048,3,-1559
759,8.821594,2,0,-1,1048,0,-1557
760,8.833291,-1,2,1,1048,-4,-1560
761,8.844948,1,1,2,1048,0,-1555
762,8.856621,0,1,-1,1048,-2,-1558
763,8.868296,0,3,-1,1048,0,-1563
764,8.879958,-1,1,1,1050,0,-1557
765,8.891633,0,3,-1,1049,0,-1556
766,8.903283,1,1,0,1047,-3,-1558
767,8.914934,1,1,0,1048,0,-1558
768,8.926597,-1,0,-3,1049,0,-1557
769,8.93813,0,1,1,1049,1,-1559
770,8.949682,-2,1,1,1046,3,-1561
771,8.961238,-1,2,0,1051,1,-1562
772,8.972812,0,3,-1,1048,0,-1556
773,8.984362,0,3,1,1050,0,-1556
774,8.995963,-1,0,0,1049,0,-1558
775,9.007522,0,1,3,1047,0,-1560
776,9.019103,1,0,-2,1049,-2,-1564
777,9.030666,1,2,-1,1045,0,-1559
778,9.042295,2,1,0,1049,-3,-1556
779,9.05395,0,0,1,1048,-3,-1566
780,9.065611,-2,2,0,1045,-1,-1561
781,9.077285,0,2,0,1048,0,-1554
782,9.08893,0,2,-1,1049,0,-1561
783,9.100605,-1,0,-1,1045,0,-1565
784,9.112296,2,2,0,1042,-4,-1560
785,9.123953,-1,1,0,1052,-1,-1558
786,9.135656,-1,0,-2,1047,-2,-1555
787,9.147305,1,2,0,1046,0,-1561
788,9.158871,2,1,-1,1051,0,-1561
789,9.170444,-2,2,0,1047,1,-1555
790,9.181987,0,3,0,1048,1,-1564
791,9.193528,1,1,-1,1045,-1,-1559
792,9.205086,0,-2,2,1046,-2,-1555
793,9.216635,0,2,0,1049,1,-1556
794,9.228179,0,1,1,1045,0,-1561
795,9.239757,0,2,-1,1051,0,-1562
796,9.251438,2,3,1,1048,2,-1557
797,9.263112,1,2,0,1046,0,-1556
798,9.274771,0,1,-1,1047,4,-1559
799,9.28642,2,0,0,1046,0,-1557
800,9.298108,0,2,-1,1048,-3,-1562
801,9.309771,0,1,0,1044,1,-1561
802,9.321423,-2,0,-1,1051,0,-1558
803,9.33307,-2,3,0,1044,0,-1560
804,9.344759,1,2,1,1047,-1,-1565
805,9.356437,0,0,1,1048,1,-1562
806,9.368105,-1,4,0,1047,2,-1559
807,9.379785,0,1,-1,1045,0,-1558
808,9.391443,0,2,0,1047,-1,-1563
809,9.403119,1,2,0,1049,-2,-1556
810,9.414772,0,1,0,1045,0,-1561
811,9.426425,0,1,0,1048,1,-1556
812,9.438073,1,1,-2,1044,-1,-1562
813,9.449805,0,2,-1,1049,1,-1557
814,9.461466,1,3,0,1049,-2,-1556
815,9.473034,-1,-1,1,1041,-1,-1561
816,9.484599,1,1,0,1048,2,-1557
817,9.496153,0,3,1,1047,-4,-1561
818,9.507705,2,0,1,1047,-3,-1557
819,9.519255,0,4,0,1045,-1,-1561
820,9.5308,0,3,0,1045,0,-1561
821,9.542345,1,2,0,1052,-2,-1557
822,9.553911,0,2,-1,1048,0,-1562
823,9.565539,1,0,1,1048,1,-1555
824,9.577201,2,-1,0,1049,-1,-1552
825,9.588885,0,4,-1,1050,2,-1555
826,9.600548,1,2,0,1048,3,-1565
827,9.612224,1,0,-1,1048,0,-1554
828,9.623907,1,0,3,1048,0,-1556
829,9.635571,1,0,1,1049,0,-1555
830,9.647222,1,3,0,1044,0,-1558
831,9.658906,1,2,0,1049,-1,-1562
832,9.670575,1,1,0,1050,-2,-1556
833,9.682129,0,1,-1,1050,0,-1561
834,9.693681,-1,1,2,1049,0,-1558
835,9.705235,-2,2,1,1045,-1,-1560
836,9.716812,0,3,1,1046,-3,-1566
837,9.72836,-1,1,1,1049,2,-1563
838,9.739979,0,1,1,1047,0,-1558
839,9.751535,0,-2,0,1049,-1,-1557
840,9.763113,0,0,-1,1047,0,-1560
841,9.774735,1,1,0,1045,0,-1561
842,9.786395,2,1,1,1049,0,-1560
843,9.79805,0,1,0,1050,0,-1562
844,9.809723,1,-2,0,1043,-1,-1562
845,9.8214,-2,3,0,1050,-3,-1562
846,9.833057,-1,3,1,1046,-1,-1557
847,9.844758,1,1,-1,1045,-1,-1561
848,9.856415,0,1,1,1047,-5,-1563
849,9.868091,1,1,1,1044,-1,-1563
850,9.87978,1,1,1,1049,1,-1556
851,9.891366,1,0,-1,1046,0,-1562
852,9.902917,1,2,1,1045,0,-1559
853,9.914464,0,1,-2,1049,-2,-1563
854,9.926016,-2,0,1,1046,0,-1566
855,9.937589,1,0,-1,1049,0,-1558
856,9.949141,1,3,-1,1046,3,-1561
857,9.960725,0,2,0,1049,-3,-1556
858,9.972288,1,1,1,1049,0,-1562
859,9.983909,1,1,-1,1045,0,-1560
860,9.995565,0,2,-1,1045,0,-1563
861,10.007223,0,2,-1,1049,-1,-1567
862,10.018895,0,3,-1,1047,-4,-1565
863,10.030543,-1,1,0,1045,0,-1557
864,10.042213,0,1,-1,1049,-2,-1562
865,10.053885,0,2,0,1044,-1,-1556
866,10.065535,1,3,1,1047,-3,-1562
867,10.077198,1,2,-2,1046,-3,-1556
868,10.088872,1,2,2,1050,0,-1553
869,10.10049,-1,2,0,1042,0,-1560
870,10.112071,0,1,2,1046,4,-1554
871,10.12362,0,1,-1,1048,-1,-1562
872,10.135162,0,0,0,1049,0,-1560
873,10.146703,1,1,0,1050,2,-1560
874,10.15824,-1,-1,-1,1046,0,-1556
875,10.169784,1,1,0,1049,0,-1563
876,10.18135,-2,-1,-1,1048,0,-1560
877,10.192964,-1,4,2,1048,0,-1566
878,10.204637,0,2,0,1045,-4,-1558
879,10.21629,-2,2,2,1046,3,-1550
880,10.227951,0,1,-1,1045,-3,-1553
881,10.239625,0,1,0,1047,0,-1553
882,10.251275,0,0,1,1045,0,-1557
883,10.262926,2,1,0,1048,0,-1556
884,10.274563,-1,0,1,1047,0,-1560
885,10.286223,1,2,0,1043,-4,-1555
886,10.297881,-1,-1,-2,1047,-3,-1564
887,10.30944,0,1,0,1048,-3,-1555
888,10.320993,0,1,2,1045,2,-1559
889,10.332569,-1,1,0,1046,0,-1561
890,10.344103,0,1,-2,1049,-1,-1556
891,10.355706,-1,2,-1,1049,3,-1557
892,10.367259,0,2,-2,1047,3,-1559
893,10.378829,-1,3,0,1050,-5,-1556
894,10.390385,-1,1,2,1045,-1,-1556
895,10.402033,2,1,0,1045,-1,-1565
896,10.413816,1,1,0,1047,-1,-1560
897,10.425472,0,-1,0,1047,0,-1559
898,10.43714,0,2,1,1046,0,-1560
899,10.448805,0,-1,2,1051,1,-1556
900,10.460461,0,2,-1,1049,0,-1557
901,10.472175,-1,1,1,1047,0,-1566
902,10.483834,0,1,-1,1050,0,-1559
903,10.495528,-1,1,1,1049,0,-1558
904,10.507184,1,1,-1,1049,-1,-1566
905,10.518828,1,2,0,1044,-3,-1559
906,10.530477,0,1,-1,1045,-2,-1559
907,10.542141,-1,3,-1,1047,2,-1558
908,10.553789,0,3,2,1042,1,-1559
909,10.565438,0,3,2,1044,-3,-1561
910,10.577109,1,1,1,1048,-2,-1555
911,10.588801,0,0,-1,1047,1,-1563
912,10.600469,0,0,0,1045,0,-1562
913,10.612139,-1,-1,-1,1047,0,-1562
914,10.623698,1,1,2,1047,-5,-1561
915,10.635244,-1,2,-1,1046,0,-1562
916,10.646789,-1,1,-2,1044,-2,-1559
917,10.658334,-1,3,2,1046,0,-1560
918,10.669874,0,1,1,1048,0,-1557
919,10.681421,1,1,1,1047,2,-1559
920,10.69297,1,0,0,1047,1,-1557
921,10.704542,0,1,2,1048,-4,-1558
922,10.716165,0,2,-1,1047,-1,-1550
923,10.727821,1,3,-1,1051,1,-1563
924,10.739516,1,2,-1,1050,0,-1560
925,10.751154,-1,2,3,1050,0,-1557
926,10.762803,-1,0,1,1045,0,-1558
927,10.774474,0,1,2,1043,3,-1559
928,10.786157,-2,2,3,1046,0,-1558
929,10.7978,0,1,-2,1045,-4,-1563
930,10.809478,-1,0,0,1045,-2,-1558
931,10.821134,0,2,-2,1051,-1,-1557
932,10.832724,0,-1,0,1050,0,-1559
933,10.844299,0,0,1,1043,-1,-1558
934,10.855863,1,1,1,1046,2,-1561
935,10.867416,0,1,1,1046,1,-1561
936,10.878969,0,1,1,1047,-1,-1561
937,10.890535,-1,-1,-1,1047,1,-1557
938,10.902096,1,2,1,1048,0,-1563
939,10.91364,1,3,1,1044,2,-1560
940,10.925313,0,1,0,1049,-2,-1555
941,10.936974,-1,1,0,1047,-2,-1559
942,10.948669,-1,3,2,1046,-2,-1562
943,10.960344,0,0,0,1044,1,-1559
944,10.972026,-1,2,1,1048,0,-1551
945,10.983684,0,0,0,1044,-2,-1563
946,10.995378,0,1,1,1048,0,-1562
947,11.007031,2,0,2,1047,0,-1560
948,11.018703,-2,0,-1,1044,0,-1561
949,11.030367,-1,-1,-3,1044,0,-1561
950,11.041963,0,1,1,1047,-2,-1559
951,11.053519,2,0,-1,1048,0,-1556
952,11.06509,0,2,-2,1047,-4,-1560
953,11.076638,1,2,-1,1045,-1,-1560
954,11.088179,0,3,1,1046,-3,-1557
955,11.099742,-1,2,-1,1044,-4,-1559
956,11.111306,0,3,1,1047,1,-1561
957,11.12287,1,2,1,1047,3,-1557
958,11.134522,0,1,0,1046,0,-1557
959,11.146177,1,2,2,1046,-5,-1563
960,11.157866,1,2,1,1049,1,-1561
961,11.169515,1,1,2,1049,-3,-1560
962,11.181158,-1,1,0,1046,0,-1553
963,11.19282,1,3,-2,1047,-1,-1561
964,11.204516,-1,-1,-1,1048,1,-1566
965,11.216157,-1,0,-4,1047,-1,-1563
966,11.227825,-1,-1,-2,1048,5,-1559
967,11.239482,0,3,-2,1047,4,-1563
968,11.251076,1,1,-1,1048,3,-1557
969,11.262636,1,0,1,1045,2,-1559
970,11.274206,1,0,-1,1046,-3,-1560
971,11.285752,0,3,-1,1048,-1,-1566
972,11.297311,0,1,3,1046,0,-1556
973,11.308866,0,0,1,1045,-5,-1556
974,11.320416,1,1,0,1048,0,-1562
975,11.331996,0,1,2,1046,0,-1557
976,11.343684,0,3,-1,1046,0,-1561
977,11.355384,-1,0,1,1050,-1,-1562
978,11.367032,-1,4,0,1047,-2,-1557
979,11.378679,0,2,-1,1046,-1,-1562
980,11.390352,3,2,1,1046,-2,-1558
981,11.402008,0,2,-1,1041,-1,-1555
982,11.41366,0,2,-1,1047,-3,-1557
983,11.425305,-1,2,2,1048,-1,-1560
984,11.437112,-1,0,1,1048,-1,-1563
985,11.448788,-1,1,-1,1047,0,-1559
986,11.460347,0,2,-3,1052,-1,-1562
987,11.471907,1,0,2,1049,-3,-1563
988,11.483492,1,0,1,1046,-2,-1558
989,11.495041,1,0,1,1050,3,-1560
990,11.506604,-1,2,-1,1047,-4,-1561
991,11.518215,0,0,0,1046,0,-1554
992,11.529767,0,2,0,1047,-2,-1559
993,11.541351,0,0,0,1048,1,-1556
994,11.552969,0,-1,0,1045,-2,-1566
995,11.564648,1,2,-2,1044,0,-1564
996,11.576321,0,2,0,1048,0,-1559
997,11.588024,1,-1,2,1043,-2,-1557
998,11.599647,0,2,-1,1044,0,-1561
999,11.611298,2,1,1,1048,-3,-1562
1000,11.62297,1,3,-1,1047,1,-1554
1001,11.634631,1,2,-1,1047,1,-1560
1002,11.6463,1,2,-2,1046,0,-1558
1003,11.657981,1,0,0,1049,-3,-1564
1004,11.669553,3,0,2,1042,2,-1559
1005,11.681106,0,2,1,1060,-1,-1564
1006,11.692687,1,2,0,1049,-1,-1562
1007,11.704237,1,2,-2,1045,-3,-1565
1008,11.715797,-1,0,1,1048,-2,-1560
1009,11.72737,-2,1,1,1047,1,-1564
1010,11.738912,0,1,0,1046,-2,-1565
1011,11.750467,2,0,0,1050,-1,-1563
1012,11.762167,1,-1,2,1049,0,-1558
1013,11.773846,0,3,-1,1047,3,-1557
1014,11.785515,1,0,0,1048,0,-1559
1015,11.797168,1,0,2,1050,0,-1564
1016,11.808843,-1,3,2,1042,-3,-1554
1017,11.820532,1,2,2,1048,-5,-1556
1018,11.83216,1,-1,0,1047,2,-1563
1019,11.843831,0,1,0,1046,-1,-1555
1020,11.85552,1,3,0,1047,0,-1562
1021,11.867085,-1,0,1,1047,0,-1561
1022,11.878642,0,2,0,1045,0,-1563
1023,11.890225,0,2,-1,1047,1,-1558
1024,11.901776,-2,1,1,1043,1,-1554
1025,11.913333,0,0,-1,1053,0,-1553
1026,11.924915,0,2,0,1047,0,-1563
1027,11.936474,0,2,2,1050,-2,-1565
1028,11.948069,-1,1,-1,1049,-4,-1553
1029,11.959643,0,3,-2,1045,-1,-1558
1030,11.971304,-1,3,1,1046,-3,-1559
1031,11.983001,0,1,0,1044,0,-1561
1032,11.994645,-1,3,-1,1049,1,-1565
1033,12.006292,0,2,1,1046,-1,-1559
1034,12.017971,0,2,1,1046,-4,-1555
1035,12.029635,1,1,-1,1051,-1,-1555
1036,12.041289,-1,1,0,1050,0,-1560
1037,12.052972,-1,2,-1,1047,1,-1556
1038,12.064661,0,2,-1,1052,1,-1557
1039,12.076322,-1,2,1,1046,0,-1564
1040,12.08802,1,1,0,1045,0,-1558
1041,12.099645,2,0,1,1049,1,-1556
1042,12.111298,1,3,0,1051,-4,-1560
1043,12.122987,1,2,-1,1044,0,-1554
1044,12.134641,0,4,0,1047,-1,-1561
1045,12.146292,-2,3,0,1047,0,-1556
1046,12.157996,-2,2,-1,1045,0,-1562
1047,12.169646,0,2,0,1042,-1,-1563
1048,12.1813,1,1,0,1046,-4,-1554
1049,12.192997,1,1,1,1050,-1,-1559
1050,12.204677,0,1,2,1047,0,-1565
1051,12.216356,0,1,-1,1052,2,-1556
1052,12.228036,0,4,-1,1047,-1,-1562
1053,12.239712,-1,2,0,1042,2,-1555
1054,12.25139,0,1,1,1048,0,-1559
1055,12.263138,0,1,1,1050,0,-1555
1056,12.274772,0,3,2,1045,-3,-1558
1057,12.286322,-1,0,1,1045,-1,-1557
1058,12.297877,-2,2,-1,1041,-1,-1557
1059,12.309463,0,0,0,1050,-2,-1564
1060,12.321033,-1,1,0,1051,-1,-1557
1061,12.332586,1,0,2,1045,2,-1563
1062,12.344139,2,2,0,1046,-2,-1561
1063,12.355695,2,1,0,1048,2,-1558
1064,12.367251,1,3,0,1045,0,-1558
1065,12.378881,0,1,3,1047,-1,-1555
1066,12.390537,0,4,-1,1045,3,-1562
1067,12.402207,-1,2,1,1045,0,-1563
1068,12.413877,1,0,0,1047,-2,-1559
1069,12.425531,1,0,1,1048,1,-1562
1070,12.4372,1,1,-1,1049,1,-1554
1071,12.44887,2,1,3,1046,0,-1561
1072,12.46066,-1,1,0,1046,-5,-1561
1073,12.47236,1,1,-1,1046,-2,-1562
1074,12.484042,0,1,-1,1047,0,-1558
1075,12.495614,-1,-1,1,1047,-2,-1554
1076,12.507162,-1,4,-1,1046,-2,-1555
1077,12.518713,0,0,0,1049,0,-1558
1078,12.530256,0,1,-1,1048,-3,-1558
1079,12.54181,1,0,1,1048,-1,-1559
1080,12.553364,1,2,2,1045,-1,-1564
1081,12.56496,1,3,-1,1046,-4,-1561
1082,12.576522,2,3,0,1047,0,-1555
1083,12.588158,-2,1,1,1048,0,-1560
1084,12.599838,1,0,0,1048,0,-1563
1085,12.611519,1,0,1,1046,-1,-1560
1086,12.623177,0,2,1,1048,-1,-1559
1087,12.634861,3,-1,-1,1049,-4,-1559
1088,12.646524,2,1,1,1047,-5,-1563
1089,12.658177,1,2,0,1047,2,-1561
1090,12.669845,1,2,0,1049,-3,-1553
1091,12.681508,-1,1,1,1046,-1,-1561
1092,12.693193,-1,1,0,1044,-2,-1556
1093,12.704757,0,-1,-1,1043,-3,-1561
1094,12.716344,0,3,1,1046,-2,-1559
1095,12.72794,-1,2,2,1049,-1,-1557
1096,12.739506,1,0,0,1046,0,-1559
1097,12.751068,0,1,0,1048,0,-1554
1098,12.762617,0,1,-1,1043,-1,-1558
1099,12.774162,2,1,-2,1047,-1,-1557
1100,12.785717,2,1,2,1046,0,-1553
1101,12.797427,-1,1,1,1044,-3,-1556
1102,12.809105,0,1,0,1047,-1,-1562
1103,12.820785,0,1,2,1043,1,-1562
1104,12.832415,0,2,-1,1047,-3,-1560
1105,12.844089,-1,2,0,1049,-4,-1561
1106,12.855776,1,-2,-1,1045,1,-1555
1107,12.867431,1,1,-1,1048,-3,-1560
1108,12.879104,-1,3,1,1049,0,-1559
1109,12.890748,2,2,-1,1042,-2,-1561
1110,12.90232,2,3,0,1049,0,-1557
1111,12.913868,2,0,0,1045,-1,-1558
1112,12.925446,0,2,-2,1046,-3,-1553
1113,12.936992,-1,1,0,1048,-1,-1558
1114,12.948576,2,2,1,1047,-1,-1558
1115,12.960103,1,1,0,1048,2,-1560
1116,12.971693,-1,2,1,1045,2,-1560
1117,12.983237,-1,0,1,1047,-2,-1555
1118,12.994791,0,1,-1,1050,1,-1563
1119,13.006434,1,2,1,1046,0,-1564
1120,13.018085,2,1,0,1050,-3,-1561
1121,13.029744,0,1,2,1043,-3,-1560
1122,13.0414,0,2,0,1045,-3,-1566
1123,13.053048,-1,4,-1,1047,0,-1558
1124,13.064697,1,2,0,1046,0,-1555
1125,13.076403,1,2,2,1047,0,-1565
1126,13.088062,0,1,1,1046,-3,-1556
1127,13.099735,1,2,1,1049,-2,-1559
1128,13.111392,2,2,1,1045,4,-1562
1129,13.122966,0,2,0,1047,0,-1561
1130,13.134533,1,-2,1,1045,-4,-1562
1131,13.146078,-1,1,1,1049,-4,-1562
1132,13.157619,-1,1,0,1046,-1,-1560
1133,13.169174,1,1,3,1050,0,-1560
1134,13.180726,0,0,0,1046,0,-1558
1135,13.192276,0,0,1,1047,1,-1559
1136,13.203867,1,2,1,1046,1,-1561
1137,13.215561,-1,1,-1,1049,1,-1556
1138,13.227217,0,-1,2,1048,-2,-1559
1139,13.238874,1,1,2,1046,0,-1564
1140,13.250524,1,1,2,1046,1,-1557
1141,13.26216,2,3,1,1046,0,-1561
1142,13.273809,-1,1,-1,1040,0,-1562
1143,13.2855,0,0,0,1047,-1,-1554
1144,13.29714,1,0,1,1047,0,-1562
1145,13.308817,0,1,-1,1050,0,-1558
1146,13.320476,-1,4,-1,1044,-1,-1559
1147,13.332045,0,-3,1,1046,-3,-1558
1148,13.343616,1,2,0,1048,1,-1560
1149,13.355166,0,0,0,1047,-2,-1558
1150,13.366717,1,1,1,1045,-2,-1558
1151,13.378318,0,0,2,1048,-1,-1562
1152,13.38987,2,2,0,1046,-4,-1555
1153,13.401446,1,1,1,1046,-1,-1562
1154,13.412997,0,-1,0,1047,-1,-1561
1155,13.424704,0,1,0,1046,0,-1570
1156,13.436377,0,-1,-1,1049,0,-1558
1157,13.448035,1,1,1,1045,-2,-1560
1158,13.4597,0,1,-1,1047,0,-1557
1159,13.471383,0,1,0,1044,0,-1559
1160,13.483032,1,1,0,1047,1,-1557
1161,13.494696,1,0,1,1047,0,-1563
1162,13.506352,1,0,0,1046,-3,-1559
1163,13.518035,-1,2,1,1044,-1,-1556
1164,13.52969,1,1,-2,1046,-1,-1558
1165,13.541242,-1,2,1,1046,1,-1555
1166,13.552829,0,2,-1,1047,0,-1559
1167,13.564379,1,0,0,1050,0,-1559
1168,13.57593,-2,1,-1,1050,0,-1561
1169,13.587496,0,3,-1,1045,3,-1567
1170,13.599062,-1,0,0,1045,-2,-1562
1171,13.610617,0,0,2,1047,0,-1565
1172,13.622199,-1,2,-1,1046,-1,-1562
1173,13.633817,-1,0,-1,1043,-6,-1555
1174,13.645487,-1,1,0,1049,0,-1556
1175,13.657139,-2,0,1,1050,4,-1557
1176,13.668816,1,2,-1,1045,-2,-1559
1177,13.680489,-1,0,1,1044,-6,-1557
1178,13.692158,2,3,1,1045,2,-1562
1179,13.703874,1,1,0,1044,-1,-1556
1180,13.715698,1,1,0,1045,0,-1562
1181,13.727445,1,4,0,1049,-2,-1557
1182,13.739172,0,3,1,1049,2,-1556
1183,13.750881,0,4,0,1046,1,-1560
1184,13.762618,3,1,-2,1046,0,-1560
1185,13.774331,1,4,0,1047,0,-1557
1186,13.785998,0,3,3,1045,-3,-1558
1187,13.797649,0,0,0,1046,0,-1559
1188,13.809341,1,3,3,1047,1,-1557
1189,13.821006,0,2,0,1046,-3,-1553
1190,13.832679,-1,4,0,1050,0,-1556
1191,13.844348,0,0,0,1043,1,-1565
1192,13.855919,0,1,-1,1045,-2,-1563
1193,13.867497,2,2,1,1051,-2,-1560
1194,13.879061,0,3,1,1045,-5,-1559
1195,13.89061,1,2,-1,1048,0,-1560
1196,13.902158,0,2,-1,1043,0,-1562
1197,13.913705,2,1,3,1045,0,-1561
1198,13.925282,0,1,1,1047,-3,-1562
1199,13.936857,0,4,-1,1046,0,-1553
1200,13.948562,-2,2,-2,1047,0,-1561
1201,13.960234,1,-1,3,1047,0,-1555
1202,13.9719,-1,1,0,1051,-4,-1559
1203,13.983555,-1,3,0,1045,-1,-1556
1204,13.995224,-1,1,0,1046,-2,-1561
1205,14.006878,0,1,0,1045,2,-1565
1206,14.018532,0,1,1,1049,2,-1558
1207,14.030192,0,2,1,1045,0,-1554
1208,14.041876,2,-1,-2,1042,0,-1558
1209,14.053576,1,1,-2,1049,-3,-1560
1210,14.065151,1,0,-2,1046,1,-1561
1211,14.076723,1,-1,0,1049,3,-1555
1212,14.088273,0,3,1,1046,-3,-1551
1213,14.099855,2,2,0,1048,0,-1555
1214,14.111444,-1,3,-1,1050,0,-1553
1215,14.123007,0,1,0,1046,0,-1564
1216,14.134568,2,2,0,1048,3,-1560
1217,14.146129,-1,1,0,1044,0,-1562
1218,14.157749,0,3,2,1046,-2,-1558
1219,14.169451,2,1,0,1047,0,-1555
1220,14.181104,-1,2,0,1048,2,-1559
1221,14.192752,1,2,0,1049,2,-1564
1222,14.204422,-1,0,2,1043,1,-1556
1223,14.21607,1,2,0,1045,-4,-1559
1224,14.227728,-1,2,0,1049,-3,-1555
1225,14.239388,2,2,-1,1052,0,-1564
1226,14.251054,-2,2,-2,1048,0,-1556
1227,14.262723,1,1,1,1047,-5,-1555
1228,14.274312,0,4,2,1047,-5,-1558
1229,14.28586,0,2,1,1049,-2,-1556
1230,14.297415,-1,1,0,1051,0,-1557
1231,14.308968,0,1,-1,1048,-2,-1558
1232,14.320521,0,3,0,1047,0,-1561
1233,14.332104,2,1,-2,1044,0,-1565
1234,14.343702,0,3,-1,1049,0,-1564
1235,14.35527,0,2,-1,1046,-1,-1556
1236,14.366889,-1,1,0,1043,0,-1557
1237,14.378551,-2,2,1,1050,-2,-1559
1238,14.390197,0,2,0,1044,-1,-1565
1239,14.401875,0,2,1,1049,-1,-1554
1240,14.413535,1,1,0,1047,-1,-1557
1241,14.425184,-1,3,1,1044,1,-1562
1242,14.43686,0,0,-1,1045,2,-1566
1243,14.448546,1,1,1,1043,-4,-1558
1244,14.460212,0,3,-3,1046,-2,-1559
1245,14.47189,0,2,1,1047,1,-1559
1246,14.483487,0,1,3,1048,0,-1559
1247,14.495052,1,1,-1,1046,0,-1562
1248,14.506613,-1,3,1,1046,0,-1557
1249,14.518163,-1,1,0,1048,-2,-1560
1250,14.529714,2,2,0,1047,0,-1557
1251,14.54129,-1,2,3,1051,-2,-1560
1252,14.552845,0,1,0,1050,0,-1559
1253,14.564438,2,0,1,1046,-1,-1562
1254,14.576148,1,4,2,1045,0,-1561
1255,14.587826,0,2,-1,1047,-2,-1560
1256,14.599508,1,2,0,1046,0,-1562
1257,14.611164,1,1,0,1043,-1,-1564
1258,14.622843,0,1,3,1050,-1,-1558
1259,14.63451,0,0,-1,1052,0,-1557
1260,14.646181,0,1,0,1048,0,-1560
1261,14.657847,-1,2,-1,1049,3,-1557
1262,14.669515,0,1,1,1047,-3,-1558
1263,14.681177,0,2,-2,1048,-3,-1558
1264,14.692743,1,1,-1,1046,-1,-1554
1265,14.704327,1,1,0,1048,-2,-1558
1266,14.715927,0,2,1,1047,-3,-1560
1267,14.727496,1,4,1,1048,-1,-1555
1268,14.739061,-2,2,0,1046,4,-1562
1269,14.750606,0,1,-1,1046,3,-1564
1270,14.762171,1,2,0,1045,-2,-1555
1271,14.77373,0,2,1,1046,-1,-1563
1272,14.785365,1,1,1,1048,0,-1558
1273,14.797015,1,2,0,1045,-5,-1563
1274,14.808674,1,0,0,1046,0,-1555
1275,14.820355,0,0,-1,1046,0,-1558
1276,14.832025,0,1,-1,1046,-1,-1561
1277,14.843644,2,1,0,1047,1,-1561
1278,14.855368,-1,2,-1,1049,2,-1557
1279,14.867013,1,1,3,1045,0,-1558
1280,14.878655,-1,3,1,1047,-1,-1559
1281,14.8902,0,3,1,1049,0,-1560
1282,14.901745,1,-1,0,1048,1,-1568
1283,14.913323,0,-1,0,1046,-1,-1561
1284,14.92487,0,1,-1,1044,0,-1560
1285,14.936417,-1,2,1,1049,0,-1564
1286,14.947985,2,0,1,1047,0,-1555
1287,14.95956,-1,3,1,1047,-1,-1556
1288,14.971111,1,1,0,1048,-3,-1551
1289,14.98269,1,3,1,1048,-2,-1560
1290,14.994364,1,3,1,1046,-1,-1561
1291,15.006011,1,2,1,1048,0,-1556
1292,15.017656,0,3,1,1049,-1,-1562
1293,15.029306,0,1,1,1048,0,-1560
1294,15.040968,2,-1,0,1047,-1,-1563
1295,15.05266,-1,2,1,1047,-1,-1559
1296,15.064311,1,0,0,1045,-2,-1558
1297,15.07597,1,1,-1,1050,-2,-1552
1298,15.087638,-1,1,-1,1043,2,-1560
1299,15.09919,-1,2,1,1048,1,-1551
1300,15.110751,1,1,0,1046,-3,-1560
1301,15.122311,0,2,-2,1048,-1,-1559
1302,15.13386,1,2,0,1048,-2,-1556
1303,15.145434,0,2,1,1045,-4,-1561
1304,15.156977,1,2,0,1049,0,-1563
1305,15.168521,1,0,0,1046,0,-1556
1306,15.180094,3,2,1,1048,0,-1557
1307,15.191638,2,-2,0,1047,0,-1554
1308,15.203291,0,1,0,1049,-2,-1558
1309,15.214939,-1,2,-3,1045,-2,-1562
1310,15.226625,0,0,0,1048,1,-1565
1311,15.238272,1,2,0,1045,-4,-1557
1312,15.249923,1,-1,0,1047,0,-1561
1313,15.261595,-1,0,2,1051,-4,-1564
1314,15.273247,-1,1,1,1048,0,-1559
1315,15.284984,-1,0,-1,1050,-5,-1562
1316,15.296663,2,1,-1,1049,2,-1561
1317,15.308344,0,3,-1,1045,-1,-1559
1318,15.320018,-2,0,-3,1048,-1,-1558
1319,15.33165,0,2,-1,1049,0,-1559
1320,15.343318,1,3,0,1047,-1,-1553
1321,15.354979,-1,2,0,1047,0,-1555
1322,15.36663,0,1,0,1047,0,-1559
1323,15.378277,-1,2,0,1047,-2,-1558
1324,15.38997,0,2,1,1045,-1,-1553
1325,15.401623,0,1,0,1049,0,-1559
1326,15.413275,0,-1,3,1043,0,-1561
1327,15.424941,0,0,0,1048,-1,-1562
1328,15.436601,0,0,-1,1047,0,-1556
1329,15.448284,2,2,0,1045,-4,-1560
1330,15.459907,0,0,-1,1048,-1,-1555
1331,15.471557,1,2,-2,1047,-1,-1558
1332,15.483213,0,1,1,1048,-1,-1560
1333,15.494893,1,3,-2,1049,-4,-1558
1334,15.506543,-1,2,0,1048,0,-1556
1335,15.518193,0,1,0,1046,0,-1559
1336,15.529877,0,3,-3,1049,-3,-1553
1337,15.541588,0,0,0,1047,2,-1559
1338,15.553246,0,0,1,1049,-1,-1556
1339,15.56493,-1,1,1,1047,2,-1559
1340,15.576615,1,1,0,1049,-2,-1565
1341,15.588278,0,2,1,1053,0,-1563
1342,15.599984,1,3,0,1045,-5,-1562
1343,15.611622,-1,2,1,1042,-2,-1556
1344,15.623194,-1,0,-1,1049,0,-1558
1345,15.634753,-1,2,0,1046,-5,-1560
1346,15.64631,0,1,0,1051,3,-1558
1347,15.657873,-2,1,3,1048,0,-1555
1348,15.669423,0,1,-2,1046,0,-1557
1349,15.680969,2,0,1,1044,-2,-1561
1350,15.692518,0,1,0,1049,0,-1559
1351,15.704108,-2,0,-1,1045,3,-1557
1352,15.715806,0,1,0,1043,0,-1558
1353,15.727513,0,2,0,1045,-3,-1557
1354,15.739154,-1,2,0,1049,0,-1559
1355,15.750826,0,-1,-1,1047,-2,-1559
1356,15.762507,1,0,-1,1051,-1,-1553
1357,15.774153,0,2,0,1046,0,-1565
1358,15.785836,1,-2,-2,1050,0,-1558
1359,15.797489,2,1,-1,1048,-5,-1561
1360,15.809156,1,2,-1,1045,0,-1557
1361,15.82086,1,2,0,1046,-1,-1563
1362,15.832435,0,1,0,1048,0,-1554
1363,15.843997,2,2,2,1045,0,-1560
1364,15.855556,0,2,0,1048,1,-1560
1365,15.867105,1,1,1,1047,-4,-1564
1366,15.878654,2,2,-1,1051,-1,-1560
1367,15.890201,0,1,-1,1048,-2,-1565
1368,15.90178,-1,2,-3,1046,0,-1558
1369,15.913346,2,2,0,1046,2,-1559
1370,15.924983,1,2,1,1046,0,-1556
1371,15.936686,1,1,-1,1046,-1,-1559
1372,15.948348,2,0,1,1049,-2,-1557
1373,15.960073,1,3,1,1047,-3,-1563
1374,15.971759,0,2,1,1049,-1,-1561
1375,15.983435,0,2,4,1046,0,-1557
1376,15.995096,-1,2,1,1046,0,-1563
1377,16.006749,-1,1,1,1046,0,-1556
1378,16.018415,2,1,-1,1043,-1,-1561
1379,16.03011,1,3,-2,1047,0,-1562
1380,16.041668,-1,1,-1,1044,-2,-1557
1381,16.053213,2,0,0,1045,-1,-1559
1382,16.064756,-2,0,1,1046,-1,-1558
1383,16.07633,1,3,-1,1046,0,-1563
1384,16.087861,-1,-1,0,1047,-1,-1555
1385,16.099377,1,1,-1,1043,-4,-1558
1386,16.110926,0,2,-1,1049,0,-1561
1387,16.122491,0,0,-1,1048,-1,-1560
1388,16.13412,2,-1,1,1045,0,-1553
1389,16.145766,1,3,1,1048,-1,-1559
1390,16.157421,-1,2,-1,1048,0,-1566
1391,16.169082,-1,0,-2,1049,0,-1561
1392,16.180737,1,2,1,1048,1,-1564
1393,16.19241,-2,2,0,1050,0,-1560
1394,16.204062,0,2,1,1050,-2,-1563
1395,16.215724,-1,2,1,1049,-1,-1556
1396,16.227407,0,-1,0,1046,0,-1565
1397,16.239068,-1,4,-1,1047,-4,-1557
1398,16.250718,-2,2,0,1042,2,-1562
1399,16.262371,0,0,0,1046,0,-1560
1400,16.274016,0,-1,3,1048,0,-1558
1401,16.285664,1,2,1,1049,0,-1555
1402,16.29734,2,0,-1,1042,3,-1556
1403,16.308987,1,-2,0,1047,-2,-1558
1404,16.320679,-1,2,0,1045,-2,-1557
1405,16.332393,0,0,0,1046,-1,-1562
1406,16.344069,-2,1,-1,1048,3,-1567
1407,16.355724,0,1,1,1047,-2,-1562
1408,16.367392,0,1,1,1046,0,-1559
1409,16.379061,-1,3,1,1044,0,-1559
1410,16.390722,2,1,-1,1051,0,-1560
1411,16.402392,0,4,-2,1047,0,-1557
1412,16.414059,-1,3,1,1048,-2,-1563
1413,16.42572,1,0,0,1050,-1,-1556
1414,16.437399,0,1,-1,1048,0,-1554
1415,16.449068,0,0,1,1047,0,-1561
1416,16.46073,-1,1,3,1045,-3,-1558
1417,16.472402,3,2,-1,1048,0,-1566
1418,16.484075,1,0,-1,1045,-1,-1559
1419,16.495723,-1,2,0,1051,-1,-1560
1420,16.507388,-1,2,-1,1048,1,-1561
1421,16.519055,1,2,0,1047,0,-1562
1422,16.530715,-1,3,-1,1049,1,-1562
1423,16.542375,0,0,1,1048,-1,-1552
1424,16.55403,-2,2,0,1047,0,-1560
1425,16.565711,1,1,1,1047,0,-1559
1426,16.577367,1,1,2,1046,-2,-1558
1427,16.589014,0,2,-1,1045,-1,-1562
1428,16.600695,2,2,0,1048,0,-1558
1429,16.612339,-1,2,0,1046,-1,-1554
1430,16.624026,-1,-1,1,1051,2,-1558
1431,16.635694,-2,0,-1,1044,4,-1563
1432,16.647396,1,0,0,1049,-2,-1554
1433,16.659087,1,-1,0,1048,-1,-1563
1434,16.670672,0,3,-1,1047,1,-1559
1435,16.682215,0,0,1,1049,4,-1561
1436,16.693772,0,1,1,1048,2,-1552
1437,16.705347,0,1,0,1046,-2,-1558
1438,16.716892,1,3,1,1049,0,-1558
1439,16.728464,0,2,0,1047,-1,-1556
1440,16.740048,0,2,0,1044,4,-1559
1441,16.751625,1,3,-1,1044,-1,-1553
1442,16.763248,-1,1,1,1045,-3,-1566
1443,16.77493,0,2,1,1048,-1,-1557
1444,16.786579,0,1,0,1048,0,-1561
1445,16.798229,1,2,1,1050,-1,-1558
1446,16.809879,1,2,0,1046,0,-1562
1447,16.821526,0,2,1,1046,-2,-1556
1448,16.833197,-2,2,-1,1051,0,-1559
1449,16.844858,0,2,-1,1046,1,-1556
1450,16.856569,1,0,0,1048,-2,-1560
1451,16.86823,0,-1,-1,1051,1,-1557
1452,16.8799,-2,3,-1,1050,-7,-1562
1453,16.891575,0,1,0,1047,0,-1554
1454,16.903226,-1,0,0,1047,0,-1562
1455,16.914873,1,2,0,1047,-2,-1557
1456,16.926522,-1,2,-1,1046,-3,-1560
1457,16.938184,-1,2,0,1045,-1,-1563
1458,16.949851,2,1,0,1050,0,-1559
1459,16.961529,1,3,-1,1045,0,-1556
1460,16.973202,0,2,0,1047,-2,-1561
1461,16.984859,1,1,1,1046,0,-1563
1462,16.996556,-1,1,-1,1046,0,-1556
1463,17.008221,1,0,2,1047,-1,-1556
1464,17.019894,2,3,0,1050,2,-1559
1465,17.031565,0,2,0,1048,0,-1555
1466,17.043223,-1,0,0,1047,-4,-1560
1467,17.054872,0,1,1,1047,0,-1562
1468,17.066548,0,1,0,1049,0,-1564
1469,17.078228,-1,4,-1,1047,-1,-1551
1470,17.089878,1,2,1,1047,-2,-1560
1471,17.101519,-1,2,1,1051,-2,-1556
1472,17.113167,1,2,-2,1044,1,-1559
1473,17.124845,1,2,-2,1050,1,-1560
1474,17.136533,0,2,1,1044,0,-1562
1475,17.148159,2,1,-1,1047,0,-1563
1476,17.159832,-1,1,0,1046,1,-1558
1477,17.171518,-1,-1,1,1047,1,-1567
1478,17.183197,0,1,2,1045,-4,-1560
1479,17.194783,4,1,-1,1049,-3,-1558
1480,17.20633,0,2,1,1044,1,-1558
1481,17.217881,0,3,0,1045,-3,-1565
1482,17.229432,-1,2,0,1052,2,-1557
1483,17.240981,2,3,1,1048,-2,-1559
1484,17.252547,2,1,1,1047,0,-1561
1485,17.264106,1,2,1,1045,-2,-1553
1486,17.275691,-2,4,-1,1048,0,-1560
1487,17.287379,-1,0,1,1047,-1,-1558
1488,17.299041,1,2,0,1046,0,-1560
1489,17.310688,1,0,-1,1042,3,-1559
1490,17.322346,1,0,1,1047,0,-1560
1491,17.334001,1,2,2,1043,-3,-1558
1492,17.345671,0,1,-1,1046,0,-1560
1493,17.357342,0,1,1,1046,-1,-1561
1494,17.368999,-2,2,0,1044,0,-1564
1495,17.380718,0,1,2,1048,0,-1554
1496,17.392376,-2,1,3,1049,1,-1557
1497,17.403938,1,2,3,1047,-2,-1568
1498,17.415503,-1,2,2,1046,-2,-1559
1499,17.427056,-1,0,0,1048,2,-1560
1500,17.438618,1,2,2,1047,-2,-1551
1501,17.450163,0,0,2,1049,-1,-1554
1502,17.461715,0,0,1,1046,0,-1563
1503,17.473286,1,2,0,1047,-4,-1558
1504,17.484842,0,2,1,1048,-1,-1557
1505,17.496469,0,2,2,1048,-2,-1560
1506,17.508179,1,2,0,1050,0,-1559
1507,17.519872,0,4,0,1046,1,-1555
1508,17.531539,-1,2,0,1044,-3,-1563
1509,17.543204,0,1,0,1043,0,-1556
1510,17.554862,-2,0,1,1045,0,-1565
1511,17.566511,0,2,0,1047,-1,-1557
1512,17.578162,1,0,-1,1047,0,-1557
1513,17.589862,0,1,1,1046,0,-1559
1514,17.601527,2,0,0,1048,0,-1560
1515,17.61309,0,3,-2,1045,1,-1557
1516,17.62467,0,2,-2,1047,0,-1562
1517,17.636233,1,0,2,1048,3,-1553
1518,17.647796,-1,1,0,1051,0,-1559
1519,17.659365,0,1,-1,1049,-4,-1557
1520,17.670919,1,-2,1,1049,0,-1560
1521,17.682475,-1,0,-1,1047,-1,-1555
1522,17.694048,0,2,-1,1051,-2,-1563
1523,17.705686,2,-1,-1,1048,-1,-1563
1524,17.71735,0,0,-2,1047,-6,-1554
1525,17.728992,-1,3,1,1044,-4,-1552
1526,17.740664,2,0,-1,1041,0,-1558
1527,17.75234,-1,2,1,1045,0,-1559
1528,17.764019,1,2,1,1044,2,-1552
1529,17.775647,-2,1,-1,1045,0,-1561
1530,17.787316,1,2,-1,1044,-2,-1559
1531,17.79898,0,1,2,1048,-1,-1555
1532,17.810665,2,0,0,1050,-3,-1558
1533,17.822226,-1,1,-3,1049,-6,-1554
1534,17.833807,1,1,1,1048,0,-1559
1535,17.845357,1,1,-1,1046,-2,-1560
1536,17.856918,0,2,1,1045,-1,-1568
1537,17.868483,1,-1,-1,1044,-1,-1559
1538,17.88006,0,2,0,1048,1,-1560
1539,17.891621,1,1,0,1049,0,-1560
1540,17.903188,0,2,1,1051,-1,-1562
1541,17.914832,2,0,0,1047,0,-1557
1542,17.926496,0,3,1,1043,-3,-1554
1543,17.938195,0,2,-1,1048,0,-1555
1544,17.949848,1,2,0,1043,0,-1562
1545,17.961507,0,2,1,1046,0,-1555
1546,17.973209,-1,0,0,1048,0,-1564
1547,17.984857,-1,3,1,1048,0,-1561
1548,17.996558,0,3,1,1046,-2,-1556
1549,18.008252,0,0,1,1048,0,-1556
1550,18.019905,-1,-1,0,1050,0,-1553
1551,18.031491,-1,3,2,1049,-1,-1560
1552,18.043047,1,2,1,1047,-2,-1558
1553,18.0546,0,3,-1,1048,2,-1557
1554,18.066165,0,2,1,1049,-3,-1552
1555,18.077706,-1,0,2,1048,1,-1562
1556,18.089285,0,1,0,1046,1,-1565
1557,18.100841,0,1,1,1047,-1,-1564
1558,18.112422,-1,0,0,1043,1,-1563
1559,18.124045,0,1,1,1043,-1,-1559
1560,18.135718,-1,1,0,1048,-2,-1560
1561,18.147388,1,3,0,1046,-1,-1556
1562,18.159067,0,0,2,1048,1,-1562
1563,18.170717,0,3,1,1047,0,-1563
1564,18.182399,0,2,1,1052,-2,-1557
1565,18.194075,2,1,1,1048,1,-1557
1566,18.205723,0,1,0,1048,1,-1559
1567,18.217383,0,1,-2,1046,1,-1566
1568,18.229046,-1,2,1,1044,1,-1558
1569,18.240605,-1,2,-1,1048,2,-1558
1570,18.252195,0,1,1,1042,0,-1554
1571,18.263792,0,1,1,1049,2,-1558
1572,18.275366,-1,2,0,1046,0,-1549
1573,18.286922,-1,2,2,1048,0,-1559
1574,18.298477,0,1,0,1049,0,-1557
1575,18.310025,-1,3,0,1047,0,-1561
1576,18.321594,0,2,1,1045,-2,-1558
1577,18.335704,-1,3,0,1050,-1,-1560
1578,18.347393,0,0,-1,1041,0,-1561
1579,18.359079,0,3,-1,1048,-2,-1558
1580,18.370732,0,5,-1,1046,-3,-1560
1581,18.382384,1,1,0,1047,-3,-1559
1582,18.394056,0,2,0,1046,2,-1556
1583,18.405715,0,2,2,1047,-2,-1559
1584,18.417374,0,1,2,1047,0,-1559
1585,18.42916,0,3,-2,1047,-1,-1567
1586,18.440837,1,3,0,1047,1,-1556
1587,18.45242,1,2,0,1046,-5,-1563
1588,18.463989,0,2,-1,1045,-1,-1562
1589,18.475545,1,-1,-2,1044,-2,-1561
1590,18.487085,0,3,-1,1049,0,-1561
1591,18.498634,0,1,0,1046,0,-1563
1592,18.510181,1,2,-1,1046,0,-1559
1593,18.521748,1,2,-2,1045,-3,-1562
1594,18.533367,0,2,0,1049,0,-1558
1595,18.544998,1,0,2,1047,-2,-1561
1596,18.55672,0,-2,0,1049,-2,-1561
1597,18.56843,-1,2,-1,1048,0,-1560
1598,18.580106,0,1,0,1047,0,-1555
1599,18.591784,-1,0,1,1051,-1,-1558
1600,18.603448,1,2,0,1048,-1,-1558
1601,18.615099,-2,1,0,1049,1,-1562
1602,18.626776,0,1,-1,1047,0,-1559
1603,18.638466,0,1,-3,1042,2,-1559
1604,18.650113,0,3,0,1048,-1,-1564
1605,18.661766,1,2,1,1049,-1,-1557
1606,18.67346,0,2,-1,1048,5,-1561
1607,18.685103,0,2,0,1046,-2,-1555
1608,18.696755,2,1,-1,1047,-3,-1556
1609,18.708437,0,0,1,1046,-1,-1560
1610,18.720104,1,2,0,1050,0,-1556
1611,18.731775,0,4,1,1047,2,-1564
1612,18.743566,0,2,-3,1047,-2,-1556
1613,18.755231,2,0,0,1048,0,-1551
1614,18.766794,0,2,1,1050,-1,-1560
1615,18.778337,-1,1,0,1046,3,-1560
1616,18.789885,1,2,1,1047,-2,-1566
1617,18.801434,0,1,0,1045,-4,-1557
1618,18.812982,1,0,1,1050,1,-1565
1619,18.824543,1,2,-1,1049,-1,-1552
1620,18.836109,1,1,0,1046,-2,-1560
1621,18.847678,-1,3,1,1048,-1,-1558
1622,18.859334,0,0,1,1047,-3,-1555
1623,18.87099,-1,0,0,1047,0,-1557
1624,18.882665,2,1,2,1046,0,-1561
1625,18.894327,1,1,1,1046,-3,-1562
1626,18.905979,-2,1,0,1049,-2,-1552
1627,18.91764,-1,1,0,1046,-1,-1555
1628,18.929338,1,2,1,1050,0,-1562
1629,18.940989,1,3,0,1046,-1,-1561
1630,18.952691,-1,0,1,1048,-5,-1556
1631,18.964247,0,1,-2,1048,0,-1562
1632,18.975797,0,1,1,1046,0,-1563
1633,18.987378,0,0,1,1049,0,-1561
1634,18.998946,1,1,-1,1046,0,-1563
1635,19.010521,-1,3,0,1045,-1,-1564
1636,19.022062,0,5,-1,1049,-2,-1556
1637,19.033606,1,2,0,1045,-4,-1559
1638,19.045153,-1,0,-1,1047,-3,-1564
1639,19.056797,0,2,0,1052,3,-1557
1640,19.068478,0,1,0,1047,-3,-1558
1641,19.080173,-1,1,0,1045,-2,-1562
1642,19.091879,-2,1,2,1046,-1,-1552
1643,19.103545,-1,0,2,1050,-5,-1559
1644,19.115202,1,0,0,1042,-4,-1562
1645,19.126858,0,0,0,1045,0,-1553
1646,19.138514,-2,0,1,1048,0,-1553
1647,19.150155,1,3,-1,1049,0,-1558
1648,19.16178,-1,1,1,1044,-1,-1555
1649,19.173324,-1,1,1,1049,-4,-1561
1650,19.184875,0,2,-2,1049,-1,-1562
1651,19.196461,-1,3,-1,1048,-2,-1557
1652,19.208022,-1,2,0,1044,0,-1556
1653,19.219598,-2,4,1,1047,1,-1559
1654,19.231169,-1,2,1,1048,0,-1557
1655,19.242723,2,0,1,1047,-1,-1559
1656,19.254288,1,2,0,1047,0,-1558
1657,19.265952,-1,4,2,1051,0,-1559
1658,19.277594,1,1,1,1046,-4,-1558
1659,19.289243,1,1,2,1048,-1,-1556
1660,19.300969,0,2,1,1045,0,-1564
1661,19.312648,0,1,0,1046,1,-1560
1662,19.324314,0,1,2,1044,-2,-1555
1663,19.335987,1,1,-1,1050,-4,-1555
1664,19.347647,-1,3,-1,1047,0,-1561
1665,19.359334,0,4,1,1053,-1,-1557
1666,19.371017,2,4,-1,1046,-2,-1564
1667,19.38258,0,3,0,1049,-1,-1561
1668,19.394129,-1,-1,1,1043,-1,-1560
1669,19.405677,1,1,0,1048,-3,-1552
1670,19.417286,0,0,-1,1046,-2,-1564
1671,19.428835,1,2,1,1045,-1,-1556
1672,19.4404,1,2,-1,1046,-2,-1560
1673,19.451961,1,0,1,1050,0,-1560
1674,19.463533,1,2,1,1045,-2,-1561
1675,19.475144,-1,0,0,1048,-4,-1562
1676,19.486802,-1,2,1,1049,1,-1566
1677,19.498455,-1,2,0,1047,-1,-1561
1678,19.510117,-2,1,-1,1048,-2,-1562
1679,19.521772,1,2,1,1045,-1,-1560
1680,19.533421,-1,2,0,1045,0,-1560
1681,19.545087,1,1,1,1048,0,-1561
1682,19.55674,1,2,0,1045,-2,-1555
1683,19.568419,-1,2,1,1044,0,-1560
1684,19.580082,-1,1,1,1049,0,-1558
1685,19.591622,0,1,-1,1047,-4,-1559
1686,19.603179,0,0,1,1048,-1,-1562
1687,19.614725,2,0,-1,1047,0,-1557
1688,19.626286,-1,2,2,1045,-4,-1557
1689,19.637882,1,3,2,1050,0,-1563
1690,19.649429,0,-1,0,1047,0,-1564
1691,19.660969,0,0,1,1050,3,-1561
1692,19.672582,0,1,0,1047,-3,-1562
1693,19.684207,0,2,2,1046,2,-1557
1694,19.695884,1,0,0,1047,-1,-1563
1695,19.707559,1,3,-2,1048,1,-1567
1696,19.719209,1,1,0,1048,2,-1556
1697,19.730862,0,0,0,1049,-3,-1553
1698,19.742574,1,2,0,1042,0,-1557
1699,19.754322,-1,0,0,1047,-1,-1558
1700,19.766092,0,3,0,1042,-1,-1557
1701,19.777756,0,2,2,1045,-2,-1556
1702,19.7894,0,1,2,1050,3,-1555
1703,19.800973,0,1,0,1047,0,-1557
1704,19.812535,1,1,-1,1044,-1,-1556
1705,19.824104,-1,3,0,1044,0,-1562
1706,19.835622,1,2,2,1048,-1,-1558
1707,19.847166,-2,2,0,1049,0,-1561
1708,19.858707,1,3,0,1046,0,-1551
1709,19.870254,2,1,1,1044,1,-1560
1710,19.881815,-1,2,1,1048,-2,-1558
1711,19.893453,-1,1,1,1049,0,-1561
1712,19.905111,1,3,0,1050,1,-1559
1713,19.916804,0,-1,1,1048,0,-1564
1714,19.928461,0,1,1,1047,-2,-1557
1715,19.940151,0,1,-1,1044,1,-1558
1716,19.951828,0,2,0,1050,-4,-1562
1717,19.963502,1,1,1,1047,0,-1562
1718,19.975176,-1,1,2,1045,0,-1554
1719,19.986827,2,1,1,1051,0,-1559
1720,19.998375,0,1,0,1045,0,-1557
1721,20.009928,0,3,0,1045,0,-1564
1722,20.021495,3,2,0,1046,-1,-1557
1723,20.033047,1,0,1,1046,-4,-1564
1724,20.044676,1,1,-1,1049,1,-1557
1725,20.056265,-2,0,-1,1049,-4,-1560
1726,20.067839,0,0,1,1042,-5,-1556
1727,20.079379,0,3,-1,1050,0,-1561
1728,20.09094,0,0,0,1048,-3,-1563
1729,20.1026,1,0,0,1048,0,-1562
1730,20.114282,3,0,0,1047,0,-1563
1731,20.125942,-1,0,0,1049,0,-1560
1732,20.137601,0,1,0,1048,-5,-1554
1733,20.149277,-2,2,0,1044,-3,-1555
1734,20.160947,0,4,-1,1049,6,-1562
1735,20.172601,-1,0,-2,1046,-1,-1565
1736,20.184301,0,0,2,1043,0,-1554
1737,20.195957,-1,2,0,1046,-2,-1557
1738,20.20753,-1,-1,1,1048,-1,-1559
1739,20.219079,0,0,0,1048,0,-1558
1740,20.230648,1,-1,0,1048,-2,-1561
1741,20.242186,-1,1,1,1048,-2,-1565
1742,20.253735,0,0,1,1047,0,-1559
1743,20.265288,-2,2,1,1048,0,-1553
1744,20.276829,-1,-1,0,1049,-3,-1563
1745,20.288341,1,2,1,1047,-1,-1556
1746,20.29987,0,1,0,1048,0,-1558
1747,20.311516,0,1,-1,1046,-1,-1563
1748,20.323179,2,0,-2,1048,-2,-1556
1749,20.334836,1,0,0,1045,0,-1562
1750,20.346482,2,1,1,1051,-2,-1560
1751,20.358131,0,2,1,1046,1,-1560
1752,20.3698,1,1,1,1051,1,-1558
1753,20.38145,1,3,1,1045,-1,-1561
1754,20.393099,0,2,1,1047,1,-1564
1755,20.404828,1,2,1,1044,0,-1559
1756,20.416495,0,1,0,1045,-4,-1556
1757,20.428091,0,2,-1,1049,-2,-1564
1758,20.439632,-1,1,1,1044,0,-1567
1759,20.451186,2,2,1,1048,1,-1558
1760,20.46276,2,1,2,1045,-1,-1559
1761,20.474303,0,1,0,1046,-2,-1566
1762,20.48587,0,2,0,1051,0,-1557
1763,20.497421,0,-1,0,1046,-4,-1560
1764,20.50898,1,1,1,1048,-1,-1562
1765,20.520604,0,1,0,1046,2,-1554
1766,20.532277,-1,1,2,1047,0,-1557
1767,20.543978,1,-1,3,1050,-2,-1561
1768,20.555658,-1,2,2,1047,0,-1562
1769,20.567332,2,1,0,1046,2,-1560
1770,20.578987,-2,-1,0,1047,0,-1556
1771,20.590637,-1,1,1,1049,-1,-1561
1772,20.602283,1,1,-1,1047,-1,-1562
1773,20.613966,2,0,0,1046,2,-1559
1774,20.625514,-1,2,3,1048,-3,-1553
1775,20.637071,-1,2,1,1050,0,-1557
1776,20.648667,0,0,0,1046,-1,-1561
1777,20.660271,0,2,0,1048,1,-1562
1778,20.671847,-2,0,0,1046,-2,-1555
1779,20.683378,-1,1,0,1048,-3,-1558
1780,20.694925,0,3,-1,1049,0,-1559
1781,20.706469,1,2,-1,1045,-3,-1568
1782,20.718016,0,2,-2,1044,2,-1555
1783,20.729571,0,3,0,1049,-1,-1559
1784,20.741155,0,1,0,1047,0,-1556
1785,20.752718,2,2,-1,1047,0,-1557
1786,20.764278,-2,1,0,1048,-1,-1557
1787,20.775878,0,3,0,1044,-1,-1557
1788,20.787434,0,1,2,1046,-6,-1560
1789,20.799007,0,4,2,1047,1,-1557
1790,20.81057,0,1,0,1045,0,-1567
1791,20.822155,-1,1,-1,1062,-4,-1563
1792,20.833802,1,1,1,1048,-3,-1555
1793,20.845463,1,1,0,1048,-1,-1556
1794,20.857124,-1,1,0,1049,-1,-1560
1795,20.868816,1,1,-1,1049,0,-1560
1796,20.880476,0,2,2,1047,1,-1564
1797,20.892144,0,1,1,1046,-2,-1562
1798,20.903828,-1,1,1,1044,0,-1561
1799,20.915505,2,2,0,1044,0,-1555
1800,20.927214,-1,3,-1,1049,0,-1554
1801,20.938874,1,2,0,1047,0,-1561
1802,20.95044,-1,-2,2,1044,1,-1563
1803,20.962018,-1,2,1,1051,-1,-1559
1804,20.973573,2,2,0,1045,0,-1562
1805,20.985144,1,-1,-3,1046,1,-1561
1806,20.996707,0,3,2,1050,-3,-1557
1807,21.008265,1,1,1,1049,-4,-1563
1808,21.019837,0,1,0,1047,-1,-1561
1809,21.03139,1,1,-1,1047,-2,-1563
1810,21.043032,0,1,1,1048,0,-1561
1811,21.054686,-1,-1,2,1045,-1,-1558
1812,21.066339,0,1,1,1044,1,-1559
1813,21.077983,0,1,-1,1046,2,-1567
1814,21.089631,1,1,1,1047,-2,-1559
1815,21.101305,0,2,1,1044,0,-1555
1816,21.112952,0,0,-1,1050,0,-1554
1817,21.124602,2,2,0,1045,-1,-1553
1818,21.136302,1,2,1,1047,0,-1556
1819,21.147968,0,1,1,1046,0,-1557
1820,21.159528,0,0,0,1046,3,-1561
1821,21.171136,2,1,1,1046,-3,-1554
1822,21.182695,0,2,-2,1045,-6,-1558
1823,21.194266,1,1,0,1045,-4,-1560
1824,21.205809,1,1,2,1047,-2,-1560
1825,21.217354,0,0,-1,1046,-2,-1561
1826,21.228931,1,0,1,1052,-4,-1559
1827,21.240501,1,1,2,1045,0,-1559
1828,21.252177,-1,4,0,1048,0,-1561
1829,21.263832,0,0,-2,1046,-3,-1557
1830,21.275514,-1,2,-1,1046,-2,-1559
1831,21.287198,3,-2,1,1050,-2,-1558
1832,21.298843,1,-1,0,1044,-3,-1561
1833,21.310493,0,1,0,1046,-1,-1557
1834,21.32217,0,1,1,1049,-2,-1558
1835,21.333826,0,1,1,1047,0,-1557
1836,21.345495,1,1,3,1046,0,-1557
1837,21.357155,0,1,-1,1046,0,-1563
1838,21.368753,0,0,0,1048,-8,-1565
1839,21.380336,0,1,-1,1045,-2,-1557
1840,21.391871,2,0,0,1049,0,-1558
1841,21.403419,-1,2,-1,1045,0,-1559
1842,21.414958,0,1,0,1046,-1,-1558
1843,21.426521,-1,3,2,1049,1,-1557
1844,21.438076,1,2,1,1047,-2,-1568
1845,21.449651,1,2,0,1049,2,-1561
1846,21.461297,0,-1,-1,1050,0,-1565
1847,21.472958,0,3,-1,1043,-3,-1557
1848,21.48461,0,2,0,1048,0,-1555
1849,21.496298,0,0,-1,1047,0,-1561
1850,21.507978,-1,1,-1,1044,0,-1562
1851,21.519647,1,0,-1,1045,-2,-1560
1852,21.531316,0,1,-1,1049,1,-1555
1853,21.542961,1,1,0,1047,0,-1556
1854,21.554624,0,3,1,1048,0,-1557
1855,21.566286,0,3,-1,1051,3,-1559
1856,21.577849,1,2,1,1052,-1,-1557
1857,21.589426,0,2,0,1047,-1,-1560
1858,21.600994,1,1,-1,1046,-2,-1558
1859,21.612587,-1,0,2,1045,-3,-1565
1860,21.624149,1,2,0,1047,-1,-1558
1861,21.635703,1,1,0,1047,-2,-1560
1862,21.64727,1,2,2,1048,-3,-1562
1863,21.65882,1,0,-1,1049,3,-1562
1864,21.670445,1,0,-1,1046,0,-1560
1865,21.682099,1,1,3,1048,-2,-1559
1866,21.69375,1,0,1,1048,-3,-1561
1867,21.705441,0,2,1,1049,-1,-1558
1868,21.717081,1,2,-1,1046,-2,-1563
1869,21.728735,0,0,-1,1048,-2,-1561
1870,21.740423,-1,2,2,1042,-3,-1563
1871,21.752083,-1,1,-1,1046,0,-1557
1872,21.763776,1,0,1,1050,-3,-1563
1873,21.775445,0,2,-1,1050,-2,-1564
1874,21.787014,0,1,0,1045,-3,-1563
1875,21.79857,1,1,2,1048,1,-1562
1876,21.810133,-1,1,3,1042,1,-1561
1877,21.821676,2,2,0,1047,-2,-1555
1878,21.833227,0,2,0,1047,-1,-1559
1879,21.84478,0,2,0,1048,-4,-1556
1880,21.856341,1,1,0,1045,0,-1552
1881,21.867875,1,2,-1,1048,0,-1557
1882,21.879578,1,1,-2,1043,0,-1560
1883,21.891243,-1,1,-1,1050,1,-1564
1884,21.902934,0,2,1,1046,-1,-1556
1885,21.914577,1,2,-1,1049,0,-1559
1886,21.926226,-1,1,1,1047,0,-1559
1887,21.93787,0,0,1,1048,2,-1555
1888,21.949548,0,-1,0,1050,2,-1555
1889,21.961227,1,2,-1,1047,-1,-1565
1890,21.972928,-1,2,0,1048,0,-1566
1891,21.984591,1,2,-1,1049,0,-1558
1892,21.996342,-2,0,2,1046,-1,-1558
1893,22.008037,0,3,-2,1045,-2,-1560
1894,22.019694,-1,-2,1,1049,0,-1561
1895,22.031367,2,2,1,1049,-2,-1555
1896,22.043037,1,0,0,1046,-5,-1555
1897,22.054688,2,1,0,1049,-2,-1556
1898,22.066339,-1,3,1,1043,-4,-1557
1899,22.078001,0,2,1,1047,2,-1559
1900,22.089662,0,1,-1,1048,-2,-1556
1901,22.101284,0,2,0,1046,-2,-1559
1902,22.112829,-1,1,2,1046,0,-1564
1903,22.124389,0,2,-1,1044,-2,-1556
1904,22.135971,-1,2,1,1045,-2,-1557
1905,22.14753,-1,4,1,1047,-2,-1560
1906,22.159136,0,2,-1,1049,-1,-1560
1907,22.17069,1,3,1,1041,2,-1561
1908,22.182258,1,2,0,1044,-2,-1561
1909,22.193988,1,0,-1,1050,1,-1559
1910,22.205645,0,2,-1,1050,0,-1556
1911,22.217319,1,1,1,1050,-1,-1561
1912,22.228967,0,0,-1,1048,-1,-1561
1913,22.240655,0,2,-2,1050,0,-1557
1914,22.252348,1,0,1,1048,0,-1558
1915,22.264024,0,2,0,1049,-2,-1556
1916,22.275691,-2,1,-1,1048,1,-1554
1917,22.287364,0,3,0,1046,-1,-1562
1918,22.298914,2,1,2,1046,0,-1560
1919,22.310485,-1,1,-1,1046,-2,-1564
1920,22.322031,-1,1,1,1044,0,-1560
1921,22.333623,0,3,-2,1046,0,-1556
1922,22.345162,2,2,3,1047,0,-1565
1923,22.356715,1,2,1,1048,-1,-1564
1924,22.368272,1,2,0,1051,-3,-1556
1925,22.379842,-2,0,-1,1043,1,-1560
1926,22.391397,2,1,0,1048,0,-1564
1927,22.403062,0,2,-1,1047,-1,-1563
1928,22.414711,-1,1,0,1047,1,-1554
1929,22.426365,1,1,1,1047,1,-1557
1930,22.438007,0,0,1,1049,-3,-1558
1931,22.449671,0,3,0,1047,1,-1561
1932,22.461324,1,2,-1,1048,0,-1560
1933,22.472969,2,1,0,1046,1,-1561
1934,22.484681,-1,1,-2,1048,2,-1560
1935,22.496343,0,1,-1,1046,1,-1561
1936,22.508034,-1,2,0,1045,0,-1563
1937,22.519697,1,2,0,1045,0,-1561
1938,22.531367,-1,0,0,1046,-2,-1559
1939,22.543035,0,-2,-1,1048,0,-1559
1940,22.554684,1,2,1,1051,-1,-1559
1941,22.566326,-1,1,0,1047,-3,-1565
1942,22.577975,-1,2,2,1047,1,-1558
1943,22.589652,0,2,1,1046,0,-1556
1944,22.601318,0,2,2,1050,-1,-1561
1945,22.612962,1,2,3,1050,-8,-1559
1946,22.624698,-1,2,3,1047,-2,-1565
1947,22.636349,-2,2,0,1048,-2,-1561
1948,22.648033,1,2,-1,1047,-2,-1556
1949,22.659687,1,1,1,1047,-3,-1561
1950,22.671361,0,1,-2,1048,0,-1564
1951,22.683036,0,0,1,1046,0,-1563
1952,22.694687,0,1,-1,1047,3,-1560
1953,22.706281,1,2,0,1044,-1,-1555
1954,22.717833,0,1,-1,1046,2,-1558
1955,22.729383,0,1,-1,1051,-2,-1555
1956,22.740928,0,-1,1,1045,-1,-1565
1957,22.752501,1,3,1,1046,1,-1561
1958,22.764066,0,0,1,1051,3,-1563
1959,22.775632,-1,3,-1,1048,1,-1556
1960,22.787184,1,1,-1,1048,0,-1558
1961,22.798817,0,1,-2,1046,-1,-1565
1962,22.810462,0,0,0,1046,-1,-1558
1963,22.822154,0,-1,-1,1047,-2,-1563
1964,22.833823,0,1,0,1046,0,-1565
1965,22.845479,-1,1,3,1049,-4,-1555
1966,22.85716,1,-1,0,1048,1,-1559
1967,22.868826,1,1,0,1048,2,-1557
1968,22.880504,0,2,0,1049,0,-1558
1969,22.892165,-1,2,0,1050,0,-1559
1970,22.903849,0,0,0,1049,-2,-1556
1971,22.915532,1,2,-2,1046,2,-1561
1972,22.927189,-1,2,1,1048,-1,-1564
1973,22.938843,-2,2,0,1049,-3,-1568
1974,22.950519,1,0,1,1047,-5,-1558
1975,22.962175,-1,0,0,1048,0,-1553
1976,22.973829,0,0,1,1048,0,-1554
1977,22.985473,1,2,-1,1046,-2,-1565
1978,22.99716,-1,1,0,1049,-2,-1563
1979,23.008853,0,-2,0,1047,-5,-1557
1980,23.020537,0,2,1,1042,0,-1559
1981,23.032169,1,1,-1,1046,0,-1561
1982,23.043835,1,1,0,1048,-2,-1558
1983,23.055506,-1,0,0,1050,0,-1561
1984,23.067168,0,2,0,1044,-1,-1558
1985,23.078843,0,-2,0,1043,-2,-1560
1986,23.090487,0,1,1,1047,1,-1563
1987,23.102134,-2,3,-2,1048,-3,-1557
1988,23.113873,-1,0,-1,1048,-2,-1563
1989,23.125545,2,3,-2,1046,2,-1559
1990,23.137139,1,1,1,1044,-2,-1556
1991,23.148743,-2,3,3,1047,-1,-1560
1992,23.16032,0,3,0,1045,0,-1558
1993,23.171865,0,1,0,1046,0,-1558
1994,23.183422,0,4,1,1046,-3,-1561
1995,23.194993,-1,1,0,1049,0,-1559
1996,23.206553,-1,2,0,1047,0,-1565
1997,23.218118,-1,2,-1,1047,-3,-1563
1998,23.229763,2,0,-1,1048,-1,-1560
1999,23.241427,1,2,1,1047,0,-1557
