sample,t_s,gyro_x,gyro_y,gyro_z,accel_x,accel_y,accel_z
0,1e-05,-496,-383,912,-1,59,-1023
1,0.011442,3,6,11,1,61,-1028
2,0.022657,1792,1376,1952,0,57,-1023
3,0.033848,1792,688,1952,-1,61,-1025
4,0.045037,-768,912,-1680,-1,63,-1020
5,0.056229,-1792,1056,1296,0,64,-1021
6,0.067419,3,4,11,0,61,-1021
7,0.078602,-1024,192,1968,-1,61,-1022
8,0.089788,-1536,576,1664,-2,60,-1014
9,0.100974,1280,624,1984,-2,60,-1013
10,0.112136,-1536,656,1744,1,61,-1022
11,0.123341,3,6,11,-1,59,-1019
12,0.134524,1536,768,1824,-2,58,-1016
13,0.145706,-1536,704,-736,-5,57,-1012
14,0.15689,3,7,9,-6,64,-1018
15,0.168075,-1792,928,1600,-1,61,-1025
16,0.179263,-1536,560,2032,-5,62,-1025
17,0.190452,-1024,864,-1376,1,58,-1020
18,0.201635,-1024,144,-1568,-4,59,-1017
19,0.212819,0,7,10,-1,61,-1021
20,0.224048,1792,480,1968,-4,60,-1016
21,0.235239,-1536,688,1280,2,59,-1027
22,0.246428,-1024,320,-1664,0,59,-1016
23,0.257615,-1024,976,1456,0,60,-1027
24,0.268799,2,5,10,5,62,-1022
25,0.279953,-1536,896,1536,-1,59,-1021
26,0.291148,-1792,736,1152,1,59,-1018
27,0.302332,-1536,272,1232,2,57,-1019
28,0.313516,-1024,640,1840,-3,62,-1013
29,0.324701,4,5,10,-2,61,-1025
30,0.335895,-1536,1120,-2032,-2,63,-1016
31,0.347083,-1024,832,-1664,5,61,-1022
32,0.358268,-752,-240,1392,4,66,-1029
33,0.369456,1792,448,-1920,-4,60,-1020
34,0.38064,2,7,8,-3,63,-1018
35,0.391831,-1792,464,1984,-2,60,-1021
36,0.403037,-1536,528,1120,-3,60,-1021
37,0.41422,1536,752,-1632,0,54,-1018
38,0.425401,1792,480,2000,-3,60,-1015
39,0.436584,3,6,8,-5,60,-1020
40,0.447763,-1024,592,1792,1,58,-1022
41,0.458965,-1792,1056,-1456,-3,61,-1020
42,0.470148,-768,1376,1280,-5,61,-1020
43,0.481332,-1536,448,1552,-2,60,-1017
44,0.49251,3,6,11,-4,61,-1026
45,0.503695,-1024,656,-1920,-2,62,-1018
46,0.514881,-1536,672,1632,-1,63,-1024
47,0.526072,3,8,8,-1,60,-1018
48,0.537263,-1792,784,-1872,1,62,-1024
49,0.54845,1792,240,1520,-3,62,-1022
50,0.559641,-768,896,2032,-1,58,-1021
51,0.570825,-768,320,1568,0,62,-1018
52,0.582016,2,9,10,0,65,-1024
53,0.593199,-1024,544,1664,-2,62,-1025
54,0.604389,-1024,960,1440,-4,62,-1022
55,0.615582,1792,1184,1648,0,63,-1020
56,0.626764,-1792,720,-1920,0,65,-1020
57,0.637955,-1536,624,1808,-1,58,-1019
58,0.649138,-512,1024,-2032,-2,61,-1023
59,0.660323,-1536,624,1744,0,59,-1025
60,0.671511,-768,816,-2000,-2,59,-1017
61,0.682695,1792,352,-1920,0,61,-1017
62,0.693883,-1024,400,1808,-2,63,-1018
63,0.705068,-1792,272,1840,-2,64,-1013
64,0.716257,-768,384,1968,-5,58,-1018
65,0.727445,1536,736,-1760,-2,62,-1014
66,0.738631,-1024,576,-2032,-2,57,-1027
67,0.749816,0,5,8,2,61,-1017
68,0.761015,1536,640,-1584,1,67,-1024
69,0.772208,-1024,976,1776,2,60,-1015
70,0.783389,1536,192,992,-3,58,-1020
71,0.794572,-1536,496,1072,-5,62,-1015
72,0.80576,2,6,11,2,63,-1019
73,0.816947,-512,288,-1808,-2,56,-1017
74,0.828135,-1536,704,1168,-1,64,-1018
75,0.839322,0,544,1840,-6,62,-1021
76,0.850507,-1536,800,1664,-4,57,-1017
77,0.8617,3,7,12,-3,57,-1017
78,0.872884,-1536,800,1872,-2,61,-1014
79,0.884078,-768,1232,-928,-1,61,-1018
80,0.895264,1,6,9,2,63,-1019
81,0.906445,1792,480,1536,0,61,-1017
82,0.917633,-1024,624,1472,2,61,-1021
83,0.928819,-1536,240,1728,-5,55,-1018
84,0.940007,-1792,848,1664,-1,61,-1019
85,0.951197,1792,1024,-1696,1,63,-1023
86,0.96238,1792,496,-1952,-5,59,-1020
87,0.973573,1792,928,1376,-1,60,-1020
88,0.984757,-1536,928,1952,-6,57,-1019
89,0.995953,-1536,704,1408,0,62,-1012
90,1.007138,2,5,9,-1,59,-1022
91,1.018322,-1536,880,1760,0,61,-1027
92,1.029514,-1792,560,1280,0,60,-1017
93,1.0407,-1536,800,1136,-1,60,-1022
94,1.051889,-768,720,1856,2,58,-1022
95,1.063072,2,5,10,1,60,-1029
96,1.074256,-1536,1008,1600,0,62,-1020
97,1.085453,-1024,1056,1232,-3,60,-1022
98,1.096634,-1024,496,288,-2,62,-1016
99,1.107824,1792,912,-1776,-4,59,-1023
100,1.119018,3,5,9,-2,65,-1021
101,1.130201,-1024,480,1520,-2,58,-1010
102,1.141384,-1536,672,1776,-2,63,-1015
103,1.152567,2,8,5,-1,58,-1018
104,1.16377,-1536,608,-2048,-1,61,-1012
105,1.174952,-1024,176,1648,0,59,-1013
106,1.186133,1792,496,1088,-1,62,-1017
107,1.197319,-1024,832,1712,-7,65,-1020
108,1.208508,4,6,9,-1,64,-1029
109,1.2197,-1024,976,1360,1,58,-1019
110,1.230884,-1024,672,-2000,1,59,-1028
111,1.242071,-1536,384,-1952,-3,59,-1015
112,1.253259,-1024,192,1872,-1,58,-1023
113,1.264446,0,5,10,-1,55,-1016
114,1.275636,-1536,1344,-1952,2,60,-1017
115,1.286819,-768,192,1760,-2,58,-1012
116,1.298003,-1792,512,1344,1,67,-1024
117,1.309187,-1536,336,-2000,-5,62,-1018
118,1.320375,-1024,496,1456,-2,62,-1021
119,1.331576,-1536,928,1888,0,58,-1023
120,1.342759,-1536,672,1120,3,63,-1018
121,1.353944,-1536,992,1792,2,61,-1025
122,1.365138,-1792,512,1728,-3,60,-1026
123,1.37632,1,8,9,-3,57,-1024
124,1.387507,-768,544,1568,-7,59,-1017
125,1.398689,-1536,1024,1552,-2,60,-1018
126,1.409888,-1024,240,864,-3,59,-1018
127,1.421069,-1536,624,1968,0,60,-1017
128,1.432253,-768,976,1840,0,59,-1019
129,1.443438,-1536,208,1696,-5,59,-1015
130,1.454621,-512,576,880,0,57,-1022
131,1.465803,-1792,1104,-1232,-1,60,-1018
132,1.476995,-768,608,1520,-3,62,-1022
133,1.488183,4,4,10,-4,60,-1019
134,1.499378,-1536,560,1552,-1,63,-1022
135,1.510566,-512,240,1392,1,58,-1015
136,1.521757,2,0,7,-4,60,-1022
137,1.532946,-1024,448,1872,-7,61,-1022
138,1.544138,1792,448,1888,-6,62,-1026
139,1.555323,-1024,576,1360,-3,63,-1015
140,1.566506,-1536,1024,-1392,-1,64,-1011
141,1.577691,3,6,8,0,60,-1021
142,1.588873,1536,480,1584,-3,62,-1020
143,1.600074,-1536,368,1728,0,59,-1022
144,1.611257,-1792,1120,1760,-2,62,-1016
145,1.622444,-1792,928,-1904,0,62,-1010
146,1.633626,-1024,464,1696,-4,56,-1023
147,1.644809,-1024,432,1696,1,65,-1021
148,1.655951,-512,1088,-1936,1,61,-1017
149,1.667136,-1024,640,1456,-2,62,-1020
150,1.678317,-1024,192,944,-2,63,-1020
151,1.689504,-1536,784,1456,0,63,-1018
152,1.700686,-1536,624,1744,-4,61,-1019
153,1.711883,-1792,640,1840,-1,60,-1018
154,1.723076,768,384,1920,-2,59,-1020
155,1.734256,-512,1008,-2032,1,59,-1021
156,1.745444,3,5,10,-3,63,-1018
157,1.756627,-1024,64,1872,0,63,-1015
158,1.767814,-1024,960,1744,-4,66,-1021
159,1.778997,-512,480,1552,-5,60,-1024
160,1.790181,1536,736,-2048,-1,65,-1016
161,1.801364,-768,768,1632,2,63,-1027
162,1.812506,1792,848,-2032,4,61,-1018
163,1.823702,4,5,8,0,63,-1024
164,1.834916,1792,768,1920,-1,59,-1019
165,1.846095,-1024,800,1984,-4,57,-1021
166,1.857279,-1024,1072,1616,-3,57,-1016
167,1.868464,1536,400,944,-4,61,-1024
168,1.879647,-1536,1104,2000,1,63,-1020
169,1.890828,-1536,528,816,0,64,-1017
170,1.90201,1792,752,1984,-2,63,-1013
171,1.9132,1536,1008,1728,-3,62,-1015
172,1.924384,-1024,784,1568,-3,65,-1020
173,1.935577,-768,512,-1952,0,59,-1020
174,1.946759,-768,672,1376,4,58,-1013
175,1.95794,-512,960,1344,0,62,-1020
176,1.969126,-1536,784,-1920,0,61,-1024
177,1.980319,-1536,672,-1616,-1,60,-1022
178,1.9915,-1536,400,1440,0,62,-1022
179,2.002684,-1536,768,2032,0,61,-1016
180,2.013871,-1536,576,1408,4,63,-1019
181,2.025064,-1536,800,1360,1,61,-1020
182,2.036248,0,1072,1392,-1,60,-1023
183,2.047433,1807,-240,1216,-3,62,-1019
184,2.058619,-1536,480,-1776,-4,57,-1019
185,2.069804,-1536,624,1920,-4,58,-1021
186,2.080987,4,5,8,-5,58,-1020
187,2.092134,-1024,864,1392,-4,62,-1024
188,2.103313,-768,624,1824,-3,55,-1013
189,2.114496,1,6,9,1,59,-1026
190,2.12568,-768,688,1904,0,61,-1017
191,2.136864,-1024,0,1872,-4,61,-1017
192,2.148062,-1536,912,1904,-3,63,-1021
193,2.159247,-1536,656,1696,0,60,-1019
194,2.170428,2,5,9,-2,60,-1015
195,2.181613,-1024,896,1824,-1,58,-1021
196,2.192806,-1536,272,1168,3,61,-1024
197,2.203995,1792,480,1760,1,59,-1017
198,2.215188,1792,208,1600,0,60,-1022
199,2.226371,0,6,7,-2,60,-1022
200,2.237564,-512,320,1760,-3,59,-1021
201,2.248749,-768,912,1424,-2,56,-1018
202,2.259948,1536,576,912,1,65,-1019
203,2.271131,-1536,416,1888,4,61,-1017
204,2.282317,1536,480,1808,3,61,-1021
205,2.293509,1792,864,1696,2,62,-1017
206,2.304691,-1024,592,1904,0,58,-1016
207,2.31588,-1536,928,1936,-3,59,-1019
208,2.327064,1792,848,1440,-6,59,-1021
209,2.338255,2,7,7,-2,61,-1021
210,2.349436,-768,960,1776,-2,66,-1018
211,2.360616,-1536,736,1696,-1,61,-1018
212,2.371762,-768,512,1952,0,59,-1017
213,2.382961,0,544,1920,0,61,-1014
214,2.394215,-1536,528,1504,-3,61,-1023
215,2.405404,-1024,896,1776,-2,59,-1023
216,2.416596,-1536,656,1728,-4,62,-1019
217,2.427769,1792,336,1536,-2,60,-1020
218,2.438951,-1536,768,1536,-2,64,-1021
219,2.450133,1,9,7,-1,63,-1019
220,2.461319,-768,1008,1360,-2,61,-1022
221,2.472506,-1520,-80,-1312,-1,65,-1016
222,2.483694,-1024,416,1472,-2,58,-1017
223,2.494875,-1792,400,1504,0,59,-1025
224,2.506062,3,6,10,-1,61,-1017
225,2.517245,-1024,736,1840,0,61,-1019
226,2.52844,2,8,12,2,65,-1015
227,2.539582,-1024,544,2016,-5,64,-1023
228,2.550788,1792,960,1968,-1,62,-1018
229,2.561976,3,6,9,-3,60,-1019
230,2.57316,1792,512,1296,-4,59,-1022
231,2.584321,-1536,1104,-1936,0,60,-1022
232,2.595506,-1536,656,1680,1,62,-1021
233,2.606689,-1536,608,1312,0,60,-1017
234,2.617873,-1536,1152,1952,-4,60,-1019
235,2.629061,-1024,848,1328,0,62,-1017
236,2.640247,1792,336,1824,0,60,-1014
237,2.651431,-768,960,1872,-3,62,-1017
238,2.662629,1792,608,1616,-2,61,-1023
239,2.673813,0,7,10,0,60,-1023
240,2.684993,-1024,896,-1296,-1,57,-1026
241,2.696135,-1024,512,1424,0,63,-1021
242,2.707322,-1536,1280,1792,0,60,-1021
243,2.718502,-768,800,-2032,0,62,-1025
244,2.729688,1792,864,2016,-1,61,-1017
245,2.740869,-1024,608,-1984,-3,61,-1023
246,2.752064,-1536,848,-2048,-3,61,-1027
247,2.763249,3,6,9,2,62,-1024
248,2.77443,-1536,1136,2032,0,58,-1016
249,2.785616,-1536,1024,1488,-1,61,-1019
250,2.796803,-1024,784,-1776,0,63,-1015
251,2.807951,-1792,208,1840,-2,57,-1022
252,2.819132,1,5,9,-1,61,-1019
253,2.830312,-1024,352,1696,0,60,-1016
254,2.841495,1792,816,-1408,0,61,-1022
255,2.852703,-1536,848,1520,1,62,-1023
256,2.86389,-1536,816,1696,2,63,-1016
257,2.875073,-1792,784,1664,-3,61,-1025
258,2.886255,1792,336,1456,0,64,-1012
259,2.897435,-1024,880,1888,-4,58,-1029
260,2.908632,-768,640,1696,-3,63,-1022
261,2.919818,-1536,656,1744,1,62,-1017
262,2.931002,-1792,16,1808,2,58,-1012
263,2.942186,-512,1008,1280,0,61,-1016
264,2.95338,-1024,928,1392,-5,64,-1020
265,2.964565,2,6,9,-2,63,-1020
266,2.975762,-1536,928,1920,1,65,-1023
267,2.986944,-512,784,1552,-5,65,-1017
268,2.998126,1536,592,864,-2,61,-1021
269,3.009312,-1792,800,1776,-1,62,-1026
270,3.020502,-1024,960,-2048,0,61,-1021
271,3.031694,-1024,288,1904,-1,60,-1022
272,3.042874,-512,752,-1792,-4,65,-1020
273,3.054056,1792,560,272,1,63,-1018
274,3.065241,-1024,624,1968,1,62,-1021
275,3.07643,-1024,352,1952,-2,59,-1022
276,3.087582,1792,1056,2032,-1,61,-1016
277,3.098762,1792,640,-1824,-2,63,-1022
278,3.109945,-1792,544,1712,0,58,-1017
279,3.121127,-1536,416,960,-1,59,-1020
280,3.132317,-1536,384,1616,2,59,-1018
281,3.143498,-1536,384,1552,0,61,-1013
282,3.154679,-1536,688,-1888,0,61,-1023
283,3.165861,3,8,9,-4,61,-1023
284,3.177044,-1536,832,-2048,3,60,-1022
285,3.188229,-512,608,1248,-2,60,-1022
286,3.199425,-1536,624,1360,2,61,-1018
287,3.210608,-1024,560,-1824,0,61,-1023
288,3.221792,-1792,720,1648,-2,60,-1022
289,3.232979,-512,640,1616,-2,58,-1023
290,3.244136,-1024,816,-1968,-2,59,-1017
291,3.255327,-1024,656,1056,-3,59,-1025
292,3.266509,1792,288,1632,-2,59,-1022
293,3.277691,2,5,9,-2,65,-1017
294,3.28887,-768,1040,1728,-2,57,-1017
295,3.300063,1792,720,1712,-1,61,-1015
296,3.311246,1792,1168,1328,-1,61,-1021
297,3.322425,-1536,784,1776,0,64,-1024
298,3.333612,4,6,9,3,59,-1020
299,3.344806,-1024,576,1360,-4,64,-1018
300,3.356007,-1024,400,-1392,-3,61,-1021
301,3.367193,-768,496,1264,0,56,-1024
302,3.378375,-1024,592,1200,-6,61,-1024
303,3.389559,-1536,2000,1456,0,61,-1017
304,3.400742,-1536,160,1440,-3,56,-1019
305,3.411944,2,4,8,-2,61,-1023
306,3.423127,-1024,192,1136,-4,60,-1016
307,3.434306,-1024,448,1824,-1,60,-1028
308,3.445488,-1024,1280,1888,-1,62,-1028
309,3.456709,-1536,1456,1968,-4,63,-1024
310,3.467896,2,3,7,1,60,-1021
311,3.479077,-1536,1584,-1328,-3,63,-1023
312,3.490257,-1536,992,2016,-2,58,-1025
313,3.501438,-512,384,-1728,-5,62,-1020
314,3.512623,-512,656,1440,0,59,-1021
315,3.523767,-752,-80,1088,1,55,-1025
316,3.534946,-1536,624,1984,0,61,-1023
317,3.546125,1792,544,-1584,-1,62,-1018
318,3.557304,2,7,10,-2,60,-1022
319,3.568498,-1792,800,1904,0,57,-1012
320,3.579692,1280,1184,1472,-6,61,-1019
321,3.590873,-1536,928,1408,-2,65,-1016
322,3.602052,-1536,608,1232,-5,60,-1022
323,3.613245,-1536,528,-1872,-5,63,-1026
324,3.624437,-768,720,2000,0,61,-1021
325,3.635581,-1024,1072,2032,0,60,-1021
326,3.646763,1,6,12,-1,59,-1018
327,3.657948,-512,736,1904,0,65,-1023
328,3.669129,-1024,160,1584,-5,61,-1019
329,3.68032,-1536,704,1664,-2,61,-1021
330,3.6915,-768,784,1952,1,63,-1017
331,3.70268,1792,848,-1904,-1,63,-1020
332,3.713874,-1536,752,1776,-6,60,-1024
333,3.725055,-1024,1184,1872,-2,62,-1022
334,3.736246,0,1104,1696,-3,59,-1021
335,3.747426,-512,800,1568,0,64,-1022
336,3.75861,2,6,8,0,64,-1022
337,3.769792,-1792,768,1952,0,61,-1022
338,3.780977,-1024,688,-2000,-2,61,-1018
339,3.792136,-1024,464,1568,2,63,-1016
340,3.803318,-768,128,1968,-4,61,-1023
341,3.814499,2,9,10,-1,60,-1020
342,3.825681,-512,688,-2000,-2,58,-1022
343,3.836864,-768,576,-1536,-1,59,-1015
344,3.84806,-1792,992,912,-3,59,-1020
345,3.859242,-1536,624,-2000,0,60,-1020
346,3.870424,1,6,8,0,60,-1019
347,3.881613,-512,896,1312,-1,60,-1016
348,3.892798,-1024,1072,1088,-1,60,-1023
349,3.90396,-1792,288,1280,3,60,-1015
350,3.915145,-1024,1104,1888,-3,57,-1024
351,3.926325,3,5,11,0,61,-1021
352,3.937505,0,432,1744,-6,59,-1018
353,3.948687,-1792,768,-1936,-5,61,-1020
354,3.959878,-1792,592,-2032,-1,62,-1019
355,3.971079,-1024,1136,1664,1,58,-1023
356,3.982261,-1024,512,1728,1,64,-1020
357,3.993443,-512,704,-1888,-1,65,-1018
358,4.004629,-1792,48,1552,-2,62,-1014
359,4.015813,-1024,1120,1632,0,57,-1019
360,4.026997,-1024,144,-1904,0,61,-1020
361,4.038178,3,7,6,0,60,-1025
362,4.049361,1536,864,464,-5,62,-1022
363,4.060502,-512,1280,-1296,-6,61,-1021
364,4.071693,-1008,-32,2016,-3,65,-1027
365,4.082873,0,448,-1728,-1,59,-1019
366,4.094053,3,4,8,-4,57,-1019
367,4.105235,-512,496,-1696,3,60,-1021
368,4.11643,-1024,288,1408,-1,60,-1019
369,4.127582,-1792,704,1696,-2,60,-1021
370,4.13876,-1024,640,1984,-1,59,-1020
371,4.149942,-512,368,1728,0,61,-1019
372,4.161122,-1536,640,1616,-2,60,-1017
373,4.172314,0,608,1856,-2,61,-1020
374,4.183495,-1024,1200,1808,-2,59,-1020
375,4.194675,-1536,480,-1984,-2,59,-1019
376,4.205853,3,2,7,-1,63,-1022
377,4.217037,-1024,1088,-1920,-1,64,-1022
378,4.228231,-1792,816,1552,-4,59,-1018
379,4.239413,0,752,1792,-2,61,-1017
380,4.250595,-1536,400,1840,1,60,-1020
381,4.261782,-1024,560,1424,0,63,-1014
382,4.272968,-1792,880,-2048,-4,61,-1016
383,4.284136,-1024,544,1648,-4,59,-1016
384,4.295319,4,6,10,-3,60,-1019
385,4.306509,-1536,1040,1600,-1,60,-1019
386,4.318081,-1024,736,1968,-1,56,-1023
387,4.329797,-512,1104,1856,-3,62,-1023
388,4.341452,-1536,208,1680,0,63,-1019
389,4.353113,1536,624,1472,-1,64,-1025
390,4.364794,-1792,800,1632,1,56,-1026
391,4.376456,-1024,560,1680,-2,62,-1021
392,4.388153,-1792,416,1680,-2,58,-1024
393,4.399814,-768,592,1840,-6,60,-1015
394,4.411481,-1536,992,1552,-1,60,-1025
395,4.423169,-1536,624,2000,2,56,-1017
396,4.434752,-1536,912,1488,3,58,-1026
397,4.446298,-512,416,1952,0,60,-1019
398,4.457846,1792,368,1904,-4,62,-1027
399,4.469397,2,7,10,0,64,-1019
400,4.480951,-1792,512,-1744,0,63,-1021
401,4.492527,-768,784,2000,-5,59,-1023
402,4.50412,-1536,752,1632,-2,62,-1017
403,4.515685,-1792,624,-1776,3,65,-1020
404,4.527302,-1024,688,-1920,-1,59,-1028
405,4.538955,-1792,1104,1760,0,60,-1020
406,4.550593,-1536,496,1760,0,61,-1025
407,4.562241,-1024,672,1648,-1,60,-1016
408,4.573892,4,5,8,-5,59,-1017
409,4.585563,-1024,400,1904,0,64,-1022
410,4.59722,-1024,864,1344,0,62,-1022
411,4.608898,-1536,880,1056,-2,64,-1021
412,4.620586,-768,1136,944,0,61,-1018
413,4.632253,-1024,816,-1856,-3,60,-1013
414,4.643806,3,5,7,-2,61,-1017
415,4.655361,-1536,848,2016,-3,61,-1021
416,4.666921,1536,608,2016,0,57,-1026
417,4.678468,-1024,720,1568,0,59,-1022
418,4.690019,-1536,800,1552,-1,57,-1019
419,4.701622,-1024,416,1488,-3,61,-1018
420,4.713177,-1024,1072,1488,1,60,-1021
421,4.724764,-1536,752,1808,-1,60,-1017
422,4.736401,-1536,768,1984,-1,60,-1014
423,4.748116,1792,640,-1952,-2,64,-1015
424,4.7598,-1024,608,1152,1,63,-1019
425,4.771455,-512,1072,1840,0,64,-1024
426,4.783097,-1536,400,-1808,-4,63,-1020
427,4.79474,-1024,432,-2000,1,61,-1021
428,4.806415,-512,416,-1920,0,63,-1012
429,4.818062,3,8,2016,-3,61,-1017
430,4.829729,-1024,608,1952,-4,58,-1020
431,4.841382,-1792,832,1712,-1,61,-1022
432,4.852955,3,6,10,-1,64,-1017
433,4.864512,-1792,736,1920,0,62,-1024
434,4.876121,-1024,960,-2032,-1,58,-1013
435,4.88768,-1536,960,1296,-1,60,-1016
436,4.899255,-768,896,1152,-3,61,-1018
437,4.910822,-1536,1168,2016,0,56,-1025
438,4.922384,2,6,7,0,58,-1019
439,4.933947,-1536,848,-1664,1,60,-1021
440,4.945565,-1776,-32,-2000,-1,63,-1021
441,4.957223,-1536,544,1152,-7,61,-1017
442,4.968905,-1024,720,-1696,-6,65,-1022
443,4.980587,-512,736,-1872,0,61,-1023
444,4.992277,-1536,976,1184,0,62,-1018
445,5.003937,-768,928,1888,2,61,-1016
446,5.015643,-512,432,1536,-2,61,-1019
447,5.027294,-1536,912,2016,-3,65,-1024
448,5.038963,4,7,9,0,60,-1018
449,5.05062,-1024,912,1632,-1,60,-1020
450,5.062176,-1024,480,1808,1,60,-1014
451,5.073776,-1536,560,2032,-1,63,-1017
452,5.085382,-512,832,1856,0,64,-1018
453,5.096963,-1536,592,-1904,0,62,-1020
454,5.10851,-512,736,1840,0,63,-1025
455,5.120073,-1024,1120,1584,-2,60,-1026
456,5.131617,-512,976,1664,-4,63,-1021
457,5.143175,2,7,10,-2,61,-1016
458,5.154795,-1792,816,1664,2,60,-1025
459,5.166448,-512,608,1840,-4,61,-1021
460,5.178103,1792,576,-1824,-3,59,-1013
461,5.189772,-1024,672,-1968,-2,65,-1019
462,5.201438,-1024,400,-1984,2,61,-1017
463,5.213102,-1024,608,1280,-2,64,-1016
464,5.22479,-1024,928,1712,-2,63,-1021
465,5.23645,-1024,1088,1488,0,65,-1024
466,5.248162,-1536,656,1376,-1,58,-1024
467,5.259835,-512,1008,1760,2,61,-1023
468,5.271427,-768,624,1248,0,59,-1022
469,5.282999,-1536,144,1312,0,55,-1022
470,5.294551,-1536,384,1952,-1,62,-1015
471,5.306115,-496,-16,1744,-1,62,-1022
472,5.317657,1792,624,1584,1,60,-1013
473,5.329197,-1536,512,1872,-2,60,-1022
474,5.340753,-1536,544,1536,-1,61,-1018
475,5.352369,-1024,576,1392,-1,60,-1020
476,5.36428,1792,992,1584,-2,63,-1026
477,5.376078,-1024,992,-1664,0,61,-1017
478,5.387768,-1536,80,1920,-2,63,-1019
479,5.39944,-768,1424,1840,0,63,-1019
480,5.411088,-1024,1152,1584,-3,62,-1017
481,5.422739,-512,624,1664,-3,62,-1019
482,5.434423,-1536,832,1520,0,59,-1020
483,5.44611,-1536,784,1296,0,60,-1014
484,5.457786,-1024,1264,1600,1,63,-1018
485,5.46935,-1536,1088,1520,-3,59,-1020
486,5.480919,2,8,9,-2,60,-1019
487,5.492466,-512,944,1584,-4,61,-1025
488,5.504029,-768,512,1696,-3,60,-1017
489,5.515624,-1024,560,1776,1,62,-1016
490,5.527208,-512,720,1744,-3,64,-1020
491,5.538756,-1536,736,1984,-1,58,-1019
492,5.550316,-1792,544,1328,-2,62,-1020
493,5.56194,-1536,1088,1872,-6,67,-1024
494,5.573592,1792,432,-1984,-3,62,-1021
495,5.585265,-1024,256,1888,1,60,-1019
496,5.596936,-768,976,1296,-1,61,-1026
497,5.608595,-1536,704,1344,0,65,-1024
498,5.62028,-768,1152,1680,0,58,-1019
499,5.631939,-1536,320,1808,0,58,-1021
500,5.643631,3,6,7,0,57,-1016
501,5.655304,-1024,544,704,-2,64,-1024
502,5.666972,3,5,9,-4,52,-1018
503,5.678547,-1792,688,1184,0,60,-1021
504,5.690116,3,7,8,4,60,-1021
505,5.70166,-1536,800,1648,0,65,-1016
506,5.713202,-768,416,-1888,-4,61,-1027
507,5.724757,-1024,704,1424,0,62,-1012
508,5.736327,-1792,672,1952,-4,63,-1018
509,5.747862,0,400,1632,-2,59,-1019
510,5.759422,1536,704,-2016,-2,61,-1025
511,5.771044,-512,800,-2032,-1,59,-1027
512,5.782693,-1792,400,1584,-4,59,-1021
513,5.794379,-768,1056,1648,0,62,-1024
514,5.806039,-1024,928,1520,-1,60,-1016
515,5.817701,-512,672,1824,-6,65,-1021
516,5.829353,-1792,1120,1632,-4,60,-1021
517,5.841036,-512,1008,1584,1,62,-1018
518,5.852656,-1536,976,1920,-1,60,-1024
519,5.864336,-1024,784,-1984,0,62,-1024
520,5.876003,-1536,480,1856,-1,63,-1019
521,5.887631,-1536,480,1760,0,63,-1020
522,5.899188,-1024,288,1616,-1,61,-1021
523,5.910753,-1024,336,1824,-6,57,-1019
524,5.922341,-1024,384,1328,-2,61,-1019
525,5.933886,-768,672,1872,-2,60,-1019
526,5.945453,-768,848,1648,0,59,-1016
527,5.957007,-1024,384,1552,-2,63,-1019
528,5.968608,-1792,640,1568,-3,61,-1026
529,5.980217,-1536,368,1712,-3,59,-1023
530,5.991888,-1792,1136,-1920,-3,62,-1014
531,6.003545,-512,1200,1552,0,62,-1019
532,6.015192,-1024,400,1936,-1,60,-1023
533,6.026843,512,1056,1280,0,62,-1023
534,6.038519,-1536,816,1744,0,57,-1028
535,6.050175,-1024,592,1680,-4,60,-1017
536,6.061823,3,5,8,-2,60,-1019
537,6.073475,-1536,784,2016,-2,60,-1019
538,6.085181,-768,1040,1552,-4,65,-1021
539,6.096747,-768,256,1856,-4,62,-1022
540,6.10835,-1536,976,-1968,-2,64,-1023
541,6.119906,-1024,624,1856,1,60,-1026
542,6.13147,-768,608,1840,-3,59,-1019
543,6.143005,-512,336,1792,0,62,-1022
544,6.154545,-1792,624,-1744,-4,63,-1018
545,6.166084,1792,736,1760,-1,60,-1012
546,6.177663,-1024,944,1152,-3,61,-1020
547,6.18929,-1536,720,1856,1,59,-1021
548,6.200937,-512,656,1760,-1,61,-1022
549,6.212591,-1024,640,1568,-3,62,-1024
550,6.224274,-1536,896,1440,-1,62,-1018
551,6.23593,-1024,1216,1872,-5,60,-1012
552,6.247618,-768,832,-1920,-3,63,-1020
553,6.259282,-1024,256,1968,1,61,-1028
554,6.270934,-1024,560,1424,0,61,-1019
555,6.282599,-1536,688,1392,0,61,-1022
556,6.294279,-1024,944,1744,2,63,-1016
557,6.305843,-512,688,-1808,-1,60,-1024
558,6.317396,-512,752,1712,-2,64,-1025
559,6.328949,-1024,384,1712,-3,63,-1022
560,6.340502,-1792,736,1328,-3,65,-1020
561,6.352107,-1536,832,1120,1,59,-1024
562,6.363618,-1536,880,1856,0,64,-1022
563,6.375158,-1024,288,-1888,-1,59,-1017
564,6.386707,-1024,688,-1920,-4,60,-1015
565,6.398326,-1792,256,1616,-4,62,-1023
566,6.409977,-768,608,1472,-5,60,-1021
567,6.421666,-1024,800,1872,2,58,-1020
568,6.433304,-1536,800,1920,0,60,-1015
569,6.444963,-512,304,1856,-3,60,-1016
570,6.456659,-1536,624,1232,1,64,-1018
571,6.46831,-1792,704,1712,0,61,-1020
572,6.479968,3,6,9,0,62,-1025
573,6.491651,-768,912,1728,-1,60,-1020
574,6.5033,1,8,9,-5,61,-1031
575,6.514849,-1536,432,2000,-3,62,-1020
576,6.526396,-1024,1312,1264,-5,61,-1017
577,6.537973,-1024,368,1408,0,62,-1024
578,6.549554,-1792,320,1264,0,64,-1020
579,6.561131,-1024,352,1776,1,57,-1021
580,6.572759,-1536,384,1392,0,59,-1024
581,6.584362,2,5,9,-1,61,-1020
582,6.595925,0,688,1168,-2,59,-1021
583,6.607629,-1024,928,1472,-2,59,-1020
584,6.619303,0,496,720,0,62,-1022
585,6.63095,-1024,1152,1136,-2,61,-1027
586,6.642594,-1792,320,1536,0,61,-1017
587,6.654265,-1024,288,1680,0,61,-1020
588,6.665921,-1792,304,1968,-2,63,-1017
589,6.677572,3,6,9,-1,61,-1027
590,6.689233,-512,1072,1664,-2,62,-1016
591,6.700926,-1536,784,1664,0,62,-1017
592,6.712622,-768,784,1584,-2,59,-1017
593,6.724236,-768,656,1712,0,62,-1018
594,6.735787,-1024,1072,-1920,-4,60,-1019
595,6.74734,-1792,1232,1472,0,60,-1015
596,6.758902,-512,1008,1632,1,60,-1024
597,6.770466,1,9,9,0,62,-1016
598,6.782037,-512,928,1584,-2,58,-1024
599,6.793603,0,608,1728,0,62,-1018
600,6.805161,-512,1168,1824,-4,63,-1021
601,6.816873,-1792,832,1648,-3,63,-1023
602,6.828557,2,5,10,1,61,-1023
603,6.84022,-512,832,1520,-2,61,-1022
604,6.851928,1792,992,1552,1,58,-1027
605,6.863571,-768,656,1824,0,56,-1021
606,6.875255,-1536,960,1808,-4,59,-1024
607,6.886917,-1024,464,1664,-2,59,-1020
608,6.898567,2,3,9,3,59,-1019
609,6.910245,-512,688,1648,1,64,-1026
610,6.921939,-1536,272,1648,-4,65,-1018
611,6.933533,-1024,832,1584,0,56,-1025
612,6.945162,-512,832,1952,0,61,-1022
613,6.956727,-768,992,1456,-6,61,-1021
614,6.968284,-1024,800,1760,0,60,-1027
615,6.979863,0,400,1904,-1,60,-1020
616,6.991414,-1024,864,1312,0,63,-1019
617,7.002976,-1024,368,1232,-4,58,-1024
618,7.014528,0,928,1088,-1,63,-1019
619,7.026164,-1536,912,1680,-2,62,-1024
620,7.037812,-1536,656,-1792,-2,63,-1023
621,7.049467,-1024,880,-2032,-1,58,-1024
622,7.061169,-1024,672,1456,-2,64,-1023
623,7.07282,-768,912,1536,-3,62,-1021
624,7.084532,-1536,656,1408,-5,58,-1018
625,7.096196,-1536,528,-1872,-2,59,-1023
626,7.107867,-1536,544,1776,1,61,-1019
627,7.119543,-1792,832,2016,2,63,-1019
628,7.131199,-1536,624,1824,0,60,-1017
629,7.142759,-1024,416,1472,-1,63,-1022
630,7.154345,-768,672,-1936,0,57,-1022
631,7.165883,5,6,10,0,60,-1020
632,7.177421,-768,704,1760,3,60,-1021
633,7.188981,-1792,736,1680,4,60,-1016
634,7.200526,-1792,704,1760,0,60,-1023
635,7.212092,-1792,512,1760,-1,65,-1027
636,7.22363,-768,944,1424,0,64,-1019
637,7.235327,-1024,400,1616,-3,57,-1021
638,7.247001,-1024,800,1808,-1,58,-1020
639,7.258653,1280,432,1264,1,58,-1023
640,7.270301,-768,496,1696,0,61,-1016
641,7.281947,-1536,576,1712,-1,58,-1022
642,7.293643,-512,704,1856,0,61,-1026
643,7.305292,-768,1104,1616,-2,60,-1026
644,7.316917,-1536,1216,1840,-6,60,-1023
645,7.328617,-1024,784,1760,-4,61,-1015
646,7.340298,-1792,1024,1424,-1,63,-1023
647,7.351962,-1536,944,1312,-1,61,-1015
648,7.363633,-512,832,1456,0,62,-1017
649,7.375287,-1024,784,1280,0,56,-1016
650,7.386931,-512,272,1456,-4,63,-1019
651,7.398577,-1792,976,1760,0,61,-1018
652,7.410241,-512,576,1648,0,62,-1018
653,7.421901,-1024,208,1200,-3,62,-1020
654,7.433588,-768,832,-1936,1,63,-1020
655,7.445269,-1024,816,1728,-3,63,-1024
656,7.456916,-1536,512,1408,1,64,-1022
657,7.468573,-1024,304,1984,0,57,-1019
658,7.480247,256,288,1440,-4,63,-1020
659,7.491883,-1024,1264,1840,-2,62,-1023
660,7.503535,-1024,1120,-1920,0,54,-1021
661,7.515182,0,560,1600,0,63,-1016
662,7.526834,-1024,896,1824,0,63,-1026
663,7.538475,-1024,48,1920,-1,61,-1018
664,7.550124,1792,1200,1504,1,62,-1023
665,7.561786,-1536,144,1712,0,60,-1017
666,7.573426,-512,960,1632,3,62,-1018
667,7.585145,-768,928,1344,-1,61,-1020
668,7.596814,1792,448,1728,-2,59,-1021
669,7.608461,-768,1120,1888,-2,61,-1016
670,7.620142,1280,528,1680,-3,62,-1028
671,7.631799,1792,256,1360,-3,63,-1020
672,7.643487,2,8,10,-1,58,-1018
673,7.655156,-1024,304,1808,0,59,-1016
674,7.666824,-1024,352,1776,0,63,-1020
675,7.678497,-512,736,1776,-1,63,-1016
676,7.690149,2,6,10,-3,60,-1024
677,7.701796,-1024,640,-1936,0,64,-1019
678,7.713444,-1024,528,-1856,1,62,-1017
679,7.725122,-1536,816,1552,-3,58,-1019
680,7.736794,-1536,832,1648,0,60,-1021
681,7.748461,-768,720,1776,-1,59,-1024
682,7.760146,-768,944,1280,-2,57,-1021
683,7.771805,-1536,1008,1616,-2,61,-1020
684,7.783454,-1024,832,1696,0,57,-1017
685,7.795117,-1024,720,-2048,-4,60,-1022
686,7.806769,1536,960,-1664,-3,63,-1020
687,7.818423,-512,720,1552,-4,61,-1017
688,7.830074,-1024,416,1840,0,62,-1018
689,7.841719,-1024,560,1664,1,61,-1018
690,7.853426,-768,656,1504,-3,63,-1020
691,7.865086,3,8,10,-4,59,-1015
692,7.876727,-1792,448,1936,4,62,-1027
693,7.888392,-768,736,1424,-1,62,-1020
694,7.900054,0,640,-1984,-3,59,-1021
695,7.9117,-512,448,1776,-1,60,-1023
696,7.92337,-1536,768,1504,-1,57,-1022
697,7.935022,4,7,8,-4,62,-1014
698,7.946665,-1024,912,1984,0,60,-1014
699,7.958331,-1792,416,1664,0,62,-1028
700,7.97007,0,528,1712,0,60,-1022
701,7.98174,-1024,736,1296,0,60,-1021
702,7.993399,-1792,672,1968,-5,62,-1022
703,8.005069,2,6,9,-3,59,-1020
704,8.016745,-768,480,1872,-1,61,-1021
705,8.028406,3,6,9,1,62,-1018
706,8.040091,0,656,1712,0,59,-1023
707,8.051772,-1024,592,-2000,-1,61,-1020
708,8.063518,-1536,176,1360,-2,65,-1018
709,8.075198,-1024,1040,1936,-4,63,-1025
710,8.086757,-1536,688,2000,2,60,-1018
711,8.098312,-1024,304,1424,0,61,-1019
712,8.109866,-1024,832,1936,0,61,-1023
713,8.121416,-768,944,1376,-2,62,-1028
714,8.132997,-1536,496,1696,-2,65,-1019
715,8.144599,-1024,816,1904,1,63,-1019
716,8.156151,-1536,960,1776,-3,61,-1018
717,8.167755,-1536,880,1472,-1,66,-1022
718,8.179401,-1024,912,1568,1,60,-1020
719,8.19106,-1024,672,1760,-3,57,-1023
720,8.202734,-1536,384,1616,0,62,-1020
721,8.214395,-512,832,-1872,0,60,-1024
722,8.226049,-768,512,1808,3,61,-1023
723,8.237706,-1024,1504,-1984,-1,57,-1018
724,8.249356,4,6,10,0,61,-1021
725,8.261048,-1536,736,1408,-5,62,-1018
726,8.272732,-1024,528,1696,1,62,-1024
727,8.284398,-1024,544,1760,1,64,-1022
728,8.29599,-1792,368,-1952,-3,63,-1020
729,8.307534,-1536,640,-1824,-3,60,-1019
730,8.319085,3,6,8,-1,61,-1017
731,8.330625,-512,592,1952,0,62,-1022
732,8.342188,1792,544,-1904,-4,61,-1018
733,8.353733,-512,784,1744,-3,62,-1021
734,8.365291,-1024,1184,1488,2,63,-1019
735,8.376859,-1536,816,1456,2,59,-1022
736,8.388542,-768,1184,1936,-1,56,-1022
737,8.400208,-1024,880,1904,1,56,-1030
738,8.41192,-1536,928,1520,-5,63,-1022
739,8.423563,-512,464,1728,-9,64,-1014
740,8.43523,0,1504,1504,-6,63,-1022
741,8.446895,-1536,944,1728,2,60,-1025
742,8.45853,-1024,688,1616,8,58,-1025
743,8.470175,-1024,720,1536,2,59,-1021
744,8.481839,-768,352,1376,-4,56,-1023
745,8.493526,4,6,8,-10,62,-1018
746,8.505099,-1536,896,1472,-6,59,-1016
747,8.516647,1,7,9,-5,63,-1021
748,8.528214,-512,1008,1312,-2,56,-1016
749,8.539766,-768,592,1440,2,60,-1021
750,8.551308,-512,704,1792,-1,63,-1022
751,8.562849,-1024,336,1584,-6,60,-1019
752,8.5744,-512,752,1664,-4,63,-1022
753,8.585975,0,1360,1600,-3,62,-1025
754,8.597614,2,5,9,0,61,-1020
755,8.609279,-1024,928,1600,3,59,-1015
756,8.62091,-512,704,1920,0,60,-1023
757,8.632569,-1024,880,-1872,-2,61,-1022
758,8.644269,-768,848,1696,-3,60,-1026
759,8.655891,-1536,528,1712,-1,66,-1026
760,8.66754,1,8,7,-1,64,-1023
761,8.679327,-512,944,1600,4,62,-1023
762,8.691028,4,6,9,1,60,-1027
763,8.702679,-768,336,1408,-1,60,-1022
764,8.714237,3,6,8,1,56,-1019
765,8.725843,-1520,-176,-2032,-8,59,-1026
766,8.737388,-768,1056,1456,-1,63,-1013
767,8.74897,-1024,624,1008,-3,57,-1018
768,8.760512,4,5,10,-4,66,-1015
769,8.772082,-512,1200,1600,1,62,-1020
770,8.783639,3,7,9,1,59,-1018
771,8.795192,-768,640,1936,-2,58,-1027
772,8.806812,4,5,7,-3,58,-1013
773,8.818464,0,1200,1952,-2,62,-1023
774,8.830161,-1024,1072,1488,-3,62,-1017
775,8.841805,-512,624,1776,-2,59,-1024
776,8.853457,-512,400,1808,0,59,-1025
777,8.865131,-1024,608,1728,-1,60,-1020
778,8.876796,3,6,11,-1,63,-1018
779,8.888446,-1792,736,1648,0,62,-1017
780,8.900156,-512,576,1824,-4,64,-1020
781,8.911816,-512,928,1856,-3,62,-1020
782,8.923366,256,928,1584,-3,58,-1021
783,8.934969,-768,992,1392,0,63,-1025
784,8.946519,-512,992,-2032,0,56,-1022
785,8.958086,-512,928,1872,-1,60,-1024
786,8.969627,-1536,768,1520,-2,58,-1014
787,8.981163,-512,400,1872,-3,59,-1013
788,8.992833,-1024,1088,1616,-2,59,-1020
789,9.0044,1,6,8,0,61,-1023
790,9.016044,-1536,848,1728,1,60,-1014
791,9.027699,-1536,1152,1392,0,62,-1018
792,9.039352,-1024,608,1696,0,59,-1015
793,9.051023,-1024,64,1520,-5,60,-1021
794,9.062658,-768,544,1808,-2,60,-1023
795,9.074305,-512,416,1840,-5,60,-1026
796,9.085961,-512,832,2000,-1,59,-1017
797,9.097622,-1792,976,1520,-5,59,-1028
798,9.109285,-1024,624,2000,-4,61,-1020
799,9.120949,0,640,1408,-5,61,-1021
800,9.132507,3,10,7,-3,62,-1022
801,9.144118,-1024,560,1344,-4,60,-1018
802,9.155664,1,7,9,1,59,-1023
803,9.167222,-512,384,2000,0,60,-1020
804,9.178771,-1024,832,1328,-1,63,-1019
805,9.190332,-768,800,1376,0,60,-1022
806,9.201884,-768,1056,1744,-1,60,-1024
807,9.213437,0,960,1216,-7,60,-1028
808,9.225117,0,736,1520,-6,60,-1023
809,9.2368,-512,720,1952,-2,59,-1019
810,9.248459,0,528,1424,2,63,-1022
811,9.260146,-512,736,-1904,0,61,-1020
812,9.271798,-1536,1008,1760,-2,60,-1015
813,9.283451,4,7,7,-2,59,-1022
814,9.295127,-512,816,1424,-1,60,-1018
815,9.306774,-512,416,1968,-9,58,-1016
816,9.318439,0,544,1680,-1,58,-1014
817,9.330121,-768,368,1824,0,61,-1024
818,9.341715,-512,1088,1712,0,60,-1019
819,9.35326,4,6,10,-2,61,-1018
820,9.364826,-512,592,-2000,-2,61,-1016
821,9.376343,1536,576,1456,0,57,-1016
822,9.387861,0,912,-1920,-1,62,-1024
823,9.399407,1536,832,-1936,-3,62,-1016
824,9.410968,3,7,9,-1,65,-1017
825,9.422528,-1792,800,-1904,-2,58,-1015
826,9.434156,3,6,10,-2,60,-1021
827,9.445875,0,736,1760,-2,62,-1018
828,9.457535,-768,624,1984,-2,61,-1016
829,9.469193,256,656,1808,-4,64,-1019
830,9.480897,512,576,1712,0,63,-1020
831,9.492551,0,1344,1568,1,59,-1020
832,9.504208,2,6,9,-1,58,-1024
833,9.515907,-1024,352,1632,0,60,-1018
834,9.527536,2,6,10,0,62,-1028
835,9.539117,-768,800,-1520,1,60,-1024
836,9.5507,-1536,448,-1904,-3,63,-1025
837,9.562245,-1024,1456,1760,-1,62,-1020
838,9.573794,1,7,9,-2,63,-1020
839,9.585342,-768,608,1696,-3,62,-1018
840,9.596902,-1024,848,1776,-2,63,-1013
841,9.608468,-1024,800,1840,0,66,-1013
842,9.620038,-1792,400,1344,-4,62,-1020
843,9.631626,5,8,12,-3,59,-1029
844,9.643257,-1024,528,1408,-4,60,-1023
845,9.654914,-512,528,1968,-2,62,-1017
846,9.666556,0,80,1888,-4,60,-1018
847,9.678204,-1024,656,1792,0,58,-1016
848,9.689852,0,784,1824,2,62,-1017
849,9.701543,-1536,96,-2000,-2,60,-1017
850,9.713198,-512,1008,1584,-3,60,-1023
851,9.724848,-768,400,1888,-1,63,-1021
852,9.736544,512,256,1408,1,61,-1026
853,9.748208,-1024,688,1248,-2,58,-1017
854,9.759792,-1024,672,2016,-2,62,-1022
855,9.77135,-1024,752,-2000,-5,58,-1023
856,9.782902,3,6,8,-5,62,-1024
857,9.794448,-512,864,1520,-1,60,-1021
858,9.806004,-768,496,1600,-2,60,-1019
859,9.817597,0,1200,-2032,-1,60,-1019
860,9.829148,-512,1088,1216,-2,60,-1024
861,9.840733,-1536,448,1664,-2,65,-1017
862,9.852395,-1024,640,1488,-5,61,-1018
863,9.864042,-768,432,1744,0,62,-1016
864,9.875697,3,5,9,-1,59,-1021
865,9.887405,0,992,1456,-1,59,-1024
866,9.899049,-1024,800,1616,-5,57,-1020
867,9.910693,-512,672,-1792,0,56,-1022
868,9.92236,-1536,0,1008,-6,60,-1016
869,9.934017,1792,608,-2000,0,60,-1020
870,9.945682,3,6,9,0,59,-1020
871,9.957337,-1024,656,1440,-2,65,-1017
872,9.968899,256,1200,1792,-1,57,-1013
873,9.980465,-1024,912,1856,-2,61,-1013
874,9.992036,-1024,1216,1456,-1,63,-1018
875,10.003614,-1024,752,1344,-2,61,-1026
876,10.015191,-1536,816,1680,1,66,-1021
877,10.02674,-512,944,2016,0,59,-1021
878,10.038316,0,848,1616,-2,59,-1021
879,10.049881,-512,256,1984,-1,57,-1020
880,10.061525,-1024,992,1376,0,60,-1021
881,10.07319,-1024,624,1920,-2,61,-1026
882,10.08484,-768,1088,1632,-3,56,-1019
883,10.09653,-512,384,1808,-3,59,-1021
884,10.108191,0,880,1632,-2,58,-1017
885,10.119879,-768,592,1680,-2,57,-1024
886,10.13153,5,4,10,-2,60,-1026
887,10.143184,-1024,944,1552,0,58,-1021
888,10.154844,2,4,9,0,60,-1022
889,10.16653,-1024,656,1680,1,64,-1016
890,10.178092,-768,496,1824,-4,63,-1018
891,10.18964,-768,608,-1984,-1,59,-1022
892,10.201206,-768,576,1632,-2,57,-1025
893,10.212831,-1024,960,1264,3,60,-1016
894,10.224476,-512,976,1824,-2,60,-1015
895,10.236095,-1024,704,1520,-2,61,-1014
896,10.24762,-1536,880,1568,-1,61,-1025
897,10.259244,-768,848,1504,-1,63,-1027
898,10.270916,0,1024,1536,-1,60,-1018
899,10.282583,-1536,752,1664,0,63,-1024
900,10.294252,-512,624,1424,1,62,-1022
901,10.305936,-1792,736,1248,0,61,-1014
902,10.317585,-768,800,1680,-3,57,-1025
903,10.329252,-1024,720,1456,0,62,-1013
904,10.340919,-1024,784,10,0,61,-1018
905,10.352562,-1024,736,1504,-4,62,-1015
906,10.364237,0,624,1216,0,60,-1021
907,10.375895,-768,480,1760,-1,61,-1014
908,10.387463,1792,352,1760,0,63,-1014
909,10.399012,-1024,592,-1952,-2,59,-1018
910,10.410558,3,7,11,-3,61,-1019
911,10.422103,-1024,512,1936,-2,62,-1018
912,10.433682,-1024,640,1568,0,63,-1020
913,10.445231,-512,992,2000,2,58,-1023
914,10.456809,-768,720,1360,0,60,-1025
915,10.468352,-768,752,1888,0,61,-1016
916,10.480067,2,7,8,-2,63,-1016
917,10.491758,0,864,1984,-3,60,-1019
918,10.503402,-512,576,-2032,1,57,-1018
919,10.515045,0,704,1712,-5,61,-1026
920,10.526709,-1536,336,1872,-4,62,-1015
921,10.538366,-1536,992,1232,-1,60,-1019
922,10.55002,256,704,1856,-2,59,-1020
923,10.561669,-1024,128,1936,-2,61,-1020
924,10.573374,256,368,1664,1,59,-1022
925,10.585027,-768,480,1312,0,60,-1011
926,10.596591,-1536,480,1952,-1,58,-1011
927,10.608164,-1792,736,1600,-1,58,-1021
928,10.619737,1024,1120,1648,1,63,-1021
929,10.631352,1,6,6,2,61,-1014
930,10.642928,0,1104,-2048,-2,59,-1021
931,10.654462,0,1104,1696,-15,59,-1017
932,10.665995,0,784,1904,-1,59,-1019
933,10.677551,-512,848,-1664,-2,64,-1023
934,10.689187,-1536,960,1936,-3,62,-1019
935,10.700865,-768,464,1616,-4,57,-1022
936,10.712531,-768,688,-1920,4,64,-1015
937,10.724183,0,720,1680,-1,65,-1023
938,10.735867,-768,528,1504,-6,62,-1017
939,10.747518,-768,768,1568,-4,62,-1022
940,10.759158,-512,272,1680,0,59,-1022
941,10.770801,-768,864,1600,-3,61,-1025
942,10.782481,-1536,464,1696,-5,60,-1023
943,10.794135,-768,496,1936,-1,62,-1028
944,10.805782,2,9,11,-6,66,-1020
945,10.81743,-768,576,1648,-1,61,-1022
946,10.829127,-1024,688,1440,-3,60,-1022
947,10.840786,0,864,-2032,0,59,-1016
948,10.8524,-768,672,1888,-1,59,-1023
949,10.864055,-768,1168,1840,-3,63,-1023
950,10.875701,-1536,688,1712,-1,57,-1023
951,10.88739,-1024,944,1328,-4,60,-1025
952,10.899042,-1024,1040,1488,-5,60,-1015
953,10.910686,-1536,656,2032,-3,59,-1018
954,10.922331,-768,480,-1760,-2,59,-1016
955,10.934,-1024,800,1600,0,64,-1020
956,10.945643,2,6,9,0,64,-1018
957,10.957288,0,560,1456,-2,59,-1019
958,10.968908,-512,1056,1504,-5,60,-1020
959,10.980564,-1024,544,1376,0,60,-1022
960,10.992294,-512,544,-2048,-7,61,-1020
961,11.003965,-512,720,1632,-3,67,-1013
962,11.015635,-1024,720,-2000,-2,63,-1019
963,11.027288,-1024,960,1328,0,59,-1021
964,11.038936,4,8,9,-4,60,-1019
965,11.050619,-1024,576,1744,1,60,-1016
966,11.062263,0,1056,1680,0,60,-1022
967,11.073915,-1024,1008,2032,-1,61,-1018
968,11.085586,-1024,1008,1536,-3,63,-1015
969,11.097275,-1024,1408,1488,-1,57,-1014
970,11.10897,1,5,8,-4,59,-1017
971,11.120578,-512,816,1504,-2,63,-1017
972,11.1321,2,5,8,-2,61,-1021
973,11.143623,-512,688,1680,-1,59,-1018
974,11.155169,-1024,464,1552,0,57,-1018
975,11.166716,-1536,992,1824,-1,66,-1020
976,11.178259,-512,112,1744,0,65,-1018
977,11.189805,-512,608,1536,-4,58,-1022
978,11.201355,-512,720,-2000,-5,63,-1021
979,11.213035,-1024,160,1696,-1,62,-1023
980,11.224647,0,944,1648,-1,58,-1023
981,11.23634,-512,416,1632,-2,58,-1020
982,11.248021,-512,464,1920,-2,62,-1019
983,11.259684,3,6,7,0,62,-1021
984,11.27134,-1024,784,1472,-3,64,-1020
985,11.283007,-768,1072,1408,-3,63,-1021
986,11.294662,-1024,1408,1648,-5,66,-1016
987,11.306308,-768,976,1952,0,59,-1022
988,11.317995,1792,1136,1760,0,61,-1021
989,11.329649,3,6,8,-1,63,-1017
990,11.341285,-1536,176,1456,-2,61,-1021
991,11.352944,2,6,9,0,60,-1019
992,11.36473,256,464,1360,-2,59,-1021
993,11.376439,-1536,976,1696,1,57,-1019
994,11.38814,1280,464,1600,-3,63,-1022
995,11.399814,-1792,480,1712,0,63,-1021
996,11.411519,256,336,1728,-5,64,-1027
997,11.423083,-1024,688,1568,0,60,-1018
998,11.434624,0,768,1088,2,58,-1017
999,11.446177,256,688,1392,0,60,-1020
1000,11.457723,-768,720,1648,0,61,-1019
1001,11.469265,-768,624,1104,-1,61,-1017
1002,11.480826,256,640,1840,0,62,-1018
1003,11.492327,-1024,160,1408,-3,63,-1020
1004,11.503873,3,6,9,-2,61,-1017
1005,11.515504,-768,352,1744,-3,58,-1021
1006,11.52715,-512,1232,1712,0,57,-1012
1007,11.538798,-1024,800,-2016,-2,59,-1024
1008,11.550465,0,912,1648,-1,59,-1027
1009,11.562116,-1024,1008,-1904,-1,60,-1021
1010,11.573768,-768,240,1984,-2,59,-1015
1011,11.585416,0,832,1888,-3,61,-1023
1012,11.597093,-768,1008,1312,0,62,-1013
1013,11.608784,3,5,10,-4,64,-1019
1014,11.620472,-1024,592,-2000,-3,60,-1024
1015,11.632081,1,5,9,-2,61,-1018
1016,11.643621,-512,608,1728,0,63,-1022
1017,11.655177,-1024,960,1632,-3,62,-1018
1018,11.666746,-1536,928,1712,-1,60,-1018
1019,11.678298,2,6,10,-1,61,-1022
1020,11.689839,-512,544,1616,0,61,-1017
1021,11.701412,-512,704,-1776,1,60,-1019
1022,11.712981,-768,336,1536,-2,59,-1022
1023,11.724694,1024,624,1696,-4,62,-1018
1024,11.736377,0,640,1728,-2,60,-1014
1025,11.748055,-512,512,1856,-4,62,-1022
1026,11.759705,-1024,464,1296,-4,61,-1019
1027,11.771362,-768,816,-1648,-3,60,-1017
1028,11.783008,-1024,544,1712,-2,59,-1020
1029,11.794648,-512,768,-2000,-3,59,-1019
1030,11.806293,-1024,672,1808,-3,64,-1021
1031,11.817973,-512,1120,1232,-1,62,-1023
1032,11.829632,1,6,9,-6,59,-1023
1033,11.841198,0,400,1440,0,57,-1025
1034,11.852748,0,7,9,-6,64,-1021
1035,11.864322,512,848,1216,0,64,-1018
1036,11.875863,-512,1136,-2032,-4,62,-1021
1037,11.887432,0,432,1648,0,62,-1022
1038,11.898981,4,7,9,-3,62,-1024
1039,11.910552,-1536,544,1712,1,59,-1022
1040,11.922099,-1024,720,1344,-1,57,-1024
1041,11.933753,-512,1152,-2016,0,61,-1022
1042,11.9454,512,1088,1904,-1,59,-1018
1043,11.957057,-768,592,1568,-4,59,-1015
1044,11.968733,-512,800,1728,-5,62,-1017
1045,11.980393,2,6,7,-3,64,-1017
1046,11.992048,-512,704,1392,0,61,-1021
1047,12.003701,0,992,1664,-5,59,-1019
1048,12.015359,0,512,1760,-1,61,-1015
1049,12.027021,-1536,896,-1920,-4,63,-1019
1050,12.038667,-1792,784,1504,-4,62,-1022
1051,12.050218,-768,800,1216,-3,61,-1022
1052,12.061768,-1024,480,784,0,61,-1020
1053,12.073322,0,944,1696,-2,59,-1012
1054,12.084872,-1024,320,1536,3,62,-1024
1055,12.096416,-1024,752,1600,0,58,-1022
1056,12.108005,0,832,1408,-4,59,-1026
1057,12.119553,1792,672,1904,-3,64,-1017
1058,12.131109,3,8,8,1,61,-1022
1059,12.14274,-768,240,1936,0,58,-1017
1060,12.154392,-1024,704,1648,-1,64,-1015
1061,12.166043,-512,544,1776,-3,65,-1021
1062,12.17769,-512,1088,1792,-3,58,-1024
1063,12.189338,-1024,608,1904,-2,60,-1020
1064,12.201016,-512,864,-1952,-2,62,-1023
1065,12.212649,-512,768,1728,1,63,-1016
1066,12.224304,-1536,624,1984,-4,61,-1019
1067,12.236017,-768,496,1568,-6,62,-1018
1068,12.247632,-512,1152,1376,0,58,-1020
1069,12.259191,-512,768,1280,0,64,-1021
1070,12.270735,-1024,784,1216,0,62,-1017
1071,12.282285,-512,1104,1296,-3,58,-1022
1072,12.293825,-512,672,1200,-1,58,-1016
1073,12.30539,0,912,1072,-2,59,-1021
1074,12.316953,-512,256,1408,0,61,-1019
1075,12.328509,0,528,1376,-3,58,-1014
1076,12.340098,-512,976,1728,-3,58,-1028
1077,12.351769,-1536,912,1664,-1,61,-1018
1078,12.363423,-1024,96,-1840,-4,60,-1019
1079,12.37511,0,304,1792,-9,61,-1024
1080,12.386822,-768,672,1504,0,61,-1025
1081,12.398502,0,544,1296,-1,61,-1019
1082,12.410159,-1536,384,1824,-1,64,-1023
1083,12.421815,-1024,688,2000,0,64,-1017
1084,12.43349,-768,848,1472,-2,61,-1023
1085,12.445205,1024,224,1776,-5,65,-1021
1086,12.457003,-512,656,2000,0,60,-1021
1087,12.468586,0,832,1856,0,60,-1016
1088,12.4802,4,5,10,0,60,-1015
1089,12.491756,0,304,1728,-3,59,-1020
1090,12.503333,256,832,1856,0,61,-1021
1091,12.51489,-512,848,1696,-5,59,-1023
1092,12.526442,256,624,1840,-3,60,-1020
1093,12.538003,-512,368,1760,-6,62,-1013
1094,12.54958,-1536,832,1776,-1,59,-1020
1095,12.561172,256,656,1984,0,61,-1020
1096,12.572727,0,304,1328,-3,64,-1017
1097,12.584309,-1024,1216,1776,-1,58,-1019
1098,12.595862,-512,416,1648,-2,62,-1021
1099,12.607422,2,4,8,-4,60,-1022
1100,12.618967,-1024,976,1712,-1,62,-1019
1101,12.630515,-512,176,1440,-3,62,-1022
1102,12.642057,0,640,1760,-2,59,-1019
1103,12.653676,-768,528,1504,0,62,-1021
1104,12.665315,3,6,9,-6,60,-1023
1105,12.676987,-512,944,-1920,-6,62,-1024
1106,12.688661,-1024,928,1744,-4,58,-1019
1107,12.700334,-512,0,1952,-2,61,-1022
1108,12.712011,-1024,720,1376,0,59,-1021
1109,12.723632,-768,480,1760,0,63,-1018
1110,12.73533,-1024,960,1872,2,63,-1019
1111,12.746989,-512,752,-2032,-1,62,-1018
1112,12.758645,-1792,992,1840,-2,59,-1019
1113,12.770292,0,864,1280,-2,62,-1019
1114,12.78196,-1024,352,-1840,-1,63,-1022
1115,12.793615,3,6,9,-3,60,-1015
1116,12.805259,-1536,656,1200,0,62,-1023
1117,12.816928,-512,432,1216,-2,56,-1026
1118,12.82859,-512,1136,1872,-1,65,-1018
1119,12.840267,256,384,1840,-4,63,-1020
1120,12.851909,-512,400,1488,-3,63,-1021
1121,12.86359,2,6,9,-1,63,-1024
1122,12.875249,-512,272,1456,-2,57,-1022
1123,12.886897,3,5,9,-1,62,-1022
1124,12.898545,0,688,1760,1,61,-1019
1125,12.910186,-768,224,1520,0,61,-1019
1126,12.921847,-512,1360,1536,-3,60,-1017
1127,12.933524,-512,1104,1472,1,60,-1016
1128,12.94517,-1024,608,1552,-2,61,-1019
1129,12.956825,1,6,9,-3,58,-1017
1130,12.968539,-1536,560,1168,-1,59,-1020
1131,12.980191,2,6,9,-5,60,-1022
1132,12.991873,-512,304,1616,-2,58,-1024
1133,13.003522,-512,1136,1424,-3,63,-1018
1134,13.015208,-768,368,1552,-2,62,-1025
1135,13.026862,3,5,9,2,62,-1021
1136,13.038511,-768,1136,1536,-2,58,-1023
1137,13.050157,2,7,8,-4,60,-1025
1138,13.061815,256,928,1968,-2,60,-1013
1139,13.073495,2,7,9,-5,60,-1021
1140,13.08519,-1024,1088,1376,-3,62,-1027
1141,13.096853,-1024,944,-1824,-3,61,-1021
1142,13.10853,-512,736,1456,-3,65,-1023
1143,13.120177,3,7,9,0,60,-1024
1144,13.131838,256,592,1888,-2,67,-1023
1145,13.14349,3,7,9,-4,60,-1016
1146,13.155131,256,1248,1024,-1,59,-1023
1147,13.166777,-512,496,1760,0,57,-1019
1148,13.178453,-512,1232,1520,-4,63,-1027
1149,13.190114,-1536,112,1552,0,61,-1026
1150,13.20167,0,480,-1856,1,59,-1021
1151,13.213215,-512,704,1568,-8,63,-1024
1152,13.224782,-512,640,1584,-3,63,-1016
1153,13.236342,0,192,1344,0,56,-1017
1154,13.247921,-512,736,1632,2,62,-1018
1155,13.259469,256,928,1728,0,60,-1021
1156,13.271011,2,6,7,-2,60,-1020
1157,13.282568,-1024,416,1920,3,63,-1024
1158,13.294217,-1024,352,1920,-4,64,-1024
1159,13.305866,-512,656,1296,-3,64,-1015
1160,13.317549,-1536,368,1680,-3,62,-1025
1161,13.329203,0,416,1696,-4,60,-1019
1162,13.340857,-1024,624,1584,-4,60,-1017
1163,13.352527,-768,416,1296,0,61,-1017
1164,13.364141,-768,528,1008,-2,58,-1020
1165,13.375792,-768,560,1408,0,64,-1022
1166,13.387477,256,976,1792,-6,65,-1021
1167,13.399138,0,896,-1920,-4,64,-1025
1168,13.41069,2,5,6,-2,59,-1021
1169,13.422243,0,784,1584,-3,61,-1016
1170,13.433802,-512,272,1456,2,61,-1014
1171,13.445345,1024,656,1440,0,59,-1021
1172,13.456888,-512,768,-2048,-3,58,-1020
1173,13.468461,-512,1296,1472,-8,63,-1025
1174,13.480011,-1024,480,1504,-5,56,-1020
1175,13.491563,-1024,160,1376,-4,54,-1019
1176,13.503208,-1024,928,1616,-3,68,-1019
1177,13.514858,-768,656,1568,3,63,-1017
1178,13.526508,-768,640,1856,1,62,-1018
1179,13.538154,-512,784,1824,-4,64,-1018
1180,13.549822,-1024,1168,1344,-1,60,-1024
1181,13.561477,256,336,1696,-3,58,-1016
1182,13.573179,-768,704,1440,-2,61,-1014
1183,13.584848,-768,576,1728,1,61,-1026
1184,13.596533,-512,848,-1904,0,61,-1024
1185,13.608095,-768,240,1696,-5,60,-1016
1186,13.619618,256,784,2016,-3,60,-1016
1187,13.631173,0,464,1504,-1,61,-1023
1188,13.642716,2,9,9,-2,58,-1020
1189,13.654261,-1536,1072,-1712,-4,61,-1020
1190,13.665802,0,448,1664,-2,63,-1018
1191,13.67735,1280,848,1968,0,58,-1012
1192,13.68892,0,688,-2048,-3,60,-1023
1193,13.700496,0,640,1328,0,62,-1015
1194,13.712144,256,592,-1344,-3,62,-1023
1195,13.723804,-1024,224,1424,-2,61,-1018
1196,13.735456,2,8,8,0,61,-1020
1197,13.747104,256,320,1536,-3,62,-1016
1198,13.758755,0,1120,1568,0,60,-1016
1199,13.770399,-1024,752,1776,2,64,-1020
1200,13.782061,0,576,1632,-5,62,-1017
1201,13.793726,-512,608,1856,-3,63,-1023
1202,13.805369,3,8,9,-4,65,-1027
1203,13.817052,-1024,864,1632,0,62,-1014
1204,13.8287,4,7,9,-1,61,-1019
1205,13.840385,0,784,1824,-2,60,-1017
1206,13.852048,1024,976,1760,-2,57,-1014
1207,13.863727,0,416,1584,-1,63,-1018
1208,13.875371,-1536,688,1792,-1,58,-1021
1209,13.887022,-768,464,-2032,0,64,-1013
1210,13.898691,-1024,816,1376,-2,63,-1025
1211,13.910354,-1024,320,1280,-3,59,-1024
1212,13.922003,-1024,672,-2048,0,62,-1024
1213,13.933643,256,480,1744,-1,64,-1016
1214,13.945287,-512,736,1120,-2,56,-1018
1215,13.956934,4,8,12,1,63,-1019
1216,13.968649,-1024,928,1728,0,57,-1017
1217,13.980309,0,336,1840,1,62,-1019
1218,13.991998,-1024,880,-2048,1,61,-1015
1219,14.003691,-1024,768,1376,-1,58,-1028
1220,14.015322,-768,848,-1872,-1,61,-1021
1221,14.026864,3,6,10,-1,61,-1024
1222,14.03842,-768,288,1648,-2,62,-1017
1223,14.049965,-512,480,1440,0,61,-1027
1224,14.061542,0,960,1808,-2,61,-1018
1225,14.073082,-512,800,1680,0,64,-1019
1226,14.084624,-768,192,-2032,-1,60,-1021
1227,14.096176,0,768,1664,-1,60,-1023
1228,14.107752,2,6,9,-2,60,-1019
1229,14.119317,-512,512,-2000,-4,58,-1016
1230,14.130882,-512,624,1936,-1,61,-1019
1231,14.142445,0,896,-1984,-4,60,-1016
1232,14.153992,-768,464,1904,0,63,-1012
1233,14.165539,0,880,1456,2,66,-1017
1234,14.177083,2,8,10,1,59,-1018
1235,14.188631,-768,896,1952,0,63,-1022
1236,14.200181,0,672,1568,-5,61,-1018
1237,14.211769,0,640,1952,-2,62,-1025
1238,14.223396,1,5,9,-4,60,-1013
1239,14.235083,0,1120,1680,3,59,-1014
1240,14.24673,-512,928,1584,1,55,-1023
1241,14.258381,256,320,1664,0,60,-1026
1242,14.270053,-1024,960,1504,1,62,-1019
1243,14.281719,-512,544,-1760,-4,59,-1021
1244,14.293377,-1024,624,-2048,-3,60,-1029
1245,14.305054,1024,944,-2016,0,59,-1017
1246,14.316726,-768,704,1632,-2,61,-1018
1247,14.328398,256,736,1952,0,62,-1023
1248,14.340004,-768,656,1952,-2,62,-1016
1249,14.351551,-1024,816,-1760,-1,60,-1021
1250,14.363112,-1536,400,1872,-2,65,-1022
1251,14.374674,1024,288,-1952,1,56,-1022
1252,14.386218,-512,704,1984,0,59,-1021
1253,14.397787,-512,1104,1984,0,60,-1021
1254,14.409328,-768,688,1984,-3,60,-1017
1255,14.420906,-768,768,-2000,-5,63,-1023
1256,14.432593,0,736,1104,-2,62,-1024
1257,14.444273,0,656,1488,1,59,-1018
1258,14.455969,-768,928,1616,2,69,-1025
1259,14.467631,-512,816,-1984,1,61,-1020
1260,14.479282,-512,528,1456,-2,62,-1019
1261,14.490943,-512,560,2016,-4,61,-1015
1262,14.502612,-1024,704,1328,1,64,-1022
1263,14.514254,-512,368,1328,-1,61,-1025
1264,14.525922,0,864,-1840,-2,61,-1020
1265,14.537588,0,624,1712,-4,64,-1020
1266,14.549164,256,64,-2048,-4,65,-1019
1267,14.560732,256,1008,1776,0,63,-1023
1268,14.572297,-512,1008,1888,1,60,-1020
1269,14.583858,1024,368,1568,-7,58,-1023
1270,14.595415,-512,1104,1872,3,63,-1017
1271,14.606959,-768,928,1696,-5,61,-1030
1272,14.618503,256,672,1840,0,62,-1019
1273,14.630058,-512,656,1840,-1,61,-1024
1274,14.641703,2,5,7,1,62,-1020
1275,14.653354,-1024,528,1584,-5,63,-1019
1276,14.665061,256,832,1376,0,60,-1022
1277,14.676717,-1024,496,1696,-1,60,-1023
1278,14.688416,-768,720,1696,-1,60,-1022
1279,14.700079,-768,1056,1616,1,60,-1022
1280,14.711774,-1536,1360,1536,-3,61,-1015
1281,14.723445,-512,992,-2032,-5,65,-1018
1282,14.735108,-512,928,1664,0,60,-1029
1283,14.746761,-1536,768,1744,-1,63,-1019
1284,14.758331,256,368,1248,0,57,-1022
1285,14.76994,0,1472,1728,0,61,-1018
1286,14.781488,0,336,1936,-2,60,-1016
1287,14.79307,0,576,1872,-4,62,-1021
1288,14.804584,-1024,240,-2000,-6,59,-1017
1289,14.816162,-768,688,1936,-5,64,-1022
1290,14.827734,-1024,688,-1984,0,64,-1022
1291,14.839376,2,7,11,-1,62,-1026
1292,14.851008,-1024,432,-1984,-3,56,-1016
1293,14.862694,2,7,9,-3,57,-1022
1294,14.874349,-768,688,1632,-2,62,-1018
1295,14.886003,0,544,-1616,0,63,-1019
1296,14.897669,-512,480,1776,-2,61,-1027
1297,14.909321,-1024,752,1504,-3,60,-1019
1298,14.920991,-1024,304,1728,0,62,-1021
1299,14.932666,-1536,1072,1824,-1,62,-1017
1300,14.944343,-768,368,1040,-6,61,-1023
1301,14.956052,-512,912,-1968,0,61,-1021
1302,14.967622,-1024,176,1856,1,64,-1018
1303,14.979179,0,752,1344,-2,57,-1023
1304,14.990723,-512,800,-1648,-2,61,-1015
1305,15.002274,-768,656,1632,-1,59,-1022
1306,15.013824,-512,656,-2016,-3,60,-1025
1307,15.025372,-1024,1216,1712,0,61,-1016
1308,15.036959,-768,752,1232,1,62,-1025
1309,15.048551,-512,224,1744,0,63,-1024
1310,15.060212,-768,384,1856,-4,56,-1023
1311,15.071914,1024,336,-1872,-2,61,-1024
1312,15.083615,0,496,1280,-2,60,-1017
1313,15.095257,256,784,1360,1,64,-1023
1314,15.106923,0,880,1488,-4,62,-1019
1315,15.118597,256,576,1856,1,59,-1024
1316,15.130241,-512,1104,1472,-2,63,-1025
1317,15.141908,-1024,816,1648,1,57,-1020
1318,15.153574,-768,976,1616,-1,55,-1023
1319,15.165236,0,816,1936,-4,62,-1019
1320,15.176831,0,896,1296,1,61,-1021
1321,15.188413,256,720,2000,-1,64,-1023
1322,15.199998,0,256,-2048,-2,62,-1017
1323,15.211551,256,320,1984,1,59,-1021
1324,15.223143,-512,464,1296,-2,60,-1019
1325,15.234685,256,752,1680,0,64,-1024
1326,15.246232,3,4,8,-1,58,-1015
1327,15.257796,-512,880,2016,-6,60,-1018
1328,15.269464,0,416,1760,-5,65,-1020
1329,15.281138,-768,576,-2016,-1,62,-1017
1330,15.292814,-512,784,-1856,1,60,-1020
1331,15.304481,-1024,1024,1840,1,60,-1015
1332,15.316157,2,5,11,-4,59,-1020
1333,15.32782,0,560,1952,-3,59,-1021
1334,15.339478,0,1312,1568,-2,62,-1019
1335,15.351123,0,832,2000,-1,62,-1012
1336,15.362789,0,816,1504,-1,62,-1018
1337,15.374461,-512,816,1824,-1,63,-1019
1338,15.386109,0,464,1920,1,67,-1022
1339,15.397754,4,7,8,0,62,-1023
1340,15.409422,-512,848,1536,-1,61,-1020
1341,15.421082,-512,496,-1936,-1,63,-1021
1342,15.43273,1024,464,1888,2,62,-1020
1343,15.44444,-512,368,1376,1,57,-1018
1344,15.456128,0,1328,2000,-1,61,-1020
1345,15.467799,-512,656,2032,0,59,-1018
1346,15.479501,0,288,1856,-4,62,-1022
1347,15.491057,-1024,192,1760,-4,59,-1022
1348,15.502623,0,624,2032,-2,62,-1021
1349,15.514173,0,928,1824,-4,62,-1026
1350,15.525716,-496,-96,1760,-2,64,-1019
1351,15.537262,512,336,-1792,-3,61,-1026
1352,15.54883,0,336,1168,0,63,-1021
1353,15.560408,-1024,704,1808,-2,62,-1026
1354,15.571991,1024,496,1728,-2,56,-1019
1355,15.583631,-512,688,1920,-1,62,-1028
1356,15.595289,1,6,9,-4,61,-1021
1357,15.606963,0,832,1600,3,58,-1021
1358,15.618606,2,5,9,0,64,-1017
1359,15.630253,0,624,-1952,1,59,-1023
1360,15.641918,-1024,640,1744,-4,60,-1021
1361,15.653585,-512,896,1712,2,61,-1021
1362,15.665233,256,944,-1984,-6,62,-1022
1363,15.676946,512,880,1712,1,60,-1028
1364,15.688618,1024,1120,1744,1,62,-1019
1365,15.700179,0,240,1024,-2,62,-1020
1366,15.711745,-768,640,1872,-1,57,-1023
1367,15.723302,-512,944,1568,-1,63,-1017
1368,15.734851,256,864,2032,-4,65,-1026
1369,15.746399,3,7,10,0,59,-1026
1370,15.757954,-1024,1296,1440,-2,61,-1020
1371,15.769544,256,1024,1328,-2,61,-1024
1372,15.78111,-768,432,1920,0,64,-1029
1373,15.792816,-768,416,1456,-3,65,-1018
1374,15.804519,-512,1008,1520,0,57,-1023
1375,15.816168,256,944,-1840,0,64,-1019
1376,15.827838,-512,592,1808,-5,59,-1010
1377,15.83949,-1024,400,1616,-2,60,-1018
1378,15.85115,-768,928,1296,-2,59,-1020
1379,15.862812,-512,400,1760,-3,64,-1027
1380,15.874467,2,9,7,-2,60,-1021
1381,15.88612,256,576,1840,-3,58,-1024
1382,15.897784,256,368,-1904,-2,61,-1022
1383,15.909439,0,976,1792,-2,59,-1026
1384,15.921091,0,368,-1856,0,61,-1022
1385,15.932785,1024,976,1904,1,62,-1015
1386,15.944449,0,928,1840,-3,59,-1026
1387,15.956117,0,688,-1984,-2,65,-1016
1388,15.967779,-1024,928,1328,0,60,-1014
1389,15.979435,-512,800,1680,0,60,-1026
1390,15.991115,-1024,1472,1408,0,63,-1020
1391,16.002776,-512,960,1920,-1,61,-1019
1392,16.01442,3,5,11,-2,62,-1025
1393,16.026077,0,848,1520,-2,61,-1013
1394,16.037726,0,624,1696,-4,62,-1013
1395,16.049365,-512,832,1936,-1,63,-1023
1396,16.061065,-1024,944,1504,1,63,-1022
1397,16.072726,-768,448,-2048,-2,60,-1022
1398,16.084404,-512,496,1696,0,62,-1019
1399,16.096099,0,384,1568,0,63,-1017
1400,16.107758,-768,640,1744,0,60,-1018
1401,16.11943,1,5,10,-2,58,-1021
1402,16.131078,-768,784,1936,-1,59,-1016
1403,16.142724,-512,576,-1760,2,62,-1019
1404,16.154367,-512,1056,-1888,-2,65,-1016
1405,16.166022,256,288,-1936,-3,63,-1019
1406,16.17769,-1024,432,1760,-3,59,-1017
1407,16.189369,-512,896,1440,0,58,-1015
1408,16.201059,1024,288,1040,-1,60,-1021
1409,16.212764,3,6,7,-2,60,-1017
1410,16.224331,-512,480,1344,-3,60,-1010
1411,16.235858,-512,560,1488,-3,61,-1024
1412,16.247406,256,1056,-1968,1,62,-1022
1413,16.258945,-1024,336,1936,-1,59,-1020
1414,16.270484,-768,544,1312,-2,60,-1027
1415,16.282023,0,832,1344,-3,60,-1024
1416,16.29357,-768,928,-1792,1,62,-1024
1417,16.305156,256,1296,1440,0,59,-1019
1418,16.316817,-1024,1024,1184,-1,61,-1026
1419,16.3285,-512,416,1408,-2,60,-1018
1420,16.340151,2,4,10,-4,60,-1024
1421,16.35182,1024,992,1280,-5,59,-1019
1422,16.363477,0,1056,1360,-1,59,-1020
1423,16.375137,-512,720,1984,0,60,-1019
1424,16.386781,0,1120,1904,0,61,-1021
1425,16.398454,0,496,-2000,0,65,-1019
1426,16.410119,0,1264,1488,0,61,-1019
1427,16.421778,-768,1008,1104,-1,61,-1016
1428,16.433338,0,672,1696,0,59,-1019
1429,16.444907,-512,736,1280,-1,62,-1024
1430,16.456499,-512,848,1904,2,60,-1022
1431,16.468086,-512,720,1936,0,57,-1019
1432,16.479661,1792,896,1440,1,59,-1027
1433,16.491207,0,288,1456,0,59,-1019
1434,16.502752,-1536,912,2000,-4,58,-1020
1435,16.514311,-512,1024,1328,-4,60,-1020
1436,16.525964,-768,736,1680,-2,63,-1017
1437,16.537623,-512,704,1392,-2,59,-1013
1438,16.549276,256,672,-1952,0,56,-1010
1439,16.560967,3,6,10,-4,66,-1026
1440,16.572668,-512,656,1536,-1,64,-1020
1441,16.584331,-512,912,1664,0,64,-1020
1442,16.596017,-512,768,1856,2,56,-1021
1443,16.607711,0,544,2032,-4,61,-1020
1444,16.619379,-1536,1120,1632,0,62,-1024
1445,16.631029,-512,784,1296,-4,61,-1024
1446,16.64258,0,672,1872,-4,62,-1018
1447,16.654135,2,7,9,-4,60,-1019
1448,16.665687,0,816,1232,0,59,-1020
1449,16.677283,-512,864,2032,-2,60,-1028
1450,16.688825,-512,736,2000,1,64,-1025
1451,16.700394,-512,288,1504,-2,65,-1020
1452,16.711933,-1024,528,1872,-2,64,-1023
1453,16.723479,0,912,2016,-2,60,-1016
1454,16.735106,1024,864,-1888,0,58,-1019
1455,16.746752,0,640,1904,-5,68,-1021
1456,16.758402,0,1120,1392,-2,60,-1022
1457,16.770094,-1024,176,2016,-3,57,-1024
1458,16.781741,-1024,320,1424,0,63,-1019
1459,16.793394,0,544,1408,-3,61,-1022
1460,16.805072,2,6,10,-4,57,-1017
1461,16.81672,-768,768,1040,-2,61,-1024
1462,16.828413,256,704,1856,-1,59,-1013
1463,16.840095,-512,608,1184,-1,59,-1018
1464,16.851659,0,6,12,0,61,-1017
1465,16.863235,1024,976,1456,-1,59,-1021
1466,16.874784,-512,672,1584,-5,61,-1030
1467,16.886353,256,304,1392,-1,65,-1016
1468,16.897897,0,1072,-1488,-3,61,-1024
1469,16.909428,256,368,1984,-3,62,-1022
1470,16.920968,256,992,1760,-2,63,-1024
1471,16.93254,0,336,1552,0,60,-1018
1472,16.944208,0,784,1568,2,63,-1012
1473,16.955885,0,1072,1552,-1,62,-1019
1474,16.967581,-768,624,1152,-1,62,-1016
1475,16.979224,-512,752,1936,0,62,-1014
1476,16.990872,-512,560,1408,-2,61,-1015
1477,17.002542,2,9,10,-6,64,-1023
1478,17.014204,-1536,736,1856,0,59,-1018
1479,17.025851,0,816,1568,0,60,-1019
1480,17.037528,-496,-160,-1712,-2,62,-1023
1481,17.049187,0,528,1312,0,61,-1023
1482,17.060743,-512,640,1216,-6,61,-1019
1483,17.072295,-512,1184,1584,0,56,-1021
1484,17.083864,-1536,544,1408,-6,66,-1023
1485,17.095415,3,8,8,-2,60,-1019
1486,17.106997,-512,736,1376,1,61,-1017
1487,17.118543,512,496,1552,-3,58,-1019
1488,17.130106,-512,1264,880,0,62,-1016
1489,17.141661,2,5,7,-4,58,-1017
1490,17.153364,256,912,1120,1,59,-1021
1491,17.165076,-1024,800,2016,-4,61,-1021
1492,17.176728,-768,336,-2000,-1,63,-1019
1493,17.188397,0,736,1840,-2,58,-1028
1494,17.200061,-512,784,2032,-3,59,-1021
1495,17.211742,-768,1024,1728,0,58,-1020
1496,17.22339,3,7,9,-3,59,-1025
1497,17.235043,256,544,2032,1,60,-1021
1498,17.246714,0,784,1680,-7,62,-1015
1499,17.258389,512,896,1712,0,60,-1022
1500,17.269936,-1024,560,1632,-6,59,-1020
1501,17.281479,-1024,880,1776,1,61,-1027
1502,17.293048,0,624,1328,0,62,-1020
1503,17.304616,-768,768,1296,-4,63,-1017
1504,17.316169,1,4,8,-4,59,-1023
1505,17.327761,-1024,832,1952,-4,60,-1017
1506,17.339301,256,80,1840,0,60,-1021
1507,17.350851,0,576,1744,-2,61,-1020
1508,17.362624,0,864,1712,-5,59,-1025
1509,17.374354,-512,736,1680,-2,59,-1021
1510,17.386049,2,5,8,-4,60,-1023
1511,17.39771,0,368,1424,-2,62,-1013
1512,17.409357,3,6,11,-3,58,-1018
1513,17.421059,-768,336,1648,-1,61,-1020
1514,17.432724,-1024,1008,1888,0,60,-1022
1515,17.444424,-1024,832,1776,-3,63,-1022
1516,17.456098,512,304,1680,1,63,-1018
1517,17.467805,0,800,-1760,-2,64,-1016
1518,17.479394,2,8,9,1,61,-1021
1519,17.490941,512,1232,1760,-2,61,-1017
1520,17.502488,-768,976,-1936,-5,57,-1022
1521,17.514034,0,896,-2000,0,61,-1017
1522,17.525576,-512,832,1888,0,60,-1027
1523,17.53714,256,736,1968,-1,61,-1023
1524,17.548717,-768,736,1744,-1,61,-1024
1525,17.560288,2,4,7,0,59,-1013
1526,17.571948,-512,880,1856,-4,58,-1019
1527,17.583628,512,800,-2048,1,62,-1026
1528,17.595283,-512,448,1856,-3,59,-1025
1529,17.606952,0,912,-1888,0,58,-1019
1530,17.618605,256,512,1456,-4,60,-1023
1531,17.630278,-512,736,-1664,0,64,-1022
1532,17.641947,0,544,1536,0,60,-1013
1533,17.65359,0,336,1664,-2,60,-1016
1534,17.665255,512,768,1520,1,60,-1027
1535,17.676957,2,5,10,-5,58,-1025
1536,17.688522,-768,1024,-1936,-2,63,-1013
1537,17.700115,1024,1232,1200,-3,57,-1022
1538,17.711674,-512,752,-1760,-2,62,-1021
1539,17.723278,0,1248,1824,-7,63,-1023
1540,17.73483,0,400,1712,-7,63,-1017
1541,17.746377,0,832,1936,-5,63,-1021
1542,17.757919,-768,624,1664,0,62,-1018
1543,17.769476,0,432,1424,0,60,-1022
1544,17.781151,4,6,10,4,58,-1020
1545,17.79281,-768,704,1648,-1,52,-1022
1546,17.804468,-1024,656,1776,-2,60,-1019
1547,17.81613,-512,1136,1776,-3,58,-1019
1548,17.827784,-768,656,2000,-4,64,-1023
1549,17.839446,-768,704,1696,-2,63,-1014
1550,17.851088,2,7,10,-5,63,-1018
1551,17.862734,0,176,1312,-2,63,-1024
1552,17.874412,3,7,9,0,61,-1019
1553,17.886073,0,672,2000,-3,63,-1031
1554,17.897635,-512,912,2000,-1,61,-1023
1555,17.909187,-512,656,2016,0,62,-1023
1556,17.920759,-512,400,1520,-3,59,-1015
1557,17.932338,256,416,1968,-4,56,-1021
1558,17.94386,512,784,1488,-1,60,-1027
1559,17.955397,512,880,1680,-3,64,-1019
1560,17.966936,-1536,448,-1824,-1,60,-1023
1561,17.978477,256,608,1760,-5,58,-1020
1562,17.990175,-512,816,1616,-1,57,-1024
1563,18.001853,-768,256,-1904,-5,63,-1021
1564,18.013532,0,656,1344,-6,66,-1022
1565,18.025197,0,10,-1840,1,63,-1017
1566,18.036858,-512,464,1808,0,62,-1014
1567,18.048523,512,384,-1872,2,60,-1021
1568,18.060189,0,832,-1968,1,65,-1022
1569,18.071864,512,864,1456,-1,63,-1018
1570,18.083522,0,624,1680,-6,63,-1025
1571,18.095187,-768,528,1600,-2,58,-1019
1572,18.106837,0,1008,1616,-2,58,-1018
1573,18.118483,256,912,1760,3,59,-1016
1574,18.130154,0,800,1664,1,61,-1015
1575,18.14181,0,880,1456,-2,64,-1021
1576,18.153458,2,6,10,-3,62,-1024
1577,18.165099,-512,416,-1920,-5,63,-1020
1578,18.176774,-768,688,-1952,-2,61,-1020
1579,18.188471,1024,880,1440,-3,64,-1023
1580,18.200146,2,8,11,-4,61,-1021
1581,18.211827,0,592,-1808,0,62,-1023
1582,18.223474,3,7,8,-3,59,-1019
1583,18.235145,-768,736,1808,0,62,-1021
1584,18.246812,0,576,10,-7,60,-1017
1585,18.258453,-512,880,-1808,-2,62,-1020
1586,18.270099,256,848,1696,-3,60,-1019
1587,18.281771,512,608,1872,1,62,-1017
1588,18.293459,3,7,8,2,61,-1027
1589,18.305154,0,720,1712,0,60,-1016
1590,18.31671,0,720,1552,-1,61,-1018
1591,18.32826,0,1056,-1792,0,64,-1019
1592,18.339814,512,784,1552,-1,61,-1021
1593,18.351379,256,512,1440,-2,61,-1014
1594,18.362927,-512,752,1824,-6,58,-1025
1595,18.374467,1024,816,1936,1,61,-1021
1596,18.386013,0,480,1360,-1,57,-1019
1597,18.397577,-512,720,1360,-4,62,-1018
1598,18.409216,-512,736,1920,0,58,-1019
1599,18.420922,-512,800,1632,0,57,-1024
1600,18.432579,-512,960,1808,-3,64,-1021
1601,18.444269,0,640,1472,-5,60,-1024
1602,18.455937,1024,736,-1968,0,57,-1023
1603,18.467606,1024,176,1216,0,59,-1017
1604,18.479296,-512,896,1472,-3,65,-1024
1605,18.49094,512,496,1648,-2,62,-1026
1606,18.502599,256,272,1712,0,63,-1017
1607,18.514263,-512,1056,1552,0,61,-1018
1608,18.525815,0,544,1648,0,64,-1024
1609,18.537371,2,5,9,-2,59,-1027
1610,18.548939,0,640,1472,-1,60,-1022
1611,18.560488,256,416,2016,-5,60,-1019
1612,18.572078,-768,592,1552,-5,61,-1022
1613,18.586352,-512,880,-1872,-8,61,-1022
1614,18.597939,-1024,848,1920,-1,63,-1019
1615,18.60955,0,960,1824,-1,58,-1025
1616,18.621128,0,496,1840,-3,60,-1015
1617,18.632699,-768,528,1472,-2,60,-1015
1618,18.644253,0,512,1968,-2,60,-1027
1619,18.655804,-512,448,-2048,-1,62,-1019
1620,18.667373,1,5,10,-4,61,-1024
1621,18.67892,-1024,944,-2048,-2,59,-1028
1622,18.690492,-512,672,1904,-2,59,-1013
1623,18.702033,1280,640,1648,-1,57,-1018
1624,18.713652,1024,416,2032,-2,64,-1022
1625,18.725293,256,880,-1616,0,59,-1019
1626,18.736935,256,544,1104,-3,60,-1024
1627,18.74859,0,704,1872,0,59,-1015
1628,18.760269,1024,688,1840,-3,58,-1016
1629,18.771946,-768,640,1616,1,58,-1019
1630,18.783622,-512,512,-2000,2,58,-1015
1631,18.795274,-512,528,1680,0,60,-1019
1632,18.806963,256,528,-1920,0,58,-1025
1633,18.818632,0,992,1440,-2,61,-1015
1634,18.830297,0,288,1312,0,62,-1022
1635,18.84189,0,128,1632,0,60,-1019
1636,18.853441,0,800,1744,0,60,-1023
1637,18.865009,-512,832,1760,-4,62,-1019
1638,18.876569,512,544,1760,-5,61,-1021
1639,18.888102,-512,848,1680,-1,60,-1021
1640,18.899618,-512,576,-1904,2,58,-1023
1641,18.911167,-512,528,1776,13,60,-1026
1642,18.922755,-512,352,1712,-4,61,-1017
1643,18.934367,0,432,1728,-1,60,-1023
1644,18.94604,3,6,8,0,59,-1013
1645,18.957695,1280,848,1552,-2,62,-1029
1646,18.969341,0,624,1616,-1,59,-1017
1647,18.981006,-512,1024,2032,-3,62,-1023
1648,18.992654,512,848,1600,-1,61,-1018
1649,19.004314,256,944,1872,-5,62,-1016
1650,19.015971,2,8,8,-5,61,-1026
1651,19.027625,-1024,816,2016,-1,58,-1016
1652,19.039173,1024,704,1360,1,58,-1014
1653,19.05074,0,1056,1840,-3,66,-1022
1654,19.06228,0,624,1696,2,61,-1015
1655,19.073828,0,880,1744,3,63,-1014
1656,19.085382,0,416,1920,-2,61,-1021
1657,19.096944,0,864,-1696,-5,63,-1015
1658,19.108496,256,560,-1536,-5,62,-1022
1659,19.120101,-512,1120,1280,-4,61,-1022
1660,19.131634,0,880,1776,-2,63,-1023
1661,19.143272,512,400,1792,-1,60,-1025
1662,19.154936,-768,880,-1984,-1,63,-1017
1663,19.166586,1,8,8,-2,61,-1021
1664,19.178259,-512,1360,-1376,1,64,-1028
1665,19.189923,0,832,-1408,-6,62,-1018
1666,19.201566,-768,1280,-1552,-6,63,-1019
1667,19.21322,-1024,912,-1744,-2,63,-1016
1668,19.224894,512,880,-1632,-7,60,-1021
1669,19.236592,3,7,10,5,60,-1022
1670,19.248272,-512,704,-1728,5,60,-1024
1671,19.259846,5,8,8,6,61,-1016
1672,19.271395,-512,512,-1616,0,60,-1014
1673,19.282938,-512,912,-2000,-5,61,-1022
1674,19.294481,0,480,1680,0,63,-1026
1675,19.306024,512,768,1936,-5,60,-1014
1676,19.317599,512,1136,1712,-6,59,-1016
1677,19.329148,-512,624,1600,2,59,-1021
1678,19.340738,512,544,-1936,0,58,-1018
1679,19.352398,256,592,-1744,6,59,-1016
1680,19.364071,256,1088,1520,0,56,-1020
1681,19.375748,-512,464,1760,0,63,-1019
1682,19.387446,-768,512,-2016,-3,59,-1018
1683,19.399091,0,800,1648,0,63,-1019
1684,19.410736,1024,768,1792,-3,61,-1017
1685,19.422378,3,7,9,0,62,-1028
1686,19.434024,-512,560,1440,-3,59,-1024
1687,19.445672,-512,576,1104,0,62,-1020
1688,19.457219,-512,544,1936,3,58,-1016
1689,19.468761,271,-48,2000,0,62,-1018
1690,19.480357,1024,784,1712,0,59,-1019
1691,19.491906,256,992,1920,-3,59,-1016
1692,19.503483,512,896,1568,4,59,-1018
1693,19.515023,1,6,8,3,61,-1016
1694,19.526558,1280,512,1680,-5,61,-1025
1695,19.538098,0,864,1248,-3,61,-1021
1696,19.549675,-512,1184,1616,-1,59,-1015
1697,19.561295,3,6,8,-1,61,-1023
1698,19.57292,256,896,1952,2,59,-1018
1699,19.584574,-768,704,1568,0,57,-1023
1700,19.59623,0,896,2000,1,60,-1022
1701,19.607886,1024,944,-2016,-2,61,-1021
1702,19.619539,512,752,1456,3,63,-1019
1703,19.631184,1024,688,1696,0,62,-1025
1704,19.642823,-512,240,1600,1,59,-1027
1705,19.654477,-512,384,2000,-1,60,-1021
1706,19.666162,4,5,9,4,61,-1015
1707,19.677759,-512,672,1520,0,62,-1017
1708,19.68933,0,400,-2000,2,59,-1020
1709,19.700881,0,592,1600,0,63,-1022
1710,19.712461,-512,416,1200,-1,62,-1025
1711,19.724017,1024,928,1392,0,59,-1019
1712,19.735563,-768,1280,-1824,2,60,-1020
1713,19.747127,0,512,1968,-1,61,-1020
1714,19.758687,256,576,-1888,-5,60,-1027
1715,19.770344,0,592,-2048,1,57,-1018
1716,19.782024,-768,976,1520,0,63,-1018
1717,19.793672,1,8,7,-1,56,-1021
1718,19.805324,256,416,1696,3,64,-1019
1719,19.817021,-768,880,1728,2,62,-1021
1720,19.828659,-512,1040,1760,3,60,-1024
1721,19.840325,-768,864,1568,1,63,-1020
1722,19.852016,0,848,1728,-3,61,-1024
1723,19.863691,0,832,1312,-4,63,-1021
1724,19.875351,256,1168,1488,-7,63,-1024
1725,19.886906,256,1008,-1968,-2,58,-1017
1726,19.898445,-768,576,-1728,0,62,-1019
1727,19.909988,-768,176,1920,0,60,-1022
1728,19.921553,0,432,1808,-1,57,-1016
1729,19.933102,512,464,1904,0,60,-1012
1730,19.944663,256,336,1424,0,62,-1016
1731,19.956222,256,576,1312,0,62,-1020
1732,19.967785,-512,592,1936,-3,57,-1022
1733,19.979418,0,528,976,-2,61,-1022
1734,19.991064,1,8,9,3,61,-1019
1735,20.002709,512,1072,1680,-3,61,-1026
1736,20.014351,2,5,10,3,61,-1022
1737,20.025997,-768,992,1168,-1,59,-1018
1738,20.037671,0,448,1552,0,60,-1022
1739,20.049315,0,624,1776,0,59,-1017
1740,20.060966,0,896,1744,0,63,-1023
1741,20.072673,256,624,1456,0,62,-1013
1742,20.084322,1024,496,1216,-3,61,-1016
1743,20.095863,0,880,976,-3,63,-1018
1744,20.10742,1,7,8,-3,60,-1018
1745,20.119014,-512,1328,1504,0,62,-1021
1746,20.130581,0,928,1488,-4,62,-1021
1747,20.142131,0,1088,1632,-1,61,-1026
1748,20.153674,512,688,1552,1,59,-1025
1749,20.165225,0,448,-1984,-2,59,-1024
1750,20.176814,-512,624,-1664,-3,61,-1030
1751,20.18844,-512,1072,1424,-3,63,-1015
1752,20.200138,256,496,1616,0,61,-1015
1753,20.211803,0,624,1152,0,64,-1015
1754,20.22346,256,784,1616,-1,61,-1019
1755,20.235155,0,800,1424,-3,56,-1018
1756,20.246814,-512,688,1616,-1,65,-1017
1757,20.258546,-768,592,1648,-3,58,-1022
1758,20.270211,0,1088,1136,-1,61,-1021
1759,20.281879,1,4,9,-3,62,-1016
1760,20.293493,-512,384,-1984,-2,62,-1024
1761,20.305099,0,848,1648,2,60,-1017
1762,20.316651,-512,960,-1968,-4,60,-1028
1763,20.32822,256,864,1824,1,58,-1025
1764,20.339778,512,400,1008,-2,59,-1025
1765,20.351333,0,352,1824,0,62,-1020
1766,20.362886,3,6,10,2,60,-1012
1767,20.374475,0,480,1360,-2,55,-1019
1768,20.386032,-512,1312,1584,-3,64,-1017
1769,20.397659,-512,496,-1840,-1,58,-1019
1770,20.409304,0,1040,1312,-1,57,-1014
1771,20.420953,-768,384,1760,-4,58,-1026
1772,20.43265,256,880,1360,-1,57,-1022
1773,20.444353,-1024,400,1344,0,65,-1014
1774,20.456178,0,720,1536,0,59,-1025
1775,20.467859,-512,288,-1936,5,60,-1018
1776,20.479521,0,928,1600,4,65,-1020
1777,20.491167,0,864,1760,0,62,-1025
1778,20.502713,512,160,1536,-2,59,-1024
1779,20.514302,3,5,10,2,64,-1019
1780,20.525862,512,944,1600,-1,59,-1017
1781,20.537408,-512,720,1920,0,57,-1019
1782,20.548981,1024,880,1680,1,57,-1018
1783,20.560521,-768,896,1840,0,60,-1021
1784,20.572093,-512,576,1392,-5,56,-1024
1785,20.583619,0,9,12,-7,59,-1016
1786,20.595175,-768,1088,2000,-1,62,-1021
1787,20.606834,0,656,1760,-1,63,-1019
1788,20.618508,1024,224,-1920,-2,63,-1018
1789,20.630202,2,8,9,0,61,-1016
1790,20.641872,-1536,288,1616,0,58,-1018
1791,20.653539,0,768,1472,-2,62,-1015
1792,20.665204,256,512,1296,0,63,-1024
1793,20.676902,-512,816,1840,-3,60,-1021
1794,20.688549,256,352,-2032,0,58,-1024
1795,20.700219,0,1136,1504,-2,62,-1014
1796,20.711895,256,976,1216,0,61,-1027
1797,20.723547,4,7,7,-2,58,-1019
1798,20.735194,-512,992,1680,0,59,-1015
1799,20.746833,0,896,1216,-2,60,-1021
1800,20.758477,256,240,1824,4,61,-1013
1801,20.770148,0,800,-1952,1,60,-1016
1802,20.781799,256,528,1536,0,62,-1023
1803,20.79344,-768,400,1408,1,61,-1024
1804,20.80517,512,272,1792,-7,59,-1020
1805,20.816821,-768,528,1952,-2,59,-1020
1806,20.828472,3,5,9,0,61,-1024
1807,20.84015,0,656,1872,-1,60,-1022
1808,20.851801,1024,560,1424,-1,62,-1022
1809,20.86345,0,608,1888,0,57,-1016
1810,20.875112,1280,784,1776,-2,59,-1020
1811,20.886781,256,816,-2016,-1,60,-1018
1812,20.898431,1,5,11,0,63,-1024
1813,20.910107,-512,736,1936,-3,56,-1018
1814,20.921775,3,6,10,-1,61,-1025
1815,20.933422,512,592,1840,1,62,-1027
1816,20.945085,1024,624,1776,0,60,-1028
1817,20.956733,256,816,1824,2,60,-1016
1818,20.968409,1024,704,-1824,3,57,-1023
1819,20.980059,-512,1152,1648,0,64,-1016
1820,20.991703,1,8,8,0,63,-1017
1821,21.003369,1280,800,1568,0,61,-1018
1822,21.015041,0,448,-1808,0,62,-1031
1823,21.026782,-768,1184,1264,-2,58,-1019
1824,21.038336,-512,1072,1984,2,62,-1023
1825,21.049884,0,800,1792,2,63,-1021
1826,21.061488,0,720,1936,-5,61,-1016
1827,21.07309,512,480,2032,-1,61,-1022
1828,21.084639,-512,1152,-2048,1,61,-1023
1829,21.096224,512,640,1744,-4,59,-1017
1830,21.107777,256,704,1184,-1,63,-1016
1831,21.119351,-512,416,1296,0,61,-1020
1832,21.130977,0,544,-2000,0,58,-1014
1833,21.142625,2,6,9,-2,65,-1022
1834,21.154305,256,448,-1424,-3,60,-1018
1835,21.165945,-1024,1328,2000,-3,58,-1023
1836,21.177591,0,720,1824,-1,59,-1020
1837,21.189278,3,5,10,-2,60,-1019
1838,21.200918,-1024,544,1792,-1,60,-1024
1839,21.212577,2,6,8,0,61,-1021
1840,21.224237,256,512,1744,-4,63,-1022
1841,21.235915,2,7,8,-1,60,-1022
1842,21.247486,512,1168,1408,-1,60,-1020
1843,21.259029,256,992,-1808,-2,61,-1024
1844,21.270581,-768,1184,-1968,0,59,-1020
1845,21.282239,0,1184,1600,-3,62,-1021
1846,21.293785,-768,880,1632,0,60,-1023
1847,21.305347,-1024,864,1616,-1,58,-1024
1848,21.316902,-768,624,816,-2,60,-1019
1849,21.328476,0,624,1792,0,57,-1018
1850,21.340138,512,912,1488,-5,63,-1020
1851,21.351798,-512,752,-1952,-4,62,-1017
1852,21.36345,256,1056,1568,-5,61,-1018
1853,21.375119,-768,432,1344,-2,58,-1021
1854,21.38677,4,7,9,0,60,-1021
1855,21.39844,1024,736,1648,-3,60,-1021
1856,21.410089,-1536,448,-1968,-2,61,-1017
1857,21.421735,1024,464,-2032,1,58,-1017
1858,21.433417,-512,6,10,0,61,-1019
1859,21.445085,-512,1056,1520,-1,61,-1010
1860,21.456645,0,480,1664,0,62,-1018
1861,21.468214,-1024,1088,1696,-2,60,-1022
1862,21.479772,-512,960,-1984,-1,63,-1016
1863,21.491337,-512,704,1664,0,60,-1020
1864,21.502886,-768,784,1568,3,63,-1021
1865,21.514473,-512,704,1536,0,60,-1021
1866,21.526022,0,576,2032,-2,61,-1024
1867,21.537614,-768,624,1632,1,61,-1019
1868,21.549242,512,944,1280,-3,57,-1015
1869,21.560917,0,704,-1776,1,58,-1021
1870,21.572576,256,592,1568,-2,58,-1019
1871,21.584272,256,256,1856,-2,60,-1016
1872,21.595885,512,768,1808,2,62,-1021
1873,21.607536,256,720,1824,0,61,-1025
1874,21.619187,-512,816,1424,-2,57,-1018
1875,21.630839,512,672,1408,0,65,-1024
1876,21.64251,0,656,1536,-2,62,-1022
1877,21.654175,-512,928,1632,-3,60,-1024
1878,21.665725,3,4,8,3,61,-1022
1879,21.677271,0,928,2016,-1,60,-1019
1880,21.688852,-512,544,1680,-2,62,-1019
1881,21.700404,-512,832,1088,-1,60,-1017
1882,21.711986,1024,720,1792,-3,60,-1018
1883,21.723551,512,448,1840,0,64,-1018
1884,21.735111,-1024,944,1760,-2,63,-1019
1885,21.746669,1024,336,1552,-6,59,-1021
1886,21.758292,-768,912,-1840,0,61,-1019
1887,21.769968,-512,816,1520,0,64,-1018
1888,21.781616,1280,768,1648,-1,62,-1018
1889,21.793272,0,416,1056,0,59,-1019
1890,21.804923,512,656,1840,1,66,-1017
1891,21.81657,1280,592,1696,0,62,-1021
1892,21.828215,512,704,1616,-1,59,-1022
1893,21.839896,3,8,9,-1,60,-1024
1894,21.851554,0,784,1520,-1,61,-1023
1895,21.863213,256,784,1424,-1,60,-1016
1896,21.874765,-1536,432,1392,2,61,-1017
1897,21.886343,256,592,1968,-2,58,-1019
1898,21.897881,-512,928,-2016,-3,59,-1018
1899,21.909413,0,1120,2032,0,62,-1016
1900,21.920985,2,8,11,2,63,-1026
1901,21.932537,256,784,1392,1,63,-1023
1902,21.944098,512,608,1808,-2,59,-1020
1903,21.955635,512,992,1344,4,61,-1020
1904,21.967276,-512,592,1680,-1,62,-1022
1905,21.978918,1024,1152,1600,0,62,-1016
1906,21.990565,1024,528,1696,0,60,-1022
1907,22.002237,-2048,1216,1712,-3,59,-1020
1908,22.013902,-512,1136,1408,0,64,-1016
1909,22.02555,0,288,1360,-5,56,-1019
1910,22.037201,0,912,-1888,-3,59,-1019
1911,22.048869,256,640,1488,0,58,-1023
1912,22.060548,0,1152,1968,-1,61,-1021
1913,22.072209,0,784,1264,-4,58,-1019
1914,22.083783,4,8,9,-2,57,-1024
1915,22.09535,0,224,1504,-6,61,-1020
1916,22.106904,-512,272,1696,-5,61,-1014
1917,22.11847,256,736,-1936,-2,62,-1021
1918,22.130014,0,784,1984,-5,61,-1017
1919,22.141584,-512,976,1376,-3,56,-1021
1920,22.15313,0,912,1776,-2,61,-1016
1921,22.164711,256,912,1456,-3,61,-1023
1922,22.176348,256,784,2016,1,59,-1019
1923,22.188022,0,496,-1760,1,60,-1024
1924,22.199703,256,688,1552,-1,58,-1017
1925,22.21135,0,368,-1888,-1,58,-1019
1926,22.223,0,848,1296,1,61,-1017
1927,22.234647,-512,528,1824,0,60,-1017
1928,22.246294,256,544,1728,1,62,-1019
1929,22.257939,3,6,8,-6,62,-1022
1930,22.269591,-512,576,2000,-2,62,-1016
1931,22.28125,-768,848,1952,0,58,-1023
1932,22.292844,-512,960,-1904,0,63,-1016
1933,22.304487,0,800,1424,0,59,-1025
1934,22.316094,0,480,1520,0,60,-1018
1935,22.32762,0,576,1312,0,58,-1017
1936,22.339169,0,496,-1728,0,60,-1022
1937,22.350726,0,1184,-1904,0,61,-1019
1938,22.362285,1,8,8,0,57,-1023
1939,22.373908,0,512,1376,-1,60,-1030
1940,22.385535,-512,656,1728,-3,57,-1023
1941,22.397192,512,224,-1744,0,64,-1025
1942,22.408866,-512,672,1568,-2,59,-1022
1943,22.420537,-512,912,-2000,-3,62,-1024
1944,22.432194,4,8,8,-4,58,-1018
1945,22.443889,-1024,416,1536,-1,60,-1015
1946,22.455541,2,6,11,-3,61,-1021
1947,22.467189,-512,896,1536,-3,60,-1020
1948,22.478858,0,992,1440,-3,58,-1021
1949,22.490562,-768,752,1632,-4,58,-1021
1950,22.502204,0,464,1584,-3,57,-1016
1951,22.513901,0,960,1648,0,63,-1028
1952,22.525558,256,352,-1888,0,53,-1023
1953,22.537209,1280,256,1888,-1,58,-1018
1954,22.548908,256,656,1952,-2,62,-1019
1955,22.56057,-1024,368,-1632,-3,60,-1021
1956,22.572213,256,592,1680,0,65,-1021
1957,22.583957,256,576,1504,0,59,-1021
1958,22.595625,256,704,1824,1,61,-1018
1959,22.607213,-512,880,1504,1,61,-1021
1960,22.618752,256,1008,1808,-1,61,-1023
1961,22.630305,256,704,1872,0,61,-1019
1962,22.641848,0,1200,1280,0,62,-1025
1963,22.65339,512,736,1872,0,58,-1021
1964,22.664944,256,480,1840,-1,60,-1018
1965,22.676492,3,6,10,-2,61,-1019
1966,22.688109,0,752,1280,0,60,-1022
1967,22.699776,512,880,1264,-4,63,-1025
1968,22.711427,256,896,-2016,-1,62,-1017
1969,22.723072,-512,1008,1808,-4,56,-1016
1970,22.734718,0,816,2016,-1,61,-1022
1971,22.74636,256,848,1440,0,57,-1015
1972,22.75802,0,960,1664,0,60,-1023
1973,22.769669,-768,688,-1952,-2,57,-1019
1974,22.781336,512,864,1552,0,61,-1024
1975,22.793014,1024,592,1360,-1,58,-1029
1976,22.804662,0,784,-1632,-3,62,-1019
1977,22.816247,512,640,1952,-1,60,-1013
1978,22.827847,0,352,-1856,-1,58,-1017
1979,22.839414,512,688,1920,0,58,-1016
1980,22.850994,0,544,-1968,-4,60,-1022
1981,22.862555,1024,752,1824,-3,63,-1012
1982,22.8741,0,528,1760,0,60,-1022
1983,22.885661,256,512,1376,1,59,-1021
1984,22.897223,3,6,7,0,59,-1025
1985,22.908861,1024,880,-1936,0,62,-1015
1986,22.920535,0,832,1168,2,63,-1017
1987,22.932195,256,512,2016,-3,62,-1024
1988,22.943882,-512,272,1568,-2,57,-1013
1989,22.955531,256,768,1760,2,58,-1020
1990,22.967181,-512,752,1664,0,59,-1019
1991,22.97883,0,352,2016,-2,56,-1019
1992,22.990468,2,5,7,-1,58,-1019
1993,23.002148,0,768,-1856,-1,62,-1024
1994,23.013798,-768,368,-2000,-1,59,-1023
1995,23.025354,256,544,1200,3,62,-1019
1996,23.036897,1024,848,-2016,2,60,-1025
1997,23.048462,0,48,1472,3,62,-1016
1998,23.060034,1280,528,1472,-1,62,-1021
1999,23.071613,256,656,1968,0,59,-1013
