sample,t_s,gyro_x,gyro_y,gyro_z,accel_x,accel_y,accel_z
0,1.5e-05,527,-307,625,1020,-1,-1529
1,0.011242,1039,333,769,1020,2,-1529
2,0.022431,-497,-115,641,1018,0,-1531
3,0.033617,-497,125,897,1018,0,-1532
4,0.044809,1039,-291,1137,1022,-1,-1533
5,0.055993,15,141,-2783,1019,0,-1535
6,0.067179,271,-35,801,1021,0,-1531
7,0.078366,527,493,897,1021,0,-1525
8,0.08955,527,109,881,1022,-1,-1528
9,0.100718,-1009,-195,-2815,1019,0,-1531
10,0.111898,1295,45,705,1018,-4,-1532
11,0.123083,271,237,-2799,1017,2,-1532
12,0.134287,15,285,753,1020,-2,-1528
13,0.14547,15,45,737,1020,-1,-1530
14,0.156654,-497,-179,-2831,1019,0,-1526
15,0.167838,-497,141,689,1020,0,-1525
16,0.179017,15,365,-2015,1018,1,-1526
17,0.190201,271,-51,929,1022,-1,-1530
18,0.201411,271,13,913,1020,0,-1528
19,0.212596,1039,-163,1169,1017,-2,-1531
20,0.223774,-753,461,337,1020,-3,-1536
21,0.234954,15,-211,1009,1016,0,-1525
22,0.246134,271,477,369,1020,1,-1538
23,0.257319,271,397,945,1020,0,-1530
24,0.268503,-753,157,705,1020,-2,-1526
25,0.27969,15,29,1201,1018,0,-1531
26,0.290871,20,-668,-807,1015,4,-1533
27,0.302057,15,269,1121,1016,-2,-1529
28,0.313245,15,-35,1089,1020,0,-1534
29,0.324434,-753,429,1169,1021,0,-1528
30,0.335616,1039,413,897,1024,-1,-1529
31,0.346803,-497,205,1089,1020,-1,-1533
32,0.357984,527,29,1169,1019,3,-1529
33,0.369174,15,205,977,1020,0,-1533
34,0.380349,15,-163,769,1020,0,-1528
35,0.391528,1039,45,1073,1018,0,-1536
36,0.40271,15,-227,-2847,1014,0,-1531
37,0.413894,15,-275,-2847,1018,-3,-1531
38,0.425084,1039,237,737,1021,0,-1532
39,0.436266,1039,557,753,1022,-2,-1536
40,0.447447,527,349,977,1020,2,-1529
41,0.45863,1295,-67,1009,1016,1,-1529
42,0.469813,1295,205,849,1021,-2,-1525
43,0.481012,1039,-243,689,1020,-3,-1527
44,0.492194,15,413,577,1018,2,-1529
45,0.503374,15,557,769,1019,-3,-1529
46,0.514558,18,-668,-803,1016,1,-1526
47,0.525738,271,285,705,1019,-3,-1526
48,0.536901,-497,-307,1217,1018,-1,-1530
49,0.548082,527,-131,833,1016,-4,-1530
50,0.559263,-497,157,865,1020,-1,-1534
51,0.570445,-497,-451,1009,1019,2,-1533
52,0.581631,527,-163,545,1020,2,-1531
53,0.592826,527,493,657,1018,0,-1531
54,0.604005,527,-35,-808,1015,-1,-1531
55,0.615185,15,397,817,1022,0,-1530
56,0.626377,-497,109,945,1020,3,-1531
57,0.637559,15,365,1153,1020,-1,-1534
58,0.648718,-753,-3,689,1020,-1,-1533
59,0.659898,1295,-323,-2655,1022,-1,-1529
60,0.671079,1295,-211,593,1020,-2,-1530
61,0.682261,1039,-67,1153,1019,0,-1523
62,0.693454,15,-35,481,1020,4,-1534
63,0.704645,15,45,1057,1016,0,-1532
64,0.715824,1039,77,1153,1021,-2,-1535
65,0.727007,1039,-179,737,1019,-2,-1530
66,0.738191,-1009,45,1169,1018,-2,-1533
67,0.749379,-1009,-355,305,1016,-3,-1531
68,0.760533,19,-666,-807,1022,0,-1537
69,0.771712,-753,-67,785,1020,0,-1529
70,0.782893,-497,381,-2719,1020,1,-1532
71,0.794074,1039,269,1073,1020,0,-1528
72,0.805267,15,365,625,1016,0,-1533
73,0.816456,1039,109,-2783,1019,0,-1531
74,0.827636,1039,93,1041,1019,-1,-1532
75,0.838818,1039,237,-2783,1018,0,-1531
76,0.850005,17,-672,-806,1020,-4,-1531
77,0.861203,1039,173,-2863,1019,-3,-1527
78,0.872349,-497,-179,577,1019,0,-1530
79,0.88353,-497,93,-2751,1021,-1,-1532
80,0.894709,16,-669,-807,1020,0,-1534
81,0.905888,1039,269,1025,1017,-3,-1538
82,0.917079,1039,93,337,1021,-2,-1534
83,0.928263,15,-99,-2623,1019,5,-1534
84,0.939445,-497,-3,1137,1020,-1,-1530
85,0.950625,527,-211,849,1015,-4,-1530
86,0.961813,1807,-99,209,1018,1,-1524
87,0.973006,1039,173,481,1021,-1,-1537
88,0.984189,-753,-99,753,1022,-2,-1526
89,0.995375,-497,349,545,1018,1,-1538
90,1.006559,18,-669,-805,1019,-4,-1523
91,1.01775,527,189,593,1020,0,-1534
92,1.028903,271,-115,-2863,1021,2,-1528
93,1.040086,15,-35,273,1014,1,-1528
94,1.051268,-497,-227,801,1019,2,-1532
95,1.062447,271,141,993,1018,1,-1534
96,1.07363,1039,-67,913,1021,2,-1533
97,1.084823,15,-211,-2671,1020,-1,-1533
98,1.096003,17,-671,-805,1019,0,-1529
99,1.107185,1039,-51,321,1023,0,-1531
100,1.118375,-993,-691,-2623,1018,-1,-1532
101,1.129557,18,-670,-807,1018,-3,-1534
102,1.14072,1054,-1011,529,1018,-4,-1534
103,1.151906,-497,301,1089,1019,2,-1529
104,1.163089,17,-671,-806,1021,2,-1527
105,1.174273,-497,-323,193,1018,-3,-1533
106,1.185455,271,509,-1695,1017,-1,-1535
107,1.196646,1039,-3,529,1019,3,-1529
108,1.207829,-753,349,897,1020,0,-1524
109,1.219013,18,-671,-806,1022,-3,-1523
110,1.230193,-497,317,-2863,1021,-1,-1537
111,1.241383,527,-499,897,1017,-2,-1529
112,1.252534,15,-243,-2719,1019,0,-1528
113,1.263741,271,349,865,1016,-2,-1533
114,1.274924,15,189,641,1023,0,-1536
115,1.286108,15,381,993,1020,0,-1526
116,1.297271,527,-195,593,1018,0,-1527
117,1.308459,1039,-259,961,1021,0,-1529
118,1.319641,271,-115,897,1020,-1,-1532
119,1.330822,15,45,-2399,1016,0,-1531
120,1.342004,15,-163,465,1016,0,-1527
121,1.353196,-1009,-19,321,1020,0,-1528
122,1.36435,-497,-147,929,1020,-3,-1532
123,1.375533,271,189,465,1022,1,-1524
124,1.386714,527,125,641,1019,-3,-1532
125,1.397896,1039,109,-2303,1016,0,-1530
126,1.409085,-497,61,-2783,1017,1,-1528
127,1.420267,15,-51,721,1021,3,-1534
128,1.431448,-753,-51,1089,1020,0,-1533
129,1.442632,271,349,833,1021,-2,-1531
130,1.453814,18,-671,-806,1022,-2,-1527
131,1.465009,527,-51,353,1019,1,-1537
132,1.476191,1295,-195,961,1018,-4,-1532
133,1.487372,527,93,689,1020,-4,-1530
134,1.498555,-497,285,-2863,1020,-1,-1537
135,1.509741,17,-669,-804,1020,1,-1536
136,1.520915,271,-323,-2847,1016,1,-1525
137,1.532109,1039,-243,961,1020,1,-1536
138,1.543293,527,29,-2255,1019,-1,-1539
139,1.554476,1039,-147,433,1022,3,-1530
140,1.565661,19,-668,-805,1018,-1,-1529
141,1.576844,271,-163,465,1022,0,-1530
142,1.588023,15,-179,273,1019,0,-1526
143,1.599205,-497,397,993,1020,-3,-1531
144,1.610385,-497,989,1057,1017,3,-1529
145,1.621567,17,-669,-808,1019,0,-1529
146,1.632719,-497,45,1073,1021,0,-1532
147,1.6439,-497,349,849,1020,0,-1529
148,1.65508,-753,-99,897,1020,0,-1527
149,1.666279,271,253,657,1018,0,-1532
150,1.677461,527,-179,-2767,1020,-1,-1525
151,1.688647,15,-467,849,1019,1,-1533
152,1.699829,18,-670,-805,1020,0,-1527
153,1.711009,-497,253,1153,1016,0,-1528
154,1.722191,15,221,1041,1020,-1,-1530
155,1.733381,15,-99,625,1013,0,-1532
156,1.744534,271,381,1185,1019,-2,-1527
157,1.755717,15,77,465,1021,0,-1523
158,1.766897,15,285,-2719,1019,1,-1526
159,1.778076,271,285,561,1017,0,-1529
160,1.789284,271,-483,1153,1017,1,-1531
161,1.800474,271,765,801,1019,0,-1530
162,1.811657,15,61,-2703,1022,0,-1536
163,1.822836,15,173,945,1018,0,-1529
164,1.834017,1039,93,801,1013,-1,-1532
165,1.845202,15,-307,1201,1019,-3,-1527
166,1.856349,17,-670,-806,1022,2,-1536
167,1.867532,15,173,-2783,1020,0,-1533
168,1.878734,527,-83,865,1019,-1,-1537
169,1.889917,527,-3,1217,1020,-2,-1532
170,1.901086,15,-387,1105,1022,0,-1533
171,1.912267,527,77,-2799,1018,0,-1530
172,1.923449,1039,-387,97,1019,2,-1533
173,1.93463,-497,-99,545,1019,1,-1535
174,1.945813,-1009,-99,833,1019,0,-1531
175,1.957014,1039,365,977,1017,2,-1529
176,1.9682,1039,-275,1137,1019,4,-1527
177,1.979381,-497,-307,113,1018,-3,-1533
178,1.990563,-1009,93,945,1020,0,-1536
179,2.001746,1039,157,705,1019,-1,-1525
180,2.012901,15,269,1153,1017,1,-1524
181,2.024084,527,445,-2799,1017,0,-1533
182,2.035265,-753,397,593,1021,0,-1532
183,2.046443,1295,173,465,1021,1,-1534
184,2.057639,15,-387,721,1020,2,-1531
185,2.068829,1039,685,321,1020,0,-1530
186,2.080012,271,-355,817,1016,-3,-1533
187,2.091203,15,13,1185,1019,1,-1521
188,2.102386,527,-67,1169,1018,-1,-1530
189,2.113567,15,77,1153,1018,0,-1529
190,2.124719,15,189,721,1015,5,-1531
191,2.135902,527,461,657,1019,-2,-1533
192,2.147085,1039,381,-2831,1019,2,-1525
193,2.15828,271,125,593,1015,0,-1530
194,2.169464,527,589,241,1019,2,-1532
195,2.180659,15,-83,785,1020,-2,-1531
196,2.19184,271,-51,705,1020,0,-1532
197,2.203025,15,-19,801,1020,0,-1532
198,2.21421,271,125,961,1019,-2,-1533
199,2.225409,527,-51,1025,1016,2,-1531
200,2.236607,271,157,1217,1018,-4,-1533
201,2.247798,527,429,1169,1020,0,-1530
202,2.258984,15,189,193,1020,-1,-1529
203,2.270175,1295,205,305,1019,1,-1532
204,2.281362,527,-147,1201,1020,2,-1527
205,2.292536,1039,301,945,1018,0,-1530
206,2.30372,-497,509,1121,1018,5,-1531
207,2.314906,527,-67,481,1020,0,-1532
208,2.326092,15,-19,593,1017,-2,-1536
209,2.337271,15,301,-2751,1017,-2,-1532
210,2.348461,-497,13,97,1019,-2,-1531
211,2.359643,-497,253,1105,1019,0,-1530
212,2.370822,1039,381,785,1020,-1,-1530
213,2.382004,271,-3,865,1020,1,-1535
214,2.393198,1039,-515,369,1020,0,-1531
215,2.404349,1039,-3,817,1017,2,-1534
216,2.415533,271,-531,881,1017,-1,-1530
217,2.42672,-753,173,913,1019,1,-1532
218,2.437903,271,45,593,1021,-2,-1535
219,2.449088,1039,173,-2655,1016,2,-1535
220,2.460268,-497,-387,1185,1017,-2,-1530
221,2.471448,-497,397,673,1019,-2,-1534
222,2.48263,1039,413,785,1019,0,-1530
223,2.49381,527,189,577,1018,5,-1533
224,2.504995,-497,-35,705,1020,-1,-1535
225,2.516179,1039,685,897,1013,0,-1532
226,2.52736,1039,157,-2815,1018,0,-1533
227,2.538544,15,13,817,1024,0,-1531
228,2.549727,1039,109,801,1020,-3,-1534
229,2.560903,-753,189,1153,1019,-1,-1529
230,2.572088,1039,381,753,1020,1,-1530
231,2.58328,527,301,1121,1018,0,-1535
232,2.594467,15,-371,753,1018,-3,-1529
233,2.605668,15,29,-2607,1018,0,-1533
234,2.616851,271,-51,145,1016,1,-1521
235,2.628038,-1009,61,1105,1020,0,-1531
236,2.63922,15,253,449,1020,-1,-1535
237,2.650407,527,-131,737,1020,0,-1533
238,2.661587,15,237,-2655,1016,0,-1533
239,2.672771,271,-243,961,1022,-2,-1528
240,2.683952,15,157,977,1019,0,-1526
241,2.695135,271,-387,529,1018,1,-1525
242,2.706285,15,381,-2735,1021,-3,-1530
243,2.717468,271,541,641,1018,-1,-1532
244,2.728656,527,93,1025,1016,-1,-1534
245,2.739839,527,237,337,1020,0,-1529
246,2.751022,527,381,769,1019,-3,-1533
247,2.762204,271,125,-2719,1021,1,-1528
248,2.773392,15,-83,385,1018,0,-1536
249,2.784535,1039,-339,1073,1019,0,-1528
250,2.79572,15,-179,881,1018,5,-1533
251,2.806906,-497,-179,481,1017,1,-1533
252,2.818092,286,-771,65,1022,1,-1536
253,2.829272,527,445,-2671,1022,0,-1534
254,2.840462,-497,237,-2815,1020,-1,-1528
255,2.851645,271,157,-2655,1021,0,-1536
256,2.862825,-497,-99,673,1023,1,-1530
257,2.874018,-497,-35,593,1020,3,-1536
258,2.885209,-753,317,593,1017,3,-1530
259,2.89635,15,-467,673,1016,0,-1532
260,2.907535,17,-666,-807,1022,2,-1536
261,2.918723,15,-211,657,1020,-2,-1531
262,2.929909,15,-3,1089,1019,0,-1532
263,2.941099,-497,477,-2863,1019,0,-1529
264,2.952284,271,77,977,1022,-1,-1527
265,2.963468,15,333,465,1017,1,-1528
266,2.974656,527,-99,49,1022,1,-1532
267,2.985839,527,301,1217,1005,-3,-1537
268,2.997025,1039,397,881,1020,-2,-1525
269,3.008209,15,-35,-2863,1021,-2,-1532
270,3.019391,-753,-83,401,1020,4,-1529
271,3.030573,271,29,-2271,1020,1,-1537
272,3.041755,-753,-372,1105,1016,-1,-1533
273,3.052903,15,589,577,1020,4,-1534
274,3.064089,527,93,833,1020,1,-1533
275,3.075273,271,-307,865,1020,-3,-1529
276,3.086458,-753,173,577,1019,0,-1525
277,3.097652,-753,141,993,1019,0,-1528
278,3.108838,527,-227,-2735,1015,2,-1524
279,3.120022,271,45,945,1018,1,-1529
280,3.131218,271,173,705,1020,0,-1530
281,3.142418,15,125,-2767,1020,1,-1534
282,3.153609,1039,813,593,1016,-1,-1528
283,3.164796,271,29,801,1021,1,-1533
284,3.175983,271,-131,753,1021,0,-1530
285,3.187168,17,-670,-806,1020,2,-1527
286,3.198359,15,189,481,1019,0,-1531
287,3.209553,271,429,705,1014,-1,-1531
288,3.220722,15,45,1121,1017,-4,-1521
289,3.231919,15,-483,1041,1017,-2,-1533
290,3.243122,-497,-131,897,1020,0,-1527
291,3.254327,-497,-211,321,1020,-2,-1527
292,3.265534,15,93,1073,1020,4,-1534
293,3.276722,-497,-211,705,1017,1,-1532
294,3.287917,1039,573,433,1023,-1,-1535
295,3.299129,271,685,577,1017,-1,-1529
296,3.310318,15,-211,1217,1020,-7,-1532
297,3.321512,-497,-3,753,1017,0,-1524
298,3.332722,-753,381,-2655,1021,0,-1530
299,3.343918,15,189,865,1018,-2,-1531
300,3.355107,-753,45,-2111,1018,-3,-1537
301,3.366295,-753,77,1089,1016,-4,-1534
302,3.377475,1039,-451,721,1021,-1,-1528
303,3.388666,15,29,689,1022,0,-1535
304,3.399852,1039,-339,897,1020,2,-1526
305,3.411035,-753,893,-815,1020,3,-1529
306,3.422225,527,189,-2655,1021,0,-1536
307,3.433409,18,-669,-807,1016,-1,-1531
308,3.444601,271,189,945,1016,-2,-1530
309,3.455787,1295,237,897,1020,4,-1533
310,3.46697,-497,-51,993,1020,0,-1527
311,3.478154,1039,13,417,1020,-1,-1528
312,3.489341,16,-668,-807,1020,1,-1536
313,3.500536,271,-435,673,1020,0,-1529
314,3.511721,-497,285,977,1020,-1,-1528
315,3.522907,1039,-227,609,1017,1,-1528
316,3.534096,271,61,-2735,1020,0,-1530
317,3.545277,19,-668,-806,1018,0,-1532
318,3.55648,-497,-371,1121,1020,1,-1528
319,3.567672,15,221,-591,1021,-2,-1529
320,3.578855,18,-669,-804,1018,1,-1531
321,3.590045,15,605,497,1017,0,-1533
322,3.601232,271,253,609,1021,-4,-1527
323,3.612421,15,-131,1201,1015,1,-1527
324,3.623607,15,189,929,1015,0,-1529
325,3.63479,1295,-275,753,1018,0,-1532
326,3.645974,1039,333,273,1018,0,-1531
327,3.657173,271,253,977,1016,1,-1529
328,3.668349,527,13,-2607,1017,-1,-1537
329,3.679532,-497,-83,1025,1018,-1,-1526
330,3.690719,15,429,897,1018,0,-1528
331,3.701904,527,157,961,1018,0,-1528
332,3.71309,16,-669,-807,1018,0,-1537
333,3.724273,15,-243,145,1020,2,-1532
334,3.735456,-497,-227,-2559,1020,0,-1530
335,3.746642,-497,-371,1057,1016,1,-1531
336,3.757823,271,-435,-2863,1022,0,-1535
337,3.769014,17,-669,-806,1022,0,-1527
338,3.780213,-497,237,-287,1016,0,-1530
339,3.7914,15,-35,689,1018,-3,-1529
340,3.802586,-753,-35,1185,1019,-3,-1532
341,3.81377,286,-723,769,1021,1,-1532
342,3.82496,15,125,961,1019,-2,-1527
343,3.836143,271,365,433,1020,4,-1534
344,3.847329,271,253,657,1020,-3,-1529
345,3.858518,-1009,-243,881,1021,1,-1540
346,3.8697,-497,-291,-2815,1020,2,-1527
347,3.880899,1039,541,-2767,1018,0,-1532
348,3.892084,271,237,721,1018,0,-1524
349,3.903268,-497,253,-2719,1021,0,-1528
350,3.91445,20,-669,-805,1020,1,-1524
351,3.925635,-1009,381,673,1017,0,-1536
352,3.936831,-497,13,865,1020,-1,-1531
353,3.948016,527,573,929,1020,0,-1528
354,3.959199,271,-83,-2719,1016,2,-1537
355,3.97038,17,-668,-806,1018,-1,-1534
356,3.981572,527,-147,-2399,1020,-2,-1535
357,3.99319,15,-115,721,1015,-3,-1529
358,4.004909,527,637,545,1020,0,-1532
359,4.016595,-497,349,705,1019,4,-1531
360,4.028259,17,-669,-808,1017,0,-1534
361,4.039896,15,29,-2543,1019,0,-1528
362,4.05161,15,-19,945,1022,-1,-1532
363,4.063295,15,13,1073,1019,0,-1533
364,4.074983,16,-668,-806,1021,-1,-1529
365,4.086656,1039,109,769,1021,-1,-1535
366,4.098304,15,189,-2703,1016,0,-1537
367,4.109958,271,429,1073,1017,0,-1528
368,4.121629,-1009,189,1057,1020,1,-1535
369,4.133292,271,205,945,1019,0,-1534
370,4.144912,271,77,369,1016,2,-1530
371,4.156565,15,269,-2671,1016,0,-1530
372,4.168228,527,-259,449,1018,0,-1519
373,4.179881,527,541,-2831,1018,3,-1533
374,4.191607,527,-115,-2799,1022,-2,-1531
375,4.203232,15,173,369,1017,-1,-1533
376,4.214793,15,93,385,1020,0,-1527
377,4.226358,18,-669,-807,1019,2,-1531
378,4.237933,-497,477,561,1020,0,-1533
379,4.24951,-753,45,913,1020,0,-1527
380,4.261105,1039,-259,481,1020,2,-1526
381,4.27269,18,-668,-805,1020,1,-1528
382,4.284233,15,-259,625,1020,1,-1521
383,4.295825,15,-419,993,1019,-2,-1532
384,4.307369,271,205,689,1020,0,-1533
385,4.318921,271,29,641,1017,-2,-1535
386,4.330467,1807,-195,849,1018,0,-1529
387,4.342013,527,29,801,1021,-2,-1530
388,4.353586,17,-669,-807,1022,0,-1533
389,4.365187,15,-83,961,1019,1,-1527
390,4.376754,15,141,705,1021,-2,-1523
391,4.388372,-497,525,945,1019,0,-1533
392,4.39993,527,157,1089,1020,0,-1532
393,4.411607,15,29,641,1020,-1,-1534
394,4.423268,271,-3,1057,1017,3,-1523
395,4.434914,1039,253,801,1021,0,-1530
396,4.446567,527,173,545,1019,0,-1538
397,4.458244,1039,29,1009,1018,-3,-1529
398,4.469927,15,61,-2719,1018,-2,-1532
399,4.481608,15,205,817,1020,-1,-1534
400,4.493329,-1009,-35,1185,1017,0,-1524
401,4.504999,-1009,-163,849,1020,-3,-1532
402,4.516571,-497,141,849,1020,0,-1530
403,4.528111,19,-668,-808,1020,2,-1528
404,4.539656,15,29,577,1020,4,-1527
405,4.5512,18,-667,-805,1020,-2,-1528
406,4.562762,1039,93,-2863,1021,4,-1529
407,4.574312,-1009,-83,1057,1019,-1,-1529
408,4.58587,527,45,1185,1019,0,-1536
409,4.597436,527,-387,881,1020,0,-1534
410,4.609018,15,-243,1089,1019,-3,-1531
411,4.620658,-497,301,961,1014,0,-1527
412,4.632322,20,-668,-807,1017,0,-1533
413,4.643975,271,-179,1137,1017,-2,-1528
414,4.655626,-497,685,641,1021,4,-1533
415,4.667276,15,-83,-2863,1016,1,-1526
416,4.678952,-497,-99,385,1019,1,-1533
417,4.690612,271,397,993,1018,0,-1532
418,4.702297,18,-668,-806,1020,-3,-1531
419,4.713966,527,189,881,1016,1,-1532
420,4.725619,527,109,977,1020,0,-1533
421,4.737179,-497,-307,1153,1016,1,-1533
422,4.748746,1039,-291,977,1021,0,-1528
423,4.76032,-753,157,1073,1016,-3,-1528
424,4.771899,1039,-115,977,1019,0,-1531
425,4.783448,17,-668,-804,1020,-4,-1529
426,4.794995,15,-19,641,1016,1,-1531
427,4.806572,15,157,993,1017,1,-1534
428,4.81819,15,333,817,1024,1,-1524
429,4.82985,15,141,353,1020,3,-1532
430,4.841504,15,-3,801,1019,-4,-1527
431,4.853183,527,301,657,1020,1,-1528
432,4.864854,1039,429,545,1020,-1,-1528
433,4.876526,15,61,865,1020,0,-1531
434,4.888208,1039,-51,-2575,1019,-1,-1530
435,4.899856,1039,365,673,1016,1,-1528
436,4.911518,271,-307,753,1020,1,-1525
437,4.923171,271,173,1009,1019,-2,-1529
438,4.934729,271,-51,753,1018,0,-1526
439,4.946295,15,205,753,1020,1,-1527
440,4.957848,1039,-99,1169,1022,1,-1534
441,4.969472,1295,-35,433,1020,0,-1535
442,4.981057,-497,-163,673,1020,0,-1538
443,4.992623,527,45,417,1016,0,-1528
444,5.004169,17,-669,-809,1022,0,-1531
445,5.015717,-497,-115,993,1020,2,-1533
446,5.02742,527,125,785,1020,0,-1533
447,5.039097,1039,637,849,1020,-1,-1528
448,5.050745,1039,221,865,1017,-1,-1531
449,5.062393,15,45,-2239,1020,3,-1530
450,5.07405,19,-668,-805,1019,0,-1536
451,5.085702,-753,173,-2863,1019,0,-1530
452,5.097354,17,-667,-805,1022,0,-1530
453,5.109034,527,-131,1073,1020,1,-1527
454,5.12076,-497,-195,577,1019,0,-1530
455,5.132464,15,461,1169,1020,0,-1525
456,5.14416,15,-51,1121,1016,0,-1537
457,5.155849,15,317,-2815,1018,-1,-1525
458,5.167505,18,-667,-807,1019,-2,-1533
459,5.179159,527,-147,-2799,1020,3,-1535
460,5.190832,18,-668,-805,1018,0,-1535
461,5.202512,527,-3,993,1020,0,-1526
462,5.214159,1039,173,881,1021,-3,-1521
463,5.225849,15,141,977,1020,2,-1524
464,5.23755,15,-19,1169,1019,-1,-1535
465,5.249109,-1009,157,1089,1015,0,-1530
466,5.260689,-497,-147,-2799,1021,1,-1527
467,5.272245,527,269,1201,1017,0,-1527
468,5.283811,-753,-371,833,1016,0,-1532
469,5.29535,15,509,-2719,1014,1,-1532
470,5.306894,18,-671,-805,1020,0,-1536
471,5.318446,15,349,849,1021,-2,-1532
472,5.330005,-497,77,-2607,1020,-5,-1533
473,5.341603,-497,-179,801,1018,-1,-1532
474,5.35318,1039,45,737,1018,-4,-1527
475,5.364751,271,157,865,1020,0,-1533
476,5.376312,271,-99,1009,1018,0,-1531
477,5.387853,18,-669,-805,1018,0,-1533
478,5.3994,15,13,881,1019,0,-1531
479,5.410949,15,-403,1217,1019,-4,-1531
480,5.422518,527,-355,865,1021,-2,-1532
481,5.434151,-497,-211,1137,1018,-1,-1532
482,5.445876,271,-211,1041,1019,-1,-1530
483,5.457566,1039,-115,-2607,1016,-3,-1523
484,5.469247,1295,301,881,1016,4,-1530
485,5.48091,20,-669,-806,1023,-3,-1523
486,5.492613,1039,-163,-2511,1020,0,-1531
487,5.504273,15,-668,-805,1020,2,-1527
488,5.515929,15,269,1217,1020,0,-1533
489,5.527598,1039,253,-2687,1022,-3,-1529
490,5.539268,271,-291,865,1015,0,-1526
491,5.550921,15,-195,1089,1019,-1,-1531
492,5.562481,15,253,-2799,1017,5,-1529
493,5.574045,17,-670,-807,1017,0,-1535
494,5.585602,-497,-163,1169,1025,-1,-1530
495,5.59717,15,-19,-2703,1018,0,-1528
496,5.608735,-497,301,833,1021,-1,-1534
497,5.620287,1039,-115,993,1015,0,-1529
498,5.63183,1039,13,785,1018,-1,-1529
499,5.643383,271,221,-2847,1020,-5,-1533
500,5.654994,1039,93,657,1020,-5,-1530
501,5.666669,1039,-131,1057,1020,0,-1527
502,5.678344,527,253,817,1018,-2,-1529
503,5.689992,527,221,257,1018,0,-1537
504,5.701691,527,253,673,1018,1,-1525
505,5.713345,271,621,1217,1017,2,-1533
506,5.725024,1039,-51,785,1016,0,-1534
507,5.736655,-1521,-323,945,1015,-1,-1532
508,5.748307,1054,-707,721,1018,0,-1532
509,5.759961,527,-51,465,1020,-1,-1530
510,5.771515,15,493,945,1018,0,-1532
511,5.783064,15,365,1073,1017,0,-1528
512,5.794673,1039,461,1089,1020,-2,-1532
513,5.806231,271,-211,257,1020,-3,-1529
514,5.817804,15,189,1041,1018,0,-1531
515,5.82935,15,77,865,1020,6,-1524
516,5.84087,-497,397,369,1019,-2,-1529
517,5.852401,15,-339,1025,1018,0,-1531
518,5.864043,271,-211,897,1021,-4,-1525
519,5.875701,18,-670,-807,1019,0,-1529
520,5.887357,1039,-19,1153,1017,-1,-1532
521,5.899034,527,285,561,1020,0,-1534
522,5.910683,271,-211,1025,1014,0,-1530
523,5.922353,15,-83,-2639,1015,0,-1528
524,5.934005,527,397,1057,1023,0,-1532
525,5.945711,271,-83,481,1021,-2,-1531
526,5.957387,271,173,1009,1019,3,-1527
527,5.96908,15,301,609,1017,-1,-1531
528,5.98063,15,93,1057,1020,-5,-1523
529,5.992176,-497,109,497,1018,0,-1531
530,6.003737,1039,-163,1153,1022,-2,-1525
531,6.015299,1807,301,769,1018,0,-1531
532,6.026845,1039,-115,945,1017,1,-1532
533,6.038417,-497,157,609,1016,0,-1524
534,6.049962,15,-179,849,1020,-1,-1536
535,6.061518,271,-147,353,1017,1,-1527
536,6.073162,17,-670,-806,1016,2,-1536
537,6.08484,527,557,1057,1019,0,-1530
538,6.096515,527,253,-2735,1016,0,-1531
539,6.108211,15,29,657,1020,-2,-1530
540,6.119856,-497,621,929,1022,1,-1525
541,6.131529,271,413,497,1019,-3,-1525
542,6.143208,1039,637,737,1017,0,-1537
543,6.154849,15,-51,881,1023,0,-1530
544,6.166512,271,237,1201,1015,0,-1530
545,6.178183,527,221,433,1017,2,-1533
546,6.189742,17,-670,-806,1020,2,-1528
547,6.201299,1039,461,817,1020,-1,-1530
548,6.212866,15,-83,1137,1018,3,-1532
549,6.224424,271,381,705,1019,-1,-1530
550,6.235988,15,-275,1105,1020,-2,-1534
551,6.247551,271,349,1217,1019,1,-1526
552,6.259143,17,-670,-808,1020,-1,-1530
553,6.270762,271,429,1121,1020,-1,-1528
554,6.282377,-497,-35,-2591,1020,-3,-1527
555,6.294042,271,-3,945,1020,-2,-1533
556,6.30568,527,29,1041,1018,0,-1539
557,6.317341,271,189,705,1019,1,-1526
558,6.329029,271,-291,721,1017,3,-1532
559,6.340655,-753,-323,1185,1021,1,-1538
560,6.35233,15,141,689,1020,2,-1534
561,6.364015,15,157,593,1017,0,-1529
562,6.375656,1295,-668,-808,1020,0,-1538
563,6.387204,17,-668,-808,1020,-1,-1526
564,6.398788,271,141,721,1016,1,-1531
565,6.410334,16,-666,-805,1018,-1,-1532
566,6.421872,15,-243,849,1018,-1,-1529
567,6.43343,-753,237,737,1021,0,-1527
568,6.445008,-497,45,369,1018,2,-1531
569,6.456585,527,-67,865,1020,4,-1526
570,6.468221,286,-691,-2815,1018,-3,-1523
571,6.479819,527,-99,705,1021,0,-1535
572,6.491525,15,237,929,1022,0,-1532
573,6.503184,271,237,929,1019,-3,-1533
574,6.514852,1039,-275,977,1017,0,-1532
575,6.5265,271,-115,1201,1023,-2,-1536
576,6.53815,271,-227,1057,1020,1,-1529
577,6.549834,527,-275,865,1020,2,-1531
578,6.561491,1295,77,625,1024,-1,-1531
579,6.573167,1295,-323,705,1019,1,-1528
580,6.584858,1295,701,929,1022,4,-1528
581,6.596532,271,-579,273,1007,1,-1525
582,6.608113,15,-227,769,1018,0,-1531
583,6.619691,527,-387,1153,1019,-1,-1532
584,6.631261,-1009,-147,897,1022,-1,-1529
585,6.642803,1039,269,1041,1022,-1,-1531
586,6.654345,271,461,817,1017,-1,-1533
587,6.665894,1039,621,961,1020,-1,-1534
588,6.677482,1295,-579,-2831,1014,0,-1534
589,6.689049,1039,205,977,1018,6,-1523
590,6.700747,16,-668,-807,1019,0,-1531
591,6.7124,271,-291,833,1020,0,-1530
592,6.724079,1039,333,1009,1017,0,-1530
593,6.735731,15,-179,1201,1018,3,-1522
594,6.747377,1039,285,513,1020,0,-1534
595,6.759033,1039,-131,513,1023,0,-1526
596,6.770698,271,-83,-2815,1016,0,-1527
597,6.78235,1039,493,961,1020,-1,-1533
598,6.794009,18,-670,-807,1022,-1,-1527
599,6.805702,527,-115,993,1019,0,-1528
600,6.817411,-753,-403,577,1020,4,-1532
601,6.829087,271,29,481,1021,0,-1534
602,6.840761,527,-147,-2767,1017,3,-1527
603,6.852398,271,189,753,1020,0,-1532
604,6.864064,17,-668,-805,1019,-3,-1533
605,6.875713,271,333,1089,1020,-3,-1534
606,6.887362,17,-666,-808,1021,0,-1536
607,6.899012,1039,253,625,1019,3,-1528
608,6.910577,15,-179,1025,1018,-1,-1527
609,6.922123,1039,685,737,1019,0,-1531
610,6.933673,1807,61,801,1022,1,-1535
611,6.945271,15,333,1217,1019,-1,-1525
612,6.95685,1295,125,721,1018,0,-1538
613,6.968387,15,269,641,1020,0,-1528
614,6.979966,527,301,673,1017,-3,-1536
615,6.991537,-753,-259,769,1017,0,-1538
616,7.003098,1295,-51,-2847,1018,2,-1529
617,7.014722,16,-669,-806,1015,-3,-1532
618,7.026377,15,365,-2719,1018,4,-1531
619,7.038022,527,-51,737,1018,-1,-1531
620,7.049709,15,349,1201,1020,1,-1530
621,7.061368,15,-611,273,1021,1,-1536
622,7.073038,527,77,609,1020,1,-1535
623,7.084707,17,-668,-804,1016,-2,-1524
624,7.096384,527,109,-2863,1020,0,-1533
625,7.108041,18,-669,-806,1020,0,-1531
626,7.119717,-497,-115,-2687,1022,-1,-1529
627,7.131287,-497,237,1105,1021,-3,-1532
628,7.142833,271,269,1041,1016,1,-1535
629,7.15439,527,-147,497,1015,0,-1528
630,7.165941,15,-115,561,1019,2,-1529
631,7.177492,-497,13,993,1018,0,-1537
632,7.189043,1807,157,225,1016,-1,-1531
633,7.20062,17,-669,-806,1019,-2,-1527
634,7.21219,15,109,465,1021,-1,-1532
635,7.223867,271,-227,849,1020,0,-1531
636,7.235522,527,493,-2479,1018,0,-1531
637,7.247173,271,-131,497,1017,-1,-1534
638,7.258846,1039,-371,913,1017,-3,-1528
639,7.270493,1039,29,609,1018,3,-1537
640,7.282183,15,-115,801,1019,4,-1532
641,7.294007,18,-669,-806,1020,-3,-1529
642,7.305698,15,141,1185,1019,-5,-1532
643,7.317351,1295,317,-2703,1021,-2,-1535
644,7.328869,15,-371,945,1021,1,-1528
645,7.340386,1039,221,1073,1022,0,-1530
646,7.351959,271,45,865,1018,-1,-1528
647,7.363529,1295,189,769,1018,2,-1534
648,7.375077,271,173,881,1018,0,-1532
649,7.386652,15,221,-2719,1016,1,-1531
650,7.398191,-2033,-179,1137,1019,1,-1528
651,7.409734,1039,-211,785,1019,0,-1534
652,7.421297,17,-667,-806,1016,-2,-1531
653,7.432919,527,269,641,1018,-2,-1530
654,7.444583,15,173,1041,1020,2,-1530
655,7.456223,1039,173,561,1021,-1,-1530
656,7.467872,16,-668,-806,1013,1,-1534
657,7.479532,15,-99,753,1019,0,-1537
658,7.491192,1295,77,1121,1020,0,-1532
659,7.502852,1039,-51,993,1021,0,-1528
660,7.514498,-497,93,1025,1016,1,-1529
661,7.526204,1039,109,737,1022,1,-1531
662,7.537857,1295,157,977,1020,-2,-1533
663,7.549558,271,29,-2831,1017,0,-1529
664,7.561218,1039,-115,593,1018,-5,-1530
665,7.572897,-753,-643,897,1018,0,-1529
666,7.584575,1039,-19,929,1020,18,-1534
667,7.596222,527,-339,-2703,1017,0,-1531
668,7.607867,527,109,833,1024,0,-1525
669,7.619526,271,-163,993,1023,-1,-1530
670,7.631217,15,-147,689,1018,0,-1535
671,7.64287,527,333,897,1018,0,-1526
672,7.65453,1039,-179,705,1020,-3,-1525
673,7.666199,271,157,1041,1018,1,-1532
674,7.677852,-1009,381,993,1018,6,-1533
675,7.689506,15,-195,1169,1021,0,-1535
676,7.70118,542,-723,-2543,1017,2,-1529
677,7.712841,-1009,445,-2687,1020,-1,-1533
678,7.72453,1039,-387,977,1019,0,-1526
679,7.736203,18,-669,-804,1022,4,-1532
680,7.747867,271,-339,1089,1015,1,-1530
681,7.759426,527,-83,529,1020,-3,-1532
682,7.770981,-497,-131,769,1020,-1,-1535
683,7.782533,271,-435,321,1019,2,-1526
684,7.794067,271,-163,1217,1018,-3,-1524
685,7.805586,18,-668,-807,1016,-4,-1525
686,7.817104,271,477,625,1021,3,-1533
687,7.828626,16,-671,-806,1018,1,-1541
688,7.840181,15,-3,657,1020,5,-1530
689,7.85183,15,205,1185,1019,1,-1532
690,7.863481,271,573,1041,1021,0,-1533
691,7.87513,18,-669,-807,1017,0,-1530
692,7.886797,271,45,1217,1015,2,-1525
693,7.898455,15,125,945,1018,0,-1531
694,7.910101,527,237,993,1020,0,-1534
695,7.921751,17,-669,-807,1020,-1,-1524
696,7.933432,15,45,1169,1021,0,-1535
697,7.94511,15,285,-2575,1020,2,-1529
698,7.956797,271,653,993,1016,0,-1531
699,7.968461,1039,333,833,1018,2,-1535
700,7.980108,1039,413,1105,1019,2,-1534
701,7.991779,271,253,-2575,1019,-2,-1530
702,8.003434,1039,413,1041,1020,1,-1526
703,8.015086,1039,621,417,1022,-3,-1528
704,8.026726,-497,317,417,1020,1,-1531
705,8.038372,15,237,1009,1022,0,-1528
706,8.050049,271,-291,897,1017,0,-1528
707,8.061699,1039,13,705,1018,1,-1531
708,8.073354,15,605,897,1020,0,-1533
709,8.085061,1039,253,913,1018,0,-1533
710,8.096723,271,317,497,1021,5,-1531
711,8.108388,-1009,285,1201,1020,0,-1528
712,8.120064,17,-667,-805,1021,-4,-1527
713,8.131712,527,205,721,1018,0,-1532
714,8.143363,16,-670,-806,1016,-3,-1528
715,8.155037,271,509,545,1019,2,-1535
716,8.166718,17,-669,-806,1016,1,-1518
717,8.178291,1295,781,97,1022,-3,-1536
718,8.189866,15,-669,-805,1018,-3,-1539
719,8.201426,1295,173,-2863,1022,7,-1534
720,8.213022,1039,765,609,1020,-1,-1531
721,8.224616,1295,253,945,1018,1,-1526
722,8.236165,527,61,1137,1019,-1,-1524
723,8.24772,-497,813,401,1016,1,-1535
724,8.259284,1310,-851,1041,1020,1,-1529
725,8.270899,1039,-131,945,1020,-2,-1524
726,8.282568,-497,109,-2575,1023,4,-1543
727,8.294211,527,-371,1185,1020,0,-1529
728,8.305866,1039,-275,-2751,1017,1,-1531
729,8.317611,15,29,721,1016,-3,-1536
730,8.329306,1295,317,-2671,1017,-3,-1524
731,8.340963,271,365,481,1022,2,-1529
732,8.352642,527,-307,-2511,1019,0,-1532
733,8.364323,-497,-83,1105,1018,-1,-1526
734,8.375978,-497,-99,1137,1017,0,-1529
735,8.387535,1039,125,753,1016,1,-1536
736,8.399085,1039,493,1073,1017,3,-1527
737,8.410634,527,-275,881,1021,0,-1532
738,8.422182,-753,157,865,1017,1,-1532
739,8.433736,527,-147,721,1019,-2,-1520
740,8.445334,15,397,545,1020,-1,-1534
741,8.456907,1039,349,241,1016,-2,-1530
742,8.468476,1039,-115,641,1017,2,-1534
743,8.480089,1039,109,-2783,1017,3,-1538
744,8.491747,271,-35,-2847,1021,0,-1533
745,8.503419,271,93,401,1023,1,-1532
746,8.515074,527,269,737,1021,3,-1528
747,8.526721,1039,221,1153,1020,-2,-1529
748,8.538373,1039,125,-2799,1021,-2,-1528
749,8.550033,16,-669,-806,1021,-2,-1530
750,8.561706,271,365,1105,1021,-3,-1535
751,8.573373,271,365,705,1018,0,-1532
752,8.585052,271,-179,801,1019,-2,-1532
753,8.596624,271,29,1089,1018,0,-1535
754,8.608173,1295,253,705,1016,0,-1530
755,8.61976,527,-83,577,1022,-2,-1530
756,8.631306,-497,13,433,1020,-2,-1532
757,8.642886,15,413,721,1020,-2,-1536
758,8.654423,1039,-35,897,1018,2,-1528
759,8.665959,15,-131,-2687,1019,7,-1531
760,8.677546,17,-669,-809,1021,2,-1525
761,8.68918,1295,189,1105,1020,-2,-1526
762,8.700842,527,205,1169,1022,0,-1536
763,8.712521,527,317,849,1018,0,-1529
764,8.724182,271,-403,801,1017,3,-1531
765,8.735833,15,-579,545,1013,3,-1531
766,8.747478,15,301,817,1017,0,-1533
767,8.759127,527,61,-2639,1023,-4,-1531
768,8.770798,-497,541,1201,1020,-3,-1529
769,8.782464,15,269,-2863,1019,-2,-1532
770,8.794132,18,-670,-807,1017,-2,-1536
771,8.805741,1039,-307,609,1022,0,-1525
772,8.817291,271,-243,1025,1020,0,-1525
773,8.82888,-497,205,401,1015,4,-1532
774,8.840435,15,45,449,1019,0,-1526
775,8.852002,1039,-179,225,1020,3,-1536
776,8.863552,-497,-227,625,1018,-1,-1538
777,8.875137,1039,189,753,1021,-1,-1525
778,8.886698,-753,45,753,1019,0,-1534
779,8.898328,1039,-51,-2687,1013,-2,-1531
780,8.910016,1039,29,705,1016,-3,-1538
781,8.921688,271,-115,1185,1018,0,-1533
782,8.933346,1039,93,321,1017,2,-1534
783,8.945044,527,141,817,1020,-1,-1529
784,8.956731,271,301,-2559,1025,1,-1535
785,8.968399,1039,-131,977,1020,-1,-1531
786,8.980069,1039,221,1025,1017,1,-1531
787,8.991727,527,-19,625,1018,2,-1535
788,9.003378,271,-195,433,1017,1,-1529
789,9.015025,15,189,1217,1020,0,-1525
790,9.026681,1039,61,1217,1025,3,-1529
791,9.038328,18,-667,-804,1020,-1,-1524
792,9.049966,1039,61,945,1021,-1,-1530
793,9.06161,-753,45,849,1018,-2,-1536
794,9.073301,271,45,-2767,1016,0,-1527
795,9.084955,18,-671,-805,1019,0,-1528
796,9.096653,271,-147,1009,1021,-3,-1531
797,9.108322,19,-669,-807,1020,1,-1524
798,9.119969,271,269,1105,1021,-6,-1537
799,9.131611,-497,-19,225,1023,2,-1538
800,9.143294,1295,-179,1137,1017,0,-1528
801,9.154944,18,-666,-807,1016,0,-1534
802,9.166591,1295,-403,833,1016,-2,-1535
803,9.178235,15,525,625,1018,0,-1526
804,9.189934,527,205,1089,1020,-1,-1532
805,9.201638,1295,29,1057,1017,2,-1539
806,9.213321,15,157,1009,1020,0,-1531
807,9.22497,271,269,897,1018,5,-1531
808,9.23664,1054,-819,641,1016,5,-1530
809,9.248311,15,-67,-2671,1017,3,-1529
810,9.259952,-497,285,945,1020,-1,-1530
811,9.271599,1039,-3,961,1020,0,-1531
812,9.283239,15,-259,1169,1021,-2,-1527
813,9.294883,271,125,1153,1019,0,-1531
814,9.306566,-497,269,-2671,1020,4,-1537
815,9.318214,1295,-275,1057,1020,-1,-1530
816,9.329861,271,461,529,1015,-3,-1531
817,9.341637,-497,-275,1137,1015,-2,-1537
818,9.353311,15,-19,1169,1024,0,-1523
819,9.364975,18,-669,-806,1020,0,-1528
820,9.37666,1807,-227,-2623,1018,0,-1527
821,9.388316,15,-115,769,1017,4,-1525
822,9.399961,1039,-211,977,1020,2,-1530
823,9.411687,1295,61,993,1018,0,-1529
824,9.423349,1039,749,-805,1020,-2,-1529
825,9.434895,-497,-243,817,1016,0,-1532
826,9.446433,1039,-163,801,1023,0,-1532
827,9.457971,-497,429,1089,1018,-3,-1537
828,9.469533,527,141,1025,1018,0,-1534
829,9.481102,271,-19,-2863,1014,-1,-1532
830,9.492626,16,-669,-806,1016,0,-1524
831,9.504173,15,-179,689,1015,0,-1533
832,9.515759,527,-67,1025,1021,-3,-1533
833,9.527373,527,-355,913,1021,0,-1524
834,9.53902,527,-19,721,1019,-2,-1529
835,9.550677,527,301,817,1020,-4,-1534
836,9.562334,1807,-259,689,1020,0,-1527
837,9.573998,1295,173,641,1018,1,-1529
838,9.585681,271,-211,705,1017,0,-1537
839,9.597355,286,-787,1153,1020,0,-1526
840,9.609026,1039,477,577,1015,0,-1536
841,9.620672,1295,-19,1121,1017,-1,-1526
842,9.63233,15,-211,1089,1017,3,-1527
843,9.643906,1039,-307,769,1018,0,-1527
844,9.655472,527,-243,577,1017,-1,-1534
845,9.667019,15,45,545,1019,0,-1526
846,9.678559,15,589,1185,1025,0,-1528
847,9.6901,271,-435,1105,1024,-5,-1538
848,9.701654,271,61,977,1019,-1,-1536
849,9.713223,271,-355,881,1014,-1,-1528
850,9.724794,271,717,1057,1010,0,-1527
851,9.736498,16,-667,-805,1015,-3,-1526
852,9.748194,1039,-51,993,1024,2,-1528
853,9.759839,17,-668,-807,1020,6,-1526
854,9.771487,1039,-355,865,1020,4,-1526
855,9.783131,18,-671,-808,1016,0,-1530
856,9.794805,1039,317,561,1020,4,-1533
857,9.806458,19,-670,-805,1024,-4,-1528
858,9.818103,1039,-83,609,1026,-3,-1526
859,9.829817,1039,269,-2639,1018,-6,-1530
860,9.841467,15,189,209,1015,-2,-1530
861,9.853031,271,-83,817,1015,-1,-1526
862,9.864577,-497,-67,865,1013,0,-1526
863,9.876129,-497,-547,961,1018,4,-1521
864,9.887677,271,317,641,1019,5,-1535
865,9.899253,271,-403,1217,1022,10,-1529
866,9.910798,527,349,-2703,1021,5,-1537
867,9.92238,1807,-355,1201,1015,-2,-1522
868,9.933931,21,-668,-806,1015,0,-1530
869,9.945583,-497,573,1105,1013,-3,-1534
870,9.957232,-497,-531,961,1015,2,-1529
871,9.968899,1039,-115,1009,1025,-6,-1537
872,9.98057,1295,-227,-2447,1023,-3,-1532
873,9.992214,527,-163,-2559,1026,-3,-1531
874,10.003859,19,-668,-806,1018,0,-1534
875,10.015529,271,-579,-2815,1010,-1,-1528
876,10.027186,17,-668,-805,1017,4,-1529
877,10.038845,1039,13,993,1020,0,-1524
878,10.050512,271,-131,-2863,1028,-2,-1532
879,10.062171,271,-355,1185,1025,-2,-1532
880,10.073828,1295,573,1217,1020,0,-1534
881,10.085476,527,-19,-2703,1017,-4,-1540
882,10.097156,15,125,801,1014,-2,-1529
883,10.108828,1039,397,1025,1015,1,-1528
884,10.120471,15,317,1057,1019,1,-1533
885,10.132117,527,445,945,1020,3,-1539
886,10.143802,1039,461,929,1021,1,-1531
887,10.155456,16,-669,-806,1021,2,-1533
888,10.167016,15,-275,1105,1013,1,-1526
889,10.178557,18,-669,-806,1010,0,-1528
890,10.190105,527,-35,-2847,1016,-4,-1528
891,10.201657,15,-67,897,1023,-5,-1535
892,10.213225,527,13,705,1024,0,-1535
893,10.224776,271,-3,1105,1022,-8,-1535
894,10.236391,1039,333,689,1017,-5,-1532
895,10.247949,1039,333,1025,1020,-1,-1534
896,10.25957,15,45,849,1017,0,-1529
897,10.27125,1039,13,945,1018,-1,-1528
898,10.282904,527,157,945,1020,0,-1536
899,10.294563,271,397,929,1019,2,-1528
900,10.306211,527,29,657,1020,4,-1532
901,10.317886,1039,77,705,1022,-2,-1530
902,10.329559,1039,45,865,1015,0,-1532
903,10.341213,-497,61,1041,1012,0,-1533
904,10.35292,271,-19,1073,1018,0,-1527
905,10.364608,271,-19,-2799,1020,-2,-1535
906,10.37617,17,-669,-806,1019,1,-1533
907,10.387718,1295,-387,-2543,1017,2,-1534
908,10.399264,271,413,833,1016,3,-1533
909,10.410816,-497,189,1057,1015,4,-1527
910,10.422387,1039,-115,1057,1016,-2,-1531
911,10.433934,1295,-163,1153,1016,3,-1529
912,10.445506,-497,893,417,1019,0,-1534
913,10.457057,286,-787,641,1025,-2,-1534
914,10.468662,527,-371,849,1030,-12,-1540
915,10.480314,1295,157,753,1026,0,-1532
916,10.491965,527,-67,913,1013,-7,-1525
917,10.503668,1039,141,417,1006,3,-1536
918,10.515315,17,-670,-807,1018,7,-1531
919,10.526965,527,397,209,1028,2,-1527
920,10.538635,15,317,193,1024,2,-1536
921,10.550305,271,-19,641,1021,5,-1532
922,10.56197,15,-35,-2751,1011,3,-1531
923,10.573635,-2033,605,817,1009,-1,-1538
924,10.585255,271,-323,-2863,1012,-1,-1520
925,10.596812,1039,349,289,1020,-8,-1535
926,10.608387,1039,-403,321,1025,-4,-1538
927,10.619932,527,-547,737,1024,-3,-1531
928,10.631479,527,-163,993,1021,1,-1540
929,10.643025,527,-643,-2335,1014,1,-1518
930,10.65457,527,-291,-319,1013,2,-1515
931,10.666133,271,-467,177,1007,6,-1518
932,10.67783,18,-669,-805,1012,5,-1538
933,10.68954,1039,-227,321,1025,-3,-1533
934,10.701174,1039,-275,-2751,1026,-1,-1523
935,10.712829,271,-339,561,1020,0,-1535
936,10.72453,1039,29,913,1013,-1,-1548
937,10.736176,1039,253,-2847,1004,-1,-1531
938,10.74782,271,-147,-2447,1009,0,-1541
939,10.759468,15,301,-2815,1017,0,-1527
940,10.771122,271,-467,-2511,1022,0,-1539
941,10.782806,-497,-67,-2575,1020,0,-1534
942,10.794464,1039,93,-2767,1016,4,-1533
943,10.806127,1039,45,-2719,1015,0,-1520
944,10.817803,1295,-99,753,1019,3,-1529
945,10.82944,1039,189,241,1023,2,-1532
946,10.841101,17,-669,-806,1021,0,-1526
947,10.852779,1295,397,1025,1025,-1,-1525
948,10.864441,1295,45,513,1020,0,-1530
949,10.87611,527,-435,497,1018,-2,-1530
950,10.887768,19,-670,-807,1017,-2,-1535
951,10.899318,1039,-243,849,1012,0,-1532
952,10.910865,17,-669,-807,1017,0,-1530
953,10.922412,527,-35,369,1019,0,-1529
954,10.933989,527,-307,1025,1020,2,-1529
955,10.945547,1295,77,657,1018,4,-1535
956,10.957126,15,-131,721,1011,0,-1530
957,10.96867,1295,125,689,1013,2,-1535
958,10.980233,-497,-83,753,1015,0,-1531
959,10.991848,1039,-163,1073,1018,0,-1532
960,11.003491,1295,-51,817,1025,-8,-1532
961,11.015136,527,-211,913,1026,0,-1534
962,11.026801,1039,-3,961,1022,-4,-1524
963,11.038453,15,13,-2687,1014,-4,-1532
964,11.050124,527,157,833,1012,0,-1537
965,11.061811,16,-670,-806,1015,5,-1526
966,11.073469,15,477,-2863,1018,3,-1532
967,11.085169,30,-851,913,1023,2,-1530
968,11.096829,271,77,993,1018,2,-1530
969,11.108389,1039,-515,-2799,1016,-2,-1528
970,11.119954,-497,349,417,1013,3,-1530
971,11.131608,15,-451,913,1013,1,-1533
972,11.143303,271,-99,513,1017,0,-1532
973,11.154881,15,-163,-2815,1022,-3,-1529
974,11.166466,527,-67,881,1025,-3,-1532
975,11.178058,1039,-51,993,1020,0,-1530
976,11.18967,1295,-3,-2719,1012,2,-1534
977,11.201241,1807,-547,-2863,1009,1,-1527
978,11.212795,-753,253,1009,1010,2,-1528
979,11.224383,271,-227,-804,1021,-3,-1535
980,11.235953,1039,-227,-2687,1029,-4,-1535
981,11.247508,1039,189,1121,1026,-3,-1530
982,11.259059,1039,-147,-2703,1024,-4,-1537
983,11.270625,1295,77,673,1011,0,-1527
984,11.282163,17,-669,-807,1004,5,-1528
985,11.293732,1039,-83,657,1008,8,-1531
986,11.305451,1295,125,593,1012,6,-1522
987,11.317159,1807,-83,785,1033,0,-1527
988,11.328817,18,-670,-806,1030,2,-1533
989,11.340478,-497,365,609,1025,0,-1531
990,11.352178,1039,-19,721,1021,-2,-1534
991,11.363818,271,317,497,1009,0,-1527
992,11.375468,1039,349,753,1010,-6,-1529
993,11.387147,1807,-83,721,1017,-5,-1528
994,11.398861,527,-307,785,1021,-6,-1527
995,11.410552,271,541,417,1024,0,-1533
996,11.42216,527,205,817,1024,0,-1539
997,11.433751,16,-668,-807,1021,-2,-1537
998,11.445332,15,141,977,1020,-3,-1531
999,11.456873,1295,-83,817,1002,1,-1529
1000,11.46843,1039,-611,721,1002,5,-1528
1001,11.479999,15,285,737,1011,6,-1530
1002,11.491568,271,-227,833,1030,2,-1533
1003,11.503144,1039,-83,433,1031,-3,-1527
1004,11.514801,527,-115,721,1026,1,-1532
1005,11.526463,15,77,929,1023,0,-1530
1006,11.538105,1039,-547,1057,1004,0,-1524
1007,11.549768,15,285,593,1007,3,-1528
1008,11.561444,1039,-19,657,1017,1,-1530
1009,11.573099,1039,-115,1121,1019,0,-1533
1010,11.584783,30,-1810,-159,1021,0,-1498
1011,11.59645,271,-387,-1583,1018,-12,-1468
1012,11.608136,1054,-979,881,1011,-3,-1503
1013,11.619802,1039,-2675,113,1015,0,-1526
1014,11.63138,17,-664,-805,1012,0,-1526
1015,11.642924,15,413,-1183,1004,8,-1491
1016,11.654482,18,-670,-804,1010,-1,-1494
1017,11.666029,1039,13,257,1026,2,-1536
1018,11.677592,527,-515,-2591,1032,-2,-1543
1019,11.689117,15,493,-2703,1025,-9,-1523
1020,11.70067,527,-275,-2639,1012,0,-1525
1021,11.712251,15,669,945,1006,1,-1540
1022,11.72389,19,-667,-805,1012,1,-1543
1023,11.735562,1039,-19,-2751,1020,4,-1526
1024,11.747204,1039,109,-2847,1030,0,-1529
1025,11.758849,-753,61,1057,1033,0,-1529
1026,11.770524,271,-435,-2255,1012,6,-1531
1027,11.782178,15,381,-2591,1011,4,-1521
1028,11.79386,15,125,1025,1005,4,-1521
1029,11.805554,1039,285,769,1018,-1,-1536
1030,11.817217,18,-669,-804,1028,0,-1531
1031,11.828891,271,77,241,1033,0,-1528
1032,11.840469,527,61,513,1028,0,-1535
1033,11.852027,527,477,1217,1016,-1,-1529
1034,11.863645,1295,429,1089,1010,0,-1529
1035,11.875224,15,-211,849,1009,3,-1529
1036,11.886768,1039,-275,-2847,1012,4,-1531
1037,11.898316,15,477,-2831,1021,2,-1529
1038,11.90987,-497,285,881,1029,4,-1535
1039,11.921444,527,-259,1025,1027,-1,-1526
1040,11.933154,1039,573,-2799,1019,2,-1530
1041,11.944824,1039,-259,929,1012,-2,-1527
1042,11.956481,1807,-195,737,1012,-1,-1535
1043,11.968127,1039,-195,705,1017,-4,-1527
1044,11.979789,15,-355,-2815,1020,-1,-1534
1045,11.991438,1039,781,737,1025,-2,-1533
1046,12.003074,1039,381,641,1021,-3,-1531
1047,12.014722,15,-67,961,1020,0,-1529
1048,12.026412,527,-179,993,1014,0,-1530
1049,12.038063,-497,-51,-2847,1009,1,-1531
1050,12.049619,1295,-35,945,1015,0,-1535
1051,12.061165,18,-670,-808,1023,0,-1532
1052,12.072744,1807,77,-2719,1021,-2,-1538
1053,12.084322,-497,45,1057,1021,0,-1527
1054,12.095879,15,-259,1153,1019,0,-1525
1055,12.107423,527,381,577,1012,0,-1528
1056,12.118969,1039,397,225,1015,0,-1526
1057,12.130525,271,-275,1025,1020,2,-1535
1058,12.14217,271,141,705,1018,1,-1530
1059,12.153821,271,141,-2815,1020,1,-1528
1060,12.165525,1039,109,641,1020,3,-1530
1061,12.177179,527,13,481,1016,0,-1536
1062,12.18883,16,-669,-805,1017,1,-1537
1063,12.200523,-497,125,721,1014,-2,-1526
1064,12.212182,-497,-51,-2527,1021,0,-1526
1065,12.223827,527,237,1057,1020,-2,-1534
1066,12.235494,15,61,1121,1026,0,-1533
1067,12.247067,271,-243,1057,1021,0,-1529
1068,12.258618,15,-3,833,1020,0,-1536
1069,12.270163,527,285,-2847,1015,0,-1531
1070,12.281735,271,-403,1217,1013,5,-1526
1071,12.293289,527,317,1073,1014,-2,-1530
1072,12.304866,-497,285,849,1020,0,-1535
1073,12.3164,19,-672,-807,1022,-1,-1534
1074,12.32794,15,-19,897,1021,-3,-1533
1075,12.339506,271,-3,785,1019,0,-1534
1076,12.351153,-497,-307,-2783,1016,0,-1537
1077,12.362808,542,-707,-2559,1013,2,-1532
1078,12.374455,527,-115,1041,1016,0,-1539
1079,12.386102,-497,-211,961,1018,3,-1528
1080,12.397776,15,125,1169,1022,0,-1529
1081,12.40942,271,173,-2591,1023,2,-1530
1082,12.42107,271,125,1089,1019,3,-1531
1083,12.432725,15,-99,961,1017,2,-1531
1084,12.444431,-497,61,1105,1019,4,-1536
1085,12.456097,271,-419,849,1019,-3,-1527
1086,12.46767,1039,221,753,1021,0,-1532
1087,12.47924,-497,-323,929,1023,-3,-1530
1088,12.49079,1039,93,1073,1021,-3,-1529
1089,12.50236,271,-275,849,1016,-1,-1532
1090,12.513905,1039,-51,337,1018,1,-1535
1091,12.525461,1039,-67,1025,1014,0,-1530
1092,12.537041,271,-451,897,1016,1,-1527
1093,12.548632,15,301,-2431,1017,-5,-1534
1094,12.560278,1039,-499,-2383,1019,0,-1533
1095,12.571929,1295,285,833,1020,0,-1531
1096,12.58358,527,-339,545,1019,-4,-1530
1097,12.595248,271,-179,993,1019,-6,-1533
1098,12.606904,15,477,577,1013,1,-1534
1099,12.618551,15,-147,497,1020,1,-1537
1100,12.630198,17,-667,-807,1019,0,-1528
1101,12.641873,1295,-323,961,1016,-1,-1531
1102,12.65356,15,-355,641,1018,0,-1539
1103,12.665233,1039,-579,1057,1020,1,-1529
1104,12.676911,527,157,721,1017,-1,-1532
1105,12.688564,15,13,929,1020,0,-1536
1106,12.700211,271,-179,865,1020,0,-1534
1107,12.711879,527,429,-2319,1011,3,-1536
1108,12.723527,16,-669,-807,1010,2,-1529
1109,12.735175,1039,301,1105,1020,1,-1529
1110,12.746827,-497,-83,-2831,1021,-2,-1522
1111,12.758496,271,-131,625,1022,-4,-1529
1112,12.770157,271,-179,801,1019,3,-1529
1113,12.781839,527,189,657,1012,-1,-1531
1114,12.793497,271,-243,1217,1009,1,-1527
1115,12.805167,-497,-291,-2735,1018,0,-1531
1116,12.816823,16,-667,-805,1020,1,-1532
1117,12.828467,1295,-211,-2831,1021,3,-1534
1118,12.840112,271,-67,1009,1014,0,-1532
1119,12.851766,15,77,-2767,1016,0,-1530
1120,12.863482,15,-83,785,1017,-1,-1526
1121,12.87516,1039,-115,-2751,1020,-3,-1533
1122,12.886724,15,29,1169,1017,-1,-1536
1123,12.8983,15,-99,849,1014,0,-1531
1124,12.909898,271,-355,529,1020,-1,-1542
1125,12.921485,527,-19,1025,1019,0,-1532
1126,12.933037,527,125,721,1016,5,-1526
1127,12.944601,15,445,1137,1018,2,-1532
1128,12.956146,15,-115,769,1017,3,-1526
1129,12.967702,527,29,961,1017,0,-1522
1130,12.979347,527,77,657,1018,-4,-1533
1131,12.990999,527,237,-2783,1016,-1,-1532
1132,13.002673,15,-147,1041,1016,1,-1531
1133,13.014346,15,-131,-2607,1020,0,-1534
1134,13.026018,15,237,897,1020,-1,-1534
1135,13.037691,1039,61,-2735,1016,-2,-1525
1136,13.049343,15,301,1169,1016,-1,-1534
1137,13.06103,527,-3,-2815,1017,2,-1529
1138,13.072654,1807,93,1057,1016,3,-1534
1139,13.084221,1039,349,1089,1019,-1,-1524
1140,13.09577,1039,-467,913,1022,0,-1529
1141,13.107313,1039,285,801,1019,0,-1529
1142,13.118863,1039,605,1121,1016,-2,-1531
1143,13.130412,271,13,1073,1018,-1,-1530
1144,13.14198,527,93,-2847,1015,1,-1531
1145,13.153543,527,-547,449,1019,-2,-1533
1146,13.165117,16,-670,-806,1016,1,-1522
1147,13.176687,271,717,641,1023,0,-1530
1148,13.188302,-497,237,737,1021,2,-1534
1149,13.199964,15,-243,-2863,1020,0,-1530
1150,13.211609,19,-668,-808,1020,0,-1532
1151,13.223263,15,77,849,1016,0,-1532
1152,13.23493,527,317,-2815,1019,0,-1528
1153,13.246591,15,109,545,1021,0,-1534
1154,13.258293,15,445,1185,1023,-1,-1534
1155,13.269948,15,-147,1041,1022,0,-1529
1156,13.281636,15,77,1217,1021,1,-1523
1157,13.293304,15,141,1105,1013,1,-1532
1158,13.304875,15,-339,465,1014,5,-1531
1159,13.316441,16,-669,-805,1014,-1,-1529
1160,13.327993,527,285,641,1021,0,-1533
1161,13.339537,271,-179,433,1023,1,-1532
1162,13.351081,1807,-387,801,1017,0,-1531
1163,13.362631,18,-668,-807,1015,0,-1528
1164,13.374194,1039,77,-2687,1015,-2,-1537
1165,13.385763,15,-669,-807,1016,-4,-1534
1166,13.397417,271,173,529,1015,-2,-1521
1167,13.409066,18,-670,-806,1018,0,-1528
1168,13.42072,1295,-499,1025,1019,4,-1538
1169,13.432404,271,-19,609,1020,0,-1537
1170,13.444064,-753,-51,625,1016,0,-1531
1171,13.455724,1295,-243,1025,1016,1,-1526
1172,13.467369,527,-163,1089,1016,2,-1528
1173,13.479042,16,-668,-807,1017,0,-1529
1174,13.490743,1039,93,-2847,1020,-3,-1537
1175,13.502411,15,-670,-807,1022,0,-1534
1176,13.513981,271,509,-2351,1019,0,-1534
1177,13.525557,1039,-195,817,1020,1,-1536
1178,13.537115,15,-163,481,1018,1,-1533
1179,13.548674,271,141,993,1013,3,-1529
1180,13.560236,1295,-243,1201,1013,0,-1529
1181,13.571777,1039,-131,689,1021,0,-1525
1182,13.583324,271,333,369,1024,1,-1523
1183,13.594885,271,237,753,1020,-4,-1531
1184,13.606542,271,-227,497,1017,0,-1537
1185,13.618202,527,-115,929,1016,-4,-1528
1186,13.629861,15,237,1073,1011,0,-1531
1187,13.641553,1295,29,929,1014,-2,-1532
1188,13.65324,18,-669,465,1020,0,-1540
1189,13.664913,-753,-99,-2639,1021,-1,-1535
1190,13.67668,15,-99,625,1022,0,-1530
1191,13.688396,-753,125,-2847,1021,1,-1534
1192,13.70005,19,-670,-806,1013,4,-1531
1193,13.711703,1039,-323,1169,1014,-2,-1532
1194,13.72349,18,-669,-807,1016,2,-1526
1195,13.73515,527,-323,-2447,1017,-2,-1526
1196,13.746803,527,-195,721,1022,-2,-1534
1197,13.758455,15,189,817,1021,-1,-1533
1198,13.770123,527,125,721,1015,1,-1532
1199,13.781809,15,829,801,1015,0,-1529
1200,13.793486,1295,509,321,1017,0,-1530
1201,13.805179,527,157,897,1019,1,-1528
1202,13.816836,271,381,977,1023,0,-1541
1203,13.828517,527,-371,1153,1020,0,-1523
1204,13.84016,271,-99,-2783,1018,0,-1530
1205,13.85181,17,-666,-804,1015,0,-1523
1206,13.863474,1039,221,849,1015,-4,-1525
1207,13.875121,-497,-35,625,1014,-1,-1524
1208,13.886783,271,-467,1057,1020,0,-1531
1209,13.898428,271,445,289,1019,-2,-1532
1210,13.910104,271,-147,-2719,1019,2,-1525
1211,13.921776,1039,669,337,1016,-1,-1531
1212,13.933425,15,461,801,1020,1,-1530
1213,13.945095,15,13,113,1019,3,-1532
1214,13.956784,527,-35,1057,1019,3,-1536
1215,13.968473,15,45,1153,1019,-4,-1534
1216,13.980139,15,157,785,1020,1,-1531
1217,13.991792,17,-669,-805,1019,0,-1530
1218,14.003434,527,237,529,1023,-2,-1533
1219,14.015116,1295,205,1,1023,-2,-1531
1220,14.026805,271,-67,657,1019,-5,-1528
1221,14.038362,271,-275,705,1016,-4,-1532
1222,14.049907,527,-83,737,1013,2,-1532
1223,14.061479,15,-35,689,1017,3,-1534
1224,14.07303,18,-668,-806,1020,0,-1531
1225,14.084612,1039,77,993,1015,-4,-1536
1226,14.096178,527,109,1009,1014,0,-1525
1227,14.107732,15,-163,-2655,1014,1,-1532
1228,14.119291,15,-3,-2719,1016,-4,-1527
1229,14.130945,1039,109,145,1020,-2,-1527
1230,14.142595,-497,61,1057,1020,0,-1525
1231,14.154292,-497,-467,609,1017,0,-1525
1232,14.165946,271,-3,961,1020,-2,-1530
1233,14.177601,-497,-355,-2735,1018,-2,-1529
1234,14.18929,15,141,849,1015,0,-1525
1235,14.200983,18,-669,-804,1017,-2,-1527
1236,14.212658,527,-275,609,1017,1,-1537
1237,14.224315,271,-243,1185,1020,-2,-1527
1238,14.235973,1295,29,929,1018,2,-1532
1239,14.247531,-497,-35,1137,1021,0,-1533
1240,14.259092,271,-3,417,1021,0,-1540
1241,14.270634,1039,253,433,1019,0,-1531
1242,14.282174,15,-19,513,1020,1,-1527
1243,14.293732,-497,-227,721,1018,2,-1529
1244,14.305311,271,301,1009,1017,-3,-1532
1245,14.316874,15,-163,673,1019,1,-1529
1246,14.328451,17,-668,-807,1018,-2,-1531
1247,14.340067,1295,125,417,1016,1,-1531
1248,14.351753,271,13,801,1020,1,-1529
1249,14.363418,1039,205,849,1019,2,-1526
1250,14.375072,271,509,849,1018,-3,-1529
1251,14.386755,271,365,321,1015,0,-1532
1252,14.398413,271,-51,865,1018,-1,-1524
1253,14.410051,18,-668,-806,1016,-1,-1528
1254,14.421685,527,-35,993,1016,1,-1527
1255,14.433386,-497,-499,865,1020,0,-1527
1256,14.445067,527,-131,33,1018,2,-1529
1257,14.456632,18,-670,-806,1017,1,-1529
1258,14.468225,271,301,721,1018,-2,-1528
1259,14.479771,-497,-195,1137,1016,-1,-1521
1260,14.491319,1039,61,753,1020,0,-1525
1261,14.50287,1310,-739,641,1020,0,-1533
1262,14.514441,527,173,1169,1015,1,-1524
1263,14.525993,15,253,865,1015,0,-1532
1264,14.537634,1295,365,753,1016,-1,-1533
1265,14.549291,15,429,-2655,1020,0,-1535
1266,14.560968,15,-403,465,1017,0,-1529
1267,14.57264,1039,221,1057,1019,-1,-1537
1268,14.584292,271,-275,225,1019,0,-1530
1269,14.595944,527,-131,721,1016,-1,-1534
1270,14.607591,16,-672,-806,1013,-1,-1530
1271,14.619238,15,221,1169,1019,-2,-1526
1272,14.63092,-497,-99,785,1019,0,-1531
1273,14.64259,1039,-3,561,1020,1,-1527
1274,14.654252,1295,-195,-2799,1020,0,-1535
1275,14.665863,1807,93,1041,1018,-2,-1530
1276,14.677412,17,-671,-807,1016,0,-1526
1277,14.688984,1039,-163,-2815,1016,2,-1527
1278,14.700532,16,-670,-807,1021,-1,-1532
1279,14.712083,1039,205,1009,1020,0,-1530
1280,14.723628,15,13,1121,1018,0,-1525
1281,14.735204,15,-35,-2623,1011,-2,-1527
1282,14.746762,-497,-547,897,1017,-2,-1527
1283,14.75841,271,-211,705,1021,0,-1529
1284,14.770064,527,-35,737,1016,0,-1536
1285,14.781682,15,317,881,1020,0,-1530
1286,14.793338,1295,173,1073,1023,0,-1528
1287,14.805037,1039,29,737,1022,-2,-1531
1288,14.816658,15,-67,721,1018,1,-1529
1289,14.828306,17,-671,-805,1021,0,-1527
1290,14.839965,15,13,513,1018,0,-1527
1291,14.851643,15,285,977,1018,2,-1533
1292,14.863299,271,-195,417,1019,0,-1530
1293,14.874857,15,-179,705,1022,2,-1531
1294,14.886409,527,-163,337,1020,0,-1532
1295,14.897999,1039,-227,657,1023,1,-1532
1296,14.909618,15,301,1185,1020,-1,-1529
1297,14.921195,17,-669,-807,1014,1,-1531
1298,14.932756,527,-211,609,1018,-1,-1531
1299,14.944303,1039,77,625,1016,0,-1534
1300,14.95591,1807,285,753,1018,2,-1534
1301,14.967551,15,-387,641,1017,-2,-1532
1302,14.979229,-497,-307,1009,1014,2,-1534
1303,14.990889,271,365,1105,1023,0,-1530
1304,15.002547,1039,-275,913,1022,2,-1537
1305,15.014214,527,-51,977,1018,-1,-1530
1306,15.025884,-497,173,1137,1018,-1,-1523
1307,15.037551,16,-670,-806,1019,0,-1529
1308,15.04923,1295,-163,753,1020,0,-1533
1309,15.060924,15,413,881,1021,-1,-1531
1310,15.072577,271,-67,1057,1016,3,-1530
1311,15.08425,1295,-19,977,1014,-1,-1530
1312,15.095897,15,-131,721,1016,-1,-1527
1313,15.107544,271,-179,913,1022,6,-1532
1314,15.119203,15,-3,513,1019,4,-1529
1315,15.130919,1807,-179,-2719,1019,2,-1531
1316,15.142574,1039,205,561,1021,0,-1529
1317,15.154227,1039,125,913,1017,-3,-1537
1318,15.165975,527,173,641,1019,-2,-1533
1319,15.177676,271,221,977,1013,0,-1535
1320,15.189247,1039,221,849,1019,0,-1534
1321,15.200805,1039,-163,-2623,1020,0,-1529
1322,15.21239,15,-307,1073,1019,0,-1527
1323,15.223985,15,13,-2671,1017,1,-1531
1324,15.235528,1295,221,-2543,1018,-2,-1524
1325,15.24709,-753,141,689,1021,0,-1530
1326,15.25863,1039,349,817,1024,0,-1526
1327,15.270203,527,-163,785,1014,1,-1535
1328,15.281867,271,-227,-2735,1020,0,-1528
1329,15.293546,1039,237,593,1022,-2,-1528
1330,15.305213,1039,93,753,1020,0,-1532
1331,15.316927,1039,61,833,1019,0,-1534
1332,15.328604,527,29,801,1017,0,-1530
1333,15.340261,271,-99,1137,1016,0,-1525
1334,15.35192,1295,253,977,1018,1,-1530
1335,15.363628,271,-35,689,1023,-1,-1535
1336,15.3753,527,397,753,1021,2,-1531
1337,15.387003,1039,333,705,1020,0,-1526
1338,15.398565,1039,157,689,1014,1,-1535
1339,15.410112,1039,301,737,1013,0,-1535
1340,15.421662,1295,29,-2735,1016,3,-1527
1341,15.433236,15,-387,-2847,1019,3,-1534
1342,15.444787,271,781,945,1017,-3,-1528
1343,15.456333,271,413,769,1026,1,-1534
1344,15.467883,15,-323,641,1019,1,-1529
1345,15.479471,-753,-115,-2511,1021,0,-1529
1346,15.49113,527,-35,753,1015,3,-1530
1347,15.502814,271,205,1073,1014,1,-1533
1348,15.51448,1295,13,1169,1015,3,-1532
1349,15.52613,1039,349,849,1019,0,-1534
1350,15.537815,1295,-547,-2671,1017,-4,-1531
1351,15.549495,271,397,865,1020,1,-1539
1352,15.561164,1039,45,689,1018,-2,-1525
1353,15.572835,-497,13,689,1020,-4,-1529
1354,15.584546,18,-668,-805,1017,-1,-1525
1355,15.59626,271,77,961,1018,4,-1533
1356,15.607837,-497,189,529,1015,0,-1531
1357,15.619383,1295,237,1217,1017,1,-1532
1358,15.630924,271,189,449,1020,-2,-1533
1359,15.642473,1039,221,993,1016,1,-1528
1360,15.654016,1039,109,529,1018,0,-1532
1361,15.665597,-497,125,673,1017,2,-1525
1362,15.677107,1295,477,1185,1021,0,-1530
1363,15.688639,15,-339,-2527,1016,-3,-1531
1364,15.700271,527,-179,1153,1020,-3,-1529
1365,15.711918,271,-51,721,1021,0,-1534
1366,15.723566,527,397,961,1017,3,-1526
1367,15.735235,17,-669,-806,1018,-1,-1526
1368,15.746888,-497,-275,561,1019,3,-1532
1369,15.758537,1039,-211,849,1020,5,-1533
1370,15.770184,1039,13,865,1019,0,-1530
1371,15.781857,1039,333,1025,1022,2,-1528
1372,15.793531,271,93,-2799,1021,0,-1531
1373,15.805096,527,269,1153,1019,1,-1532
1374,15.816629,15,301,769,1018,4,-1528
1375,15.828205,527,-67,625,1018,-2,-1530
1376,15.83975,527,333,881,1019,0,-1528
1377,15.851295,1039,-67,961,1021,-2,-1524
1378,15.862841,15,-515,929,1019,2,-1536
1379,15.874421,15,365,929,1021,2,-1528
1380,15.885972,1039,269,1073,1020,1,-1535
1381,15.897541,15,621,897,1016,1,-1535
1382,15.909168,271,189,1217,1014,-3,-1534
1383,15.920844,15,-35,529,1018,-2,-1522
1384,15.932573,527,-35,1009,1015,1,-1531
1385,15.944267,15,-195,1057,1020,0,-1538
1386,15.955921,15,173,641,1015,1,-1531
1387,15.967564,15,317,1185,1019,0,-1522
1388,15.979207,271,285,753,1020,0,-1531
1389,15.990894,18,-668,-806,1019,2,-1528
1390,16.00255,527,573,1169,1017,0,-1526
1391,16.014207,527,-67,753,1019,0,-1528
1392,16.025885,-497,653,849,1018,-1,-1534
1393,16.03755,15,-419,1153,1019,0,-1530
1394,16.049171,527,61,1057,1018,4,-1529
1395,16.060896,15,317,721,1019,-2,-1530
1396,16.072539,1039,445,1169,1014,-1,-1531
1397,16.08419,1039,-611,577,1020,3,-1530
1398,16.095878,1039,-179,-2703,1023,8,-1532
1399,16.107533,15,-83,1185,1017,2,-1535
1400,16.11918,1039,-643,945,1019,0,-1527
1401,16.130733,15,-67,225,1019,-2,-1529
1402,16.14232,17,-668,-804,1017,-1,-1537
1403,16.15386,1039,-355,-2415,1016,0,-1534
1404,16.165404,1039,77,-2687,1021,0,-1528
1405,16.176985,-497,-19,993,1016,-1,-1532
1406,16.188571,1039,109,545,1014,2,-1538
1407,16.200111,1039,45,881,1024,0,-1531
1408,16.211659,271,45,1137,1020,1,-1530
1409,16.223278,1807,-547,753,1020,1,-1531
1410,16.234925,271,189,385,1022,3,-1534
1411,16.246595,271,173,1073,1017,3,-1524
1412,16.25826,527,-227,1201,1016,0,-1534
1413,16.269927,271,285,673,1020,0,-1533
1414,16.281575,1295,573,673,1017,0,-1534
1415,16.293291,15,-99,945,1020,0,-1533
1416,16.304911,1039,-51,1201,1020,0,-1530
1417,16.316592,1039,-227,673,1020,3,-1532
1418,16.328261,527,189,833,1019,-3,-1530
1419,16.339829,15,-227,721,1017,-1,-1529
1420,16.351393,15,-499,657,1018,0,-1528
1421,16.362955,1039,317,897,1016,0,-1531
1422,16.374503,527,-435,881,1019,-2,-1530
1423,16.386077,1039,-483,945,1020,-2,-1527
1424,16.39759,15,381,417,1018,0,-1534
1425,16.409104,15,-243,945,1020,-3,-1538
1426,16.42064,271,301,577,1019,-2,-1534
1427,16.432262,527,-147,1169,1017,-1,-1535
1428,16.443916,15,-131,689,1018,-1,-1531
1429,16.455583,527,-195,-2831,1019,0,-1527
1430,16.46723,271,-67,-2447,1020,1,-1528
1431,16.478888,527,-99,1025,1021,-2,-1534
1432,16.490536,15,-51,-2815,1018,0,-1532
1433,16.502181,15,-35,-2639,1016,0,-1533
1434,16.51388,271,173,1041,1020,4,-1533
1435,16.525549,1295,-19,833,1018,2,-1532
1436,16.537101,527,45,433,1018,0,-1528
1437,16.548628,1295,141,817,1019,-1,-1528
1438,16.560188,271,317,609,1019,-1,-1532
1439,16.57173,16,-668,865,1019,4,-1533
1440,16.583273,15,253,689,1019,0,-1531
1441,16.594815,527,-275,833,1019,-1,-1533
1442,16.606365,527,-403,1153,1015,-4,-1530
1443,16.61796,527,45,-805,1014,2,-1537
1444,16.62953,527,-19,593,1016,1,-1533
1445,16.641165,15,45,-2527,1014,-3,-1525
1446,16.652843,527,349,545,1019,0,-1530
1447,16.664523,17,-669,-807,1024,0,-1529
1448,16.676168,271,237,1137,1021,1,-1523
1449,16.687831,271,-243,-2607,1019,1,-1525
1450,16.699535,1039,-195,673,1018,1,-1531
1451,16.711307,527,-323,913,1017,0,-1530
1452,16.722958,271,141,529,1018,-2,-1527
1453,16.734643,1039,-227,737,1016,1,-1528
1454,16.746368,1039,61,721,1022,-1,-1531
1455,16.757952,1295,-51,849,1019,0,-1531
1456,16.769503,1039,61,945,1018,3,-1529
1457,16.781048,271,173,1185,1017,0,-1529
1458,16.792626,18,-670,-806,1017,1,-1531
1459,16.804186,1039,429,577,1017,1,-1533
1460,16.815737,271,381,769,1020,4,-1532
1461,16.82731,271,749,1153,1020,0,-1530
1462,16.838873,1039,333,945,1025,-3,-1532
1463,16.850512,15,13,785,1019,3,-1525
1464,16.862173,527,-3,785,1017,-5,-1527
1465,16.873832,1807,45,785,1019,1,-1528
1466,16.885504,271,-419,1185,1018,3,-1534
1467,16.897174,15,237,321,1018,0,-1528
1468,16.908824,527,-115,833,1020,0,-1533
1469,16.920521,17,-671,-805,1022,-1,-1534
1470,16.932176,15,-99,961,1018,0,-1524
1471,16.94384,-497,-259,977,1015,0,-1534
1472,16.955498,15,45,1009,1015,0,-1532
1473,16.967056,527,109,769,1019,2,-1533
1474,16.978647,1039,-243,945,1018,-1,-1527
1475,16.990209,18,-670,-806,1020,3,-1529
1476,17.001764,-753,301,641,1017,0,-1533
1477,17.013334,527,13,561,1019,0,-1527
1478,17.024868,1039,653,1073,1017,0,-1532
1479,17.036385,527,573,273,1021,1,-1531
1480,17.047953,1039,29,1057,1020,1,-1529
1481,17.059575,1295,-323,961,1020,-1,-1538
1482,17.071227,1295,509,897,1019,-2,-1529
1483,17.082884,1295,29,849,1022,-2,-1531
1484,17.094533,527,-51,1153,1019,1,-1528
1485,17.106174,19,-669,-806,1018,-2,-1528
1486,17.117829,-497,-3,625,1019,-3,-1527
1487,17.12955,1039,637,609,1017,0,-1530
1488,17.141401,271,-323,401,1020,-1,-1527
1489,17.153215,18,-669,-806,1019,1,-1531
1490,17.16493,527,-115,881,1016,2,-1532
1491,17.176515,17,-670,-806,1017,-3,-1535
1492,17.188067,1039,141,-2767,1014,-1,-1529
1493,17.199611,527,-99,1153,1020,3,-1527
1494,17.211202,15,-563,561,1016,1,-1526
1495,17.222747,1039,317,737,1021,0,-1529
1496,17.234301,15,413,1041,1018,-1,-1528
1497,17.245852,271,237,1009,1016,2,-1531
1498,17.257455,271,397,593,1020,-1,-1531
1499,17.269113,271,-611,-2815,1015,0,-1532
1500,17.280786,271,157,737,1016,2,-1526
1501,17.292433,-497,333,-2607,1017,-2,-1526
1502,17.304084,271,61,1217,1019,1,-1530
1503,17.315754,-497,461,1153,1019,3,-1540
1504,17.327395,15,13,913,1017,0,-1535
1505,17.339043,271,-323,593,1020,-5,-1530
1506,17.350736,15,-67,561,1016,1,-1534
1507,17.362396,527,-67,993,1017,1,-1527
1508,17.374094,271,-179,1169,1013,4,-1527
1509,17.385697,1295,-435,225,1018,0,-1529
1510,17.397246,527,93,289,1019,0,-1529
1511,17.408803,271,221,977,1017,3,-1535
1512,17.420388,1039,-403,1137,1020,-3,-1532
1513,17.431951,527,205,497,1019,0,-1525
1514,17.443578,1039,157,1073,1018,1,-1530
1515,17.45513,1295,301,-2287,1020,0,-1533
1516,17.466694,-497,77,1121,1021,-2,-1527
1517,17.478341,1039,573,673,1016,0,-1535
1518,17.490003,1039,221,913,1018,0,-1537
1519,17.501682,271,221,529,1022,1,-1528
1520,17.513333,1039,237,689,1020,3,-1528
1521,17.525042,18,-670,-806,1020,1,-1532
1522,17.536712,527,445,897,1020,0,-1529
1523,17.548387,1039,-83,369,1012,0,-1523
1524,17.560027,1039,-451,721,1020,0,-1526
1525,17.571691,527,93,785,1017,2,-1528
1526,17.583372,15,-115,1121,1019,2,-1538
1527,17.594942,1039,-131,1105,1015,-1,-1531
1528,17.606492,-2033,429,1105,1018,2,-1528
1529,17.618037,18,-668,-807,1018,-5,-1521
1530,17.629598,-753,157,673,1020,0,-1535
1531,17.641186,-497,29,929,1019,-1,-1532
1532,17.652754,1039,-3,1185,1020,0,-1533
1533,17.664316,1039,-147,497,1018,0,-1530
1534,17.6759,15,77,753,1020,-2,-1536
1535,17.687546,527,445,625,1016,-2,-1534
1536,17.699221,527,93,721,1019,3,-1529
1537,17.710877,17,-668,-806,1013,0,-1531
1538,17.722541,1039,93,1169,1019,3,-1530
1539,17.734193,17,-669,-804,1018,5,-1532
1540,17.745868,15,13,-2639,1020,0,-1528
1541,17.757544,527,45,769,1021,0,-1530
1542,17.769165,15,45,1009,1017,0,-1534
1543,17.780862,17,-668,-806,1019,0,-1526
1544,17.792534,1295,13,865,1020,-4,-1527
1545,17.804094,19,-668,-805,1018,-1,-1530
1546,17.815644,1039,-131,977,1020,-2,-1524
1547,17.827195,527,-323,1185,1020,1,-1535
1548,17.838751,1039,141,689,1017,-1,-1534
1549,17.850324,15,173,977,1019,3,-1531
1550,17.86187,527,-195,1137,1016,4,-1533
1551,17.873435,527,349,737,1014,0,-1526
1552,17.885005,1807,-259,1137,1017,4,-1529
1553,17.896647,15,93,817,1020,0,-1534
1554,17.908292,1295,-307,1041,1020,4,-1536
1555,17.91999,527,269,929,1018,-1,-1526
1556,17.931647,17,-670,-807,1018,0,-1534
1557,17.943291,-497,-83,705,1014,0,-1530
1558,17.954943,1039,-147,-2847,1019,0,-1525
1559,17.966632,1039,205,801,1018,-1,-1526
1560,17.978291,527,-611,833,1020,0,-1537
1561,17.98997,1039,-131,609,1019,0,-1533
1562,18.001625,1039,461,-2863,1018,0,-1530
1563,18.013192,1039,-115,977,1018,4,-1527
1564,18.024753,1295,-467,1041,1017,-1,-1531
1565,18.036323,271,-227,817,1018,0,-1527
1566,18.047873,16,-668,-807,1017,-1,-1530
1567,18.059432,-497,93,897,1022,1,-1524
1568,18.07097,15,-51,929,1018,-1,-1533
1569,18.082512,1295,285,1137,1020,-1,-1536
1570,18.094088,1039,93,849,1020,0,-1532
1571,18.105746,1295,-259,641,1016,1,-1532
1572,18.117442,1295,653,753,1019,-1,-1541
1573,18.12915,271,29,801,1020,-1,-1529
1574,18.140826,-497,-67,753,1020,1,-1536
1575,18.152531,19,-669,-804,1019,3,-1531
1576,18.1642,271,45,449,1018,-1,-1533
1577,18.178664,527,-83,721,1019,0,-1528
1578,18.190365,271,29,705,1017,1,-1529
1579,18.202022,-1009,285,593,1017,-4,-1531
1580,18.21359,1039,-179,833,1017,2,-1531
1581,18.225114,527,-195,657,1021,2,-1526
1582,18.236691,527,-19,1169,1020,2,-1530
1583,18.248232,1039,381,449,1020,-1,-1531
1584,18.259772,15,285,593,1012,-2,-1532
1585,18.271325,1039,-259,417,1016,-1,-1532
1586,18.282891,271,-131,-2767,1016,-2,-1535
1587,18.294452,271,-419,-2607,1020,1,-1532
1588,18.306157,15,-19,1089,1017,2,-1535
1589,18.317859,1039,189,833,1021,0,-1524
1590,18.329539,1039,-67,785,1015,1,-1538
1591,18.341184,15,333,625,1017,0,-1531
1592,18.352877,-2033,45,1041,1017,-2,-1533
1593,18.36458,15,-179,625,1017,-2,-1529
1594,18.376246,15,-668,-805,1019,2,-1526
1595,18.387903,271,-19,833,1020,2,-1529
1596,18.399582,15,13,1137,1020,-2,-1537
1597,18.411253,1039,-67,-2543,1021,0,-1530
1598,18.422819,15,125,593,1018,-1,-1532
1599,18.434367,527,93,1009,1021,-1,-1529
1600,18.445936,527,173,-2751,1019,-4,-1531
1601,18.457509,1295,-227,577,1019,-1,-1523
1602,18.469094,527,-291,945,1017,0,-1528
1603,18.480678,1039,-67,401,1021,0,-1528
1604,18.492233,-753,-131,513,1020,0,-1525
1605,18.503836,-753,45,1057,1019,-3,-1527
1606,18.515497,1039,253,945,1020,0,-1532
1607,18.527154,-2033,109,-2751,1017,-1,-1538
1608,18.5388,15,13,625,1017,0,-1530
1609,18.550481,15,77,-2319,1019,0,-1538
1610,18.562142,16,-670,-806,1020,0,-1535
1611,18.573855,1039,-243,1137,1018,0,-1525
1612,18.585498,15,477,977,1017,-1,-1537
1613,18.597164,271,61,849,1017,3,-1536
1614,18.60891,527,-323,977,1016,-1,-1533
1615,18.620574,527,-163,1137,1016,0,-1526
1616,18.63213,18,-668,-805,1016,2,-1524
1617,18.643697,15,269,961,1020,0,-1527
1618,18.655278,-497,301,-2767,1019,-1,-1527
1619,18.666829,1039,-275,1121,1016,0,-1528
1620,18.67839,18,-668,-806,1017,1,-1534
1621,18.689944,271,-323,993,1019,0,-1527
1622,18.701492,271,77,-2495,1020,1,-1523
1623,18.713051,17,-671,-803,1018,0,-1532
1624,18.724661,527,285,577,1022,-3,-1530
1625,18.736317,15,461,-2863,1019,-2,-1530
1626,18.747978,1295,141,401,1017,-1,-1534
1627,18.75963,16,-668,-806,1016,-1,-1532
1628,18.771278,271,301,305,1018,0,-1526
1629,18.782939,19,-670,-807,1019,1,-1529
1630,18.794591,15,-339,-2863,1017,0,-1530
1631,18.806243,1295,493,913,1017,2,-1534
1632,18.817948,1295,-67,241,1019,0,-1525
1633,18.829597,15,-211,1041,1019,0,-1535
1634,18.841229,527,461,833,1019,0,-1531
1635,18.852814,-497,205,753,1018,0,-1527
1636,18.864379,30,-803,1057,1014,0,-1530
1637,18.875937,-497,-179,737,1018,0,-1528
1638,18.887481,527,-115,993,1018,0,-1531
1639,18.899023,1295,-163,1057,1019,-1,-1532
1640,18.910569,16,-670,-809,1019,1,-1532
1641,18.922124,1295,157,993,1021,1,-1530
1642,18.933742,15,-668,-806,1018,-1,-1535
1643,18.94545,527,-99,817,1016,2,-1528
1644,18.957151,1295,-291,929,1019,0,-1531
1645,18.968812,1039,269,577,1020,0,-1529
1646,18.980505,1039,-3,785,1020,-1,-1524
1647,18.992163,271,493,289,1020,-2,-1531
1648,19.00385,17,-670,-806,1013,0,-1540
1649,19.015492,527,77,449,1016,1,-1533
1650,19.027133,15,45,1121,1016,3,-1538
1651,19.038683,15,-579,625,1020,0,-1530
1652,19.050222,527,189,-2815,1020,0,-1532
1653,19.061767,271,-515,929,1018,2,-1534
1654,19.073372,1295,-275,1137,1014,1,-1527
1655,19.084925,-1009,-83,-2847,1017,4,-1531
1656,19.096496,15,93,705,1019,2,-1534
1657,19.108066,15,-19,1185,1014,0,-1529
1658,19.11962,527,-67,1025,1020,-2,-1530
1659,19.13119,1295,45,1041,1018,-1,-1534
1660,19.142886,527,-147,641,1017,0,-1532
1661,19.154527,1039,429,1169,1016,-1,-1529
1662,19.166197,15,-3,945,1019,-4,-1529
1663,19.177866,15,-67,785,1019,2,-1534
1664,19.189545,1039,61,769,1020,-2,-1534
1665,19.201169,15,-147,881,1019,0,-1527
1666,19.212869,15,269,-2735,1018,-3,-1528
1667,19.224549,15,-51,1169,1019,-2,-1533
1668,19.236225,15,237,1105,1019,2,-1526
1669,19.247881,271,-403,-2799,1015,0,-1533
1670,19.259539,-497,653,1153,1019,1,-1525
1671,19.271208,1039,-35,833,1021,1,-1531
1672,19.282863,1039,77,-2831,1019,0,-1533
1673,19.294514,1039,-147,-2767,1019,3,-1540
1674,19.3062,1295,493,961,1018,1,-1528
1675,19.317861,16,-667,-807,1021,0,-1528
1676,19.329648,1039,333,753,1018,1,-1530
1677,19.341322,527,-243,929,1020,-1,-1527
1678,19.352922,527,-211,1041,1020,0,-1531
1679,19.3645,18,-667,-807,1019,-1,-1526
1680,19.376054,1039,-659,881,1019,1,-1530
1681,19.387597,1295,253,-2751,1018,0,-1529
1682,19.399136,15,45,977,1019,-2,-1531
1683,19.410689,15,-35,977,1018,-2,-1526
1684,19.42223,-497,-611,1169,1015,-1,-1526
1685,19.433788,15,205,1137,1018,0,-1527
1686,19.445449,1039,653,897,1016,0,-1534
1687,19.457113,1039,221,-2703,1022,1,-1528
1688,19.468785,1039,189,881,1019,-1,-1533
1689,19.480436,527,237,-2863,1019,2,-1526
1690,19.4921,-497,-99,801,1018,3,-1533
1691,19.503755,15,621,577,1016,0,-1531
1692,19.515405,271,-3,641,1020,-2,-1534
1693,19.52707,1807,-115,1185,1019,5,-1533
1694,19.538768,15,-670,-804,1015,2,-1534
1695,19.550444,15,-323,-2607,1021,0,-1531
1696,19.562001,527,-147,737,1018,2,-1529
1697,19.573589,-497,-323,481,1016,3,-1528
1698,19.585231,-497,13,689,1015,-5,-1531
1699,19.596807,527,285,1121,1018,0,-1538
1700,19.608376,15,77,-2831,1017,0,-1537
1701,19.619929,271,-339,129,1018,0,-1533
1702,19.631474,18,-668,-805,1014,-1,-1530
1703,19.643034,1039,189,289,1022,-4,-1533
1704,19.654657,1039,301,417,1020,-6,-1532
1705,19.666305,1039,557,417,1021,3,-1532
1706,19.677973,-1009,13,721,1019,1,-1529
1707,19.68963,527,-83,737,1017,2,-1530
1708,19.701295,271,-307,641,1015,2,-1530
1709,19.712969,1295,301,-2767,1020,-1,-1533
1710,19.724643,527,-307,673,1022,1,-1533
1711,19.736292,15,29,-2543,1019,-3,-1528
1712,19.747979,15,-147,1025,1020,-1,-1530
1713,19.759633,-1009,237,-2863,1015,2,-1532
1714,19.771217,271,157,-2799,1020,4,-1528
1715,19.782798,1039,-147,961,1018,1,-1530
1716,19.794352,271,-83,-2527,1020,-1,-1537
1717,19.805927,-497,-243,145,1016,-1,-1535
1718,19.817481,17,-668,-806,1014,0,-1528
1719,19.829027,271,-19,737,1017,-3,-1532
1720,19.840577,271,77,689,1019,0,-1530
1721,19.852136,-1777,189,1025,1018,3,-1529
1722,19.863755,15,-131,993,1020,-1,-1530
1723,19.875408,-753,-451,817,1017,1,-1534
1724,19.887082,1039,-163,993,1021,2,-1529
1725,19.898738,1295,-243,865,1018,2,-1530
1726,19.910394,17,-669,-808,1020,0,-1534
1727,19.922085,15,-195,625,1020,-3,-1534
1728,19.933737,15,-483,785,1015,0,-1531
1729,19.945428,-497,29,961,1021,-1,-1531
1730,19.957167,1807,13,817,1019,1,-1532
1731,19.968822,15,285,593,1022,0,-1529
1732,19.980387,19,-666,-806,1019,0,-1528
1733,19.991939,15,269,817,1016,2,-1533
1734,20.003515,527,589,289,1021,0,-1532
1735,20.015055,1039,-499,-2719,1017,1,-1527
1736,20.026623,1039,269,833,1024,3,-1531
1737,20.038179,15,-51,-15,1021,0,-1529
1738,20.049729,271,-179,817,1019,0,-1532
1739,20.061303,-497,61,1153,1019,0,-1529
1740,20.072911,271,-531,801,1013,2,-1532
1741,20.084583,1295,445,465,1018,0,-1532
1742,20.096238,1039,-275,497,1019,0,-1539
1743,20.107885,1039,-51,1057,1019,2,-1532
1744,20.11955,527,93,17,1018,4,-1529
1745,20.1312,1295,109,945,1020,0,-1537
1746,20.142857,527,13,1121,1018,-1,-1528
1747,20.154504,1039,29,945,1021,1,-1525
1748,20.166157,15,-227,-2639,1019,2,-1533
1749,20.177829,15,141,369,1020,0,-1533
1750,20.18949,15,-19,753,1018,3,-1535
1751,20.201155,1039,557,881,1018,0,-1529
1752,20.212813,527,221,433,1019,-2,-1531
1753,20.22451,1039,173,-2863,1022,1,-1533
1754,20.236152,15,61,945,1020,0,-1534
1755,20.24783,1039,-19,993,1019,0,-1533
1756,20.259485,1039,237,513,1016,0,-1529
1757,20.271157,-497,-211,593,1019,0,-1531
1758,20.282827,271,-147,753,1018,0,-1534
1759,20.294483,-497,-243,833,1021,0,-1532
1760,20.306129,271,-355,1169,1015,-2,-1526
1761,20.317824,1295,525,561,1013,-1,-1527
1762,20.329498,271,397,737,1014,0,-1532
1763,20.341189,1039,413,337,1014,-2,-1533
1764,20.352855,527,-579,1105,1018,4,-1535
1765,20.364536,15,-51,481,1019,0,-1533
1766,20.376207,1039,-67,993,1018,1,-1531
1767,20.387807,16,-670,-806,1018,1,-1531
1768,20.399362,1039,-19,-2623,1019,-1,-1524
1769,20.410915,17,-667,-808,1018,-1,-1526
1770,20.42245,1039,205,961,1020,4,-1528
1771,20.433987,15,-99,1089,1015,-3,-1531
1772,20.445542,15,381,881,1016,4,-1529
1773,20.457102,271,-131,-2671,1016,1,-1529
1774,20.468675,1039,445,897,1019,0,-1528
1775,20.480249,271,573,593,1019,-4,-1538
1776,20.491875,15,-51,1169,1018,0,-1530
1777,20.503567,15,221,769,1020,-1,-1532
1778,20.515221,1039,-147,-2783,1016,-3,-1531
1779,20.526874,1295,77,-2687,1019,0,-1528
1780,20.538521,16,-668,-806,1019,0,-1532
1781,20.550199,15,-147,-2751,1016,2,-1529
1782,20.561861,1039,525,1057,1016,-1,-1533
1783,20.573539,271,237,721,1020,0,-1535
1784,20.585179,15,-3,-2783,1022,-1,-1530
1785,20.596881,1295,-547,737,1018,0,-1539
1786,20.608449,16,-668,-805,1018,1,-1531
1787,20.620049,271,-195,-2831,1018,-2,-1534
1788,20.631601,1039,445,913,1019,0,-1529
1789,20.643171,1039,-499,657,1017,2,-1531
1790,20.654712,527,-35,1121,1018,-2,-1528
1791,20.666296,1039,285,1009,1018,-1,-1535
1792,20.677843,527,509,945,1017,4,-1532
1793,20.689425,17,-670,-807,1021,0,-1539
1794,20.70106,-753,-387,865,1020,-1,-1535
1795,20.712633,15,477,897,1020,-2,-1532
1796,20.724176,1039,-275,609,1023,0,-1531
1797,20.735719,1039,61,1089,1014,-1,-1531
1798,20.747264,527,29,977,1019,2,-1529
1799,20.758814,-497,-131,1073,1020,-1,-1529
1800,20.770385,527,61,-2703,1017,0,-1529
1801,20.781936,-497,-115,625,1019,-2,-1524
1802,20.793543,1039,61,1121,1016,0,-1530
1803,20.805174,1295,493,1057,1017,-4,-1528
1804,20.816896,-497,237,369,1018,3,-1536
1805,20.828599,1039,-83,881,1020,2,-1529
1806,20.840245,1039,93,865,1019,0,-1536
1807,20.851892,271,93,993,1018,-1,-1531
1808,20.86355,15,333,721,1018,-3,-1541
1809,20.875221,271,45,977,1020,1,-1535
1810,20.886868,15,-19,-2399,1016,2,-1534
1811,20.898531,15,-403,817,1020,4,-1525
1812,20.910208,15,-115,833,1017,0,-1531
1813,20.921861,1039,-668,-806,1017,1,-1532
1814,20.933557,19,-670,-805,1016,1,-1535
1815,20.945229,1039,237,609,1020,-2,-1536
1816,20.956901,1039,221,353,1019,2,-1528
1817,20.968561,-497,-419,785,1016,0,-1530
1818,20.98022,15,525,865,1020,0,-1531
1819,20.991861,15,573,1009,1020,-3,-1523
1820,21.003518,15,-275,897,1018,-1,-1534
1821,21.015211,15,509,385,1020,0,-1531
1822,21.026789,271,509,673,1020,0,-1531
1823,21.03834,19,-668,-806,1020,-2,-1530
1824,21.049908,1039,-67,785,1017,-1,-1534
1825,21.061474,527,77,801,1015,0,-1535
1826,21.073062,-753,285,-2799,1022,0,-1534
1827,21.084627,-497,301,1041,1020,0,-1527
1828,21.096175,271,-275,897,1019,-1,-1530
1829,21.10773,527,573,865,1016,-1,-1526
1830,21.119368,527,29,449,1015,-1,-1534
1831,21.131035,15,-323,-2703,1020,-1,-1529
1832,21.142701,271,765,-2847,1016,0,-1532
1833,21.15435,-753,525,865,1019,0,-1525
1834,21.166024,20,-669,-806,1021,1,-1525
1835,21.177687,527,93,1121,1017,3,-1534
1836,21.189345,15,-669,-806,1023,2,-1525
1837,21.201036,1039,-259,929,1021,1,-1530
1838,21.212711,-497,-243,1073,1019,1,-1533
1839,21.224392,15,141,1041,1017,0,-1533
1840,21.236064,271,-227,1121,1017,2,-1527
1841,21.247724,15,109,1121,1017,3,-1529
1842,21.259374,1039,77,1169,1020,-1,-1532
1843,21.271023,1295,-99,657,1019,0,-1527
1844,21.282665,271,61,657,1021,1,-1530
1845,21.294323,1039,205,1153,1023,1,-1527
1846,21.305979,-1009,-35,865,1014,-2,-1534
1847,21.317711,18,-670,-806,1020,1,-1531
1848,21.32936,1295,765,785,1017,0,-1528
1849,21.341033,15,493,561,1017,-1,-1532
1850,21.352711,1807,-499,833,1017,2,-1537
1851,21.364378,1039,45,593,1016,0,-1534
1852,21.376023,1039,-163,785,1018,0,-1530
1853,21.387695,527,301,849,1016,3,-1538
1854,21.399361,1039,-147,833,1018,3,-1531
1855,21.411013,1039,253,657,1021,1,-1522
1856,21.422752,527,-35,705,1020,0,-1532
1857,21.434401,15,189,1089,1014,2,-1523
1858,21.445953,20,-671,-806,1020,3,-1533
1859,21.457531,-497,13,561,1015,2,-1529
1860,21.469097,15,-243,721,1021,-1,-1524
1861,21.480626,1295,-131,577,1018,0,-1529
1862,21.492172,15,-627,1105,1012,0,-1528
1863,21.503715,15,93,1153,1020,0,-1530
1864,21.515259,1295,205,1121,1017,-1,-1526
1865,21.526815,15,93,881,1017,-1,-1531
1866,21.538454,-2033,61,705,1014,-1,-1534
1867,21.550097,1295,-3,1217,1017,2,-1530
1868,21.56175,527,157,1201,1018,2,-1522
1869,21.573446,1039,269,753,1015,4,-1527
1870,21.585094,1295,77,801,1020,0,-1535
1871,21.596776,15,61,1073,1020,1,-1533
1872,21.608446,271,173,465,1018,0,-1530
1873,21.620091,-497,333,-2671,1023,0,-1530
1874,21.631764,527,525,-2735,1021,0,-1535
1875,21.643463,271,141,481,1016,0,-1529
1876,21.655019,271,45,945,1016,-2,-1532
1877,21.666568,271,-67,817,1019,1,-1524
1878,21.678146,271,-515,929,1022,1,-1535
1879,21.689714,1039,-403,1137,1020,1,-1532
1880,21.701279,16,-668,-805,1017,0,-1524
1881,21.712846,-497,-163,641,1018,1,-1528
1882,21.724384,271,-147,1057,1018,0,-1529
1883,21.735943,1295,205,545,1017,-4,-1526
1884,21.747571,271,-51,865,1018,0,-1534
1885,21.759227,-497,45,1105,1020,-2,-1529
1886,21.770874,15,45,961,1019,2,-1532
1887,21.782538,271,93,881,1018,1,-1527
1888,21.794196,1039,-3,721,1017,3,-1528
1889,21.805867,-497,-547,-2719,1018,6,-1532
1890,21.817548,527,493,753,1014,0,-1529
1891,21.82922,17,-669,-805,1019,3,-1529
1892,21.840905,15,45,721,1019,3,-1532
1893,21.852588,1039,-339,657,1019,-2,-1530
1894,21.864163,527,-195,-2799,1018,5,-1531
1895,21.875729,527,93,1201,1015,2,-1531
1896,21.887279,1039,221,1185,1021,-3,-1528
1897,21.898829,15,285,1057,1020,-1,-1528
1898,21.910392,271,573,881,1020,2,-1530
1899,21.921948,527,93,513,1020,2,-1529
1900,21.933549,15,-51,161,1019,-1,-1528
1901,21.94512,271,365,897,1012,4,-1533
1902,21.956809,1039,-179,673,1016,2,-1531
1903,21.96846,527,-83,1169,1019,0,-1536
1904,21.98011,17,-670,-806,1014,0,-1532
1905,21.991769,527,493,881,1016,2,-1536
1906,22.003435,1807,-323,-2799,1017,-1,-1530
1907,22.015088,1039,269,977,1012,-1,-1530
1908,22.026741,271,-211,81,1017,1,-1527
1909,22.038402,271,301,1073,1015,0,-1530
1910,22.050053,1039,-99,833,1015,0,-1533
1911,22.0616,15,-243,-2607,1015,3,-1524
1912,22.07315,527,-179,-2847,1018,-2,-1532
1913,22.084707,15,-195,929,1022,3,-1530
1914,22.096303,15,173,-2799,1022,-4,-1529
1915,22.107874,18,-668,-808,1013,-3,-1528
1916,22.119413,1295,-99,-2799,1015,-2,-1532
1917,22.130957,-497,77,1137,1016,3,-1532
1918,22.142514,1039,701,609,1021,0,-1533
1919,22.154133,1039,-83,929,1019,-2,-1535
1920,22.165803,527,381,1121,1019,2,-1535
1921,22.177487,16,-668,-807,1018,0,-1533
1922,22.189179,15,189,945,1016,0,-1530
1923,22.200849,16,-668,-806,1015,2,-1532
1924,22.212531,15,61,961,1016,0,-1526
1925,22.224203,271,13,1025,1017,2,-1527
1926,22.235855,271,429,577,1022,-1,-1523
1927,22.24751,1295,685,1201,1021,1,-1538
1928,22.259063,527,461,769,1017,0,-1531
1929,22.270621,1295,605,593,1017,1,-1529
1930,22.282169,1295,141,769,1020,3,-1529
1931,22.293784,1295,397,1073,1025,0,-1526
1932,22.305349,1295,333,433,1020,2,-1524
1933,22.316869,1295,781,769,1023,3,-1532
1934,22.328451,1295,381,-2735,1017,0,-1533
1935,22.340038,15,173,961,1021,0,-1529
1936,22.351601,1039,77,609,1019,0,-1526
1937,22.363212,15,93,577,1017,-1,-1530
1938,22.374863,1039,-243,929,1019,-2,-1538
1939,22.386513,1039,-67,1073,1017,0,-1529
1940,22.398186,17,-670,-807,1017,2,-1531
1941,22.409838,527,157,993,1020,0,-1528
1942,22.421489,18,-669,-807,1019,0,-1533
1943,22.433178,1039,525,673,1018,1,-1525
1944,22.444841,1295,349,1137,1018,-3,-1533
1945,22.456539,15,413,673,1017,1,-1534
1946,22.468208,271,461,-2543,1018,-3,-1531
1947,22.479781,1807,-99,913,1015,0,-1533
1948,22.491325,1039,-339,929,1020,0,-1529
1949,22.502866,271,141,-2735,1018,1,-1526
1950,22.514413,1295,157,1057,1020,0,-1530
1951,22.525955,271,-403,913,1016,-3,-1530
1952,22.537508,1295,285,337,1020,4,-1534
1953,22.54908,18,-670,-806,1019,0,-1533
1954,22.560652,15,-515,945,1017,0,-1529
1955,22.572288,271,621,1201,1017,0,-1529
1956,22.583949,527,125,833,1019,1,-1528
1957,22.595597,1039,717,737,1019,-2,-1528
1958,22.607249,527,-19,849,1015,-1,-1532
1959,22.618891,-2033,-275,977,1017,-1,-1529
1960,22.630535,1295,-19,1121,1016,-2,-1527
1961,22.642194,1039,317,705,1020,2,-1522
1962,22.654,271,-19,673,1020,2,-1537
1963,22.665728,271,173,-2815,1019,2,-1532
1964,22.677431,1039,221,401,1020,-3,-1532
1965,22.689091,1039,221,513,1017,-2,-1531
1966,22.700783,271,-67,513,1020,3,-1529
1967,22.712459,527,173,625,1020,1,-1532
1968,22.724114,271,-19,865,1017,0,-1532
1969,22.7358,18,-669,-808,1019,0,-1529
1970,22.747454,1039,109,-2799,1018,0,-1527
1971,22.759103,-2033,-403,-2847,1016,6,-1530
1972,22.770779,271,317,1185,1019,-1,-1531
1973,22.782472,271,-179,993,1017,-3,-1529
1974,22.794036,1039,413,1137,1017,2,-1539
1975,22.805596,1039,-275,-2767,1022,0,-1537
1976,22.817149,15,381,1121,1020,0,-1536
1977,22.828709,271,109,-2847,1016,0,-1530
1978,22.840256,1039,381,1057,1016,-2,-1527
1979,22.851802,1807,413,657,1014,-1,-1532
1980,22.863346,1295,237,913,1020,0,-1530
1981,22.874904,-1777,-355,33,1023,0,-1535
1982,22.886609,1039,-195,801,1019,-2,-1535
1983,22.898287,1039,205,1057,1020,0,-1532
1984,22.909937,527,221,-2815,1018,0,-1533
1985,22.921617,1039,605,817,1017,0,-1527
1986,22.933306,15,-163,1121,1021,2,-1529
1987,22.944968,271,285,849,1015,0,-1527
1988,22.95665,1039,125,961,1020,-3,-1529
1989,22.96833,-497,29,1169,1014,3,-1533
1990,22.979977,1039,-131,1073,1017,-1,-1520
1991,22.991653,15,141,545,1022,2,-1529
1992,23.003209,-497,109,961,1016,0,-1532
1993,23.014793,17,-669,-808,1018,-1,-1535
1994,23.026338,1295,-387,385,1020,-4,-1532
1995,23.037894,15,-307,657,1020,0,-1525
1996,23.049457,527,221,657,1016,-2,-1525
1997,23.061003,1807,-19,529,1017,0,-1531
1998,23.072555,-1009,-131,881,1019,2,-1526
1999,23.084142,527,413,785,1017,2,-1530
