sample,t_s,gyro_x,gyro_y,gyro_z,accel_x,accel_y,accel_z
0,1.4e-05,-2575,-43,449,1027,0,-1539
1,0.01124,-2063,-11,401,1032,0,-1549
2,0.02243,-2575,-187,33,1029,3,-1540
3,0.033615,-271,501,289,1026,-2,-1547
4,0.044801,1009,-395,705,1032,3,-1541
5,0.055985,-271,-235,737,1029,0,-1538
6,0.067168,241,389,785,1027,0,-1538
7,0.07835,497,309,753,1032,1,-1546
8,0.089536,-2575,101,497,1031,-1,-1537
9,0.10072,241,277,865,1027,-2,-1545
10,0.111902,1265,-107,481,1031,2,-1544
11,0.123097,1265,341,833,1030,0,-1537
12,0.13428,1265,-27,-15,1032,0,-1541
13,0.145462,-2575,501,769,1030,0,-1544
14,0.156654,1265,-299,721,1029,-2,-1544
15,0.167837,241,-171,801,1032,0,-1545
16,0.178981,1265,-75,833,1032,0,-1537
17,0.190163,1009,53,785,1031,0,-1538
18,0.201345,497,149,641,1032,0,-1545
19,0.212527,1009,101,801,1031,0,-1545
20,0.223711,1265,341,385,1030,0,-1545
21,0.234911,1009,-203,177,1036,2,-1548
22,0.246094,497,-11,481,1031,0,-1546
23,0.25728,1265,-251,785,1031,0,-1543
24,0.26847,-1551,373,497,1034,-2,-1546
25,0.279653,-525,-660,-1126,1033,-2,-1546
26,0.2908,241,-571,-799,1028,0,-1548
27,0.301984,1009,117,625,1031,-2,-1542
28,0.313169,1009,-459,401,1029,0,-1542
29,0.324354,-2575,-59,865,1030,0,-1545
30,0.335537,1009,165,769,1031,0,-1544
31,0.346731,-523,-661,-1125,1031,-2,-1541
32,0.357912,1265,453,625,1032,-3,-1550
33,0.369096,497,165,-3151,1031,1,-1539
34,0.380277,1265,229,241,1032,-1,-1533
35,0.391464,497,5,-3119,1032,-1,-1545
36,0.402612,1265,117,465,1032,0,-1542
37,0.413791,497,69,289,1032,0,-1549
38,0.424974,1009,293,577,1030,0,-1539
39,0.436156,1009,37,817,1028,4,-1538
40,0.447345,1009,37,705,1032,2,-1545
41,0.458539,1265,149,689,1030,0,-1548
42,0.46972,-2575,421,689,1033,1,-1544
43,0.480902,1009,373,305,1034,-2,-1546
44,0.492089,1265,597,145,1032,0,-1541
45,0.50328,-2063,37,-3183,1029,1,-1548
46,0.514428,1009,-123,529,1032,-3,-1544
47,0.525611,1009,-219,561,1032,3,-1544
48,0.536794,497,-235,401,1032,0,-1548
49,0.547977,1009,-187,625,1032,0,-1543
50,0.559168,-1807,69,-2559,1028,0,-1542
51,0.570351,1009,149,321,1031,-1,-1543
52,0.581533,-526,-659,-1127,1028,4,-1544
53,0.592716,241,405,-127,1027,1,-1539
54,0.603899,1009,213,721,1032,0,-1541
55,0.615093,497,325,-3135,1030,-2,-1542
56,0.626275,1009,-59,273,1032,0,-1541
57,0.637457,1009,613,385,1027,1,-1552
58,0.648644,1265,165,225,1032,0,-1542
59,0.659826,1265,165,449,1033,-5,-1550
60,0.670981,1009,581,481,1033,-4,-1544
61,0.682162,1265,549,401,1029,-1,-1541
62,0.693341,-2063,-123,801,1031,1,-1546
63,0.704526,1009,-171,529,1030,1,-1543
64,0.71571,1265,-27,465,1033,0,-1546
65,0.726912,1009,181,737,1030,-4,-1550
66,0.738095,1265,469,-3167,1029,0,-1540
67,0.749281,-2063,-603,-783,1029,1,-1547
68,0.76047,1265,-123,785,1030,0,-1544
69,0.771654,1009,101,-3103,1031,1,-1542
70,0.782802,1009,389,481,1036,-3,-1541
71,0.793987,1009,-571,49,1028,0,-1538
72,0.805171,1009,261,273,1030,2,-1543
73,0.816358,1265,-315,593,1034,-2,-1545
74,0.827543,497,133,337,1031,0,-1548
75,0.838731,1009,389,657,1031,-1,-1541
76,0.849916,497,-539,-591,1028,-1,-1543
77,0.861104,497,-59,177,1032,2,-1544
78,0.872286,1009,-75,-31,1032,-1,-1541
79,0.883472,1009,69,577,1026,2,-1542
80,0.894615,1265,-331,385,1036,4,-1551
81,0.905798,1265,85,657,1033,0,-1548
82,0.916982,-271,-347,545,1031,-4,-1553
83,0.928164,1009,357,481,1027,-1,-1544
84,0.939354,-525,-661,-1125,1033,2,-1545
85,0.950542,241,229,-2511,1032,1,-1539
86,0.961725,-2575,341,209,1032,2,-1543
87,0.972911,241,-171,513,1032,0,-1547
88,0.984092,-526,-662,-1128,1030,-2,-1545
89,0.995279,1009,213,129,1032,1,-1543
90,1.006428,1009,309,769,1029,0,-1545
91,1.017609,497,261,-3007,1031,1,-1549
92,1.028797,241,-11,705,1030,-1,-1539
93,1.039998,-524,-661,-1125,1032,2,-1542
94,1.051169,-271,101,-2959,1031,2,-1542
95,1.06235,1009,277,817,1030,-2,-1545
96,1.073532,497,-27,529,1033,3,-1545
97,1.08474,-2063,5,417,1030,-3,-1542
98,1.095918,-2575,277,705,1028,3,-1545
99,1.107107,1009,101,465,1032,0,-1541
100,1.118288,497,309,801,1031,2,-1543
101,1.12947,497,133,449,1030,-5,-1546
102,1.140654,1009,-107,385,1028,0,-1550
103,1.151834,497,37,561,1031,-1,-1538
104,1.162983,-2047,-715,-3103,1032,2,-1540
105,1.174164,1009,-539,417,1029,-1,-1542
106,1.185347,1009,133,737,1030,1,-1541
107,1.196527,241,325,97,1032,1,-1549
108,1.207711,497,437,129,1029,3,-1545
109,1.218909,-2063,469,369,1031,1,-1546
110,1.230091,241,261,513,1029,0,-1542
111,1.241273,241,149,-3087,1030,-2,-1544
112,1.252453,1009,229,401,1032,0,-1540
113,1.263638,241,-299,-3183,1029,-4,-1539
114,1.274799,-2575,149,753,1030,-2,-1543
115,1.286003,1009,-139,785,1032,0,-1549
116,1.297386,1009,1013,337,1032,0,-1543
117,1.308628,-2575,53,529,1030,3,-1548
118,1.319825,1009,-379,449,1033,-1,-1541
119,1.330983,497,-27,-15,1030,0,-1537
120,1.342197,241,-587,65,1035,0,-1542
121,1.353386,497,789,-2799,1032,-1,-1540
122,1.364584,1009,-59,865,1028,0,-1540
123,1.375768,-2063,117,-3119,1028,3,-1535
124,1.386954,-2575,53,497,1031,1,-1539
125,1.398141,1265,21,-3007,1031,0,-1540
126,1.409323,1009,-315,369,1027,4,-1545
127,1.420506,1009,117,385,1030,1,-1547
128,1.431689,-524,-659,-1124,1035,1,-1541
129,1.442882,1009,-59,353,1029,0,-1541
130,1.454065,497,-43,449,1031,-4,-1544
131,1.465251,497,-59,513,1032,1,-1543
132,1.476434,1009,-251,881,1029,-1,-1549
133,1.487621,-526,-660,-1124,1029,0,-1545
134,1.498798,1009,149,289,1030,0,-1544
135,1.509981,1009,565,-2511,1030,3,-1540
136,1.521192,-527,149,129,1028,3,-1539
137,1.53238,-527,181,481,1029,-1,-1546
138,1.543568,1265,-187,577,1032,-1,-1542
139,1.554759,1265,197,-2879,1030,0,-1546
140,1.565944,1009,629,97,1032,0,-1540
141,1.57713,-2575,341,-2879,1029,1,-1538
142,1.588316,-2063,373,321,1035,-3,-1543
143,1.599508,-271,-155,657,1034,0,-1543
144,1.610704,497,5,-2367,1032,0,-1538
145,1.62189,1009,-235,-2895,1031,0,-1543
146,1.633077,1009,-235,385,1033,-1,-1546
147,1.644258,497,5,113,1032,-1,-1542
148,1.655444,497,-251,385,1032,1,-1548
149,1.666614,241,421,225,1029,0,-1541
150,1.677793,497,-187,385,1031,-1,-1545
151,1.688974,-2063,437,337,1031,-2,-1548
152,1.700154,1009,-59,81,1032,0,-1544
153,1.711351,1265,-299,-223,1032,2,-1543
154,1.722539,-2575,149,705,1031,0,-1545
155,1.733717,1009,149,65,1033,3,-1548
156,1.744899,-525,-659,-1126,1030,0,-1543
157,1.75608,1009,85,97,1029,-1,-1548
158,1.767273,1265,117,529,1030,0,-1545
159,1.778429,1009,-107,785,1032,1,-1548
160,1.789613,1009,165,689,1033,0,-1546
161,1.800795,-525,-661,-1126,1035,0,-1546
162,1.811979,497,-139,897,1032,0,-1546
163,1.823166,497,-59,225,1032,-2,-1538
164,1.834348,1009,-171,593,1030,0,-1546
165,1.845531,-524,-664,-1127,1033,-1,-1545
166,1.856712,1009,485,113,1029,0,-1539
167,1.867908,241,-443,881,1030,1,-1547
168,1.879108,1009,-347,657,1032,1,-1544
169,1.890291,1009,-27,225,1028,2,-1549
170,1.901474,1009,-267,737,1030,-1,-1545
171,1.912654,-2575,-491,481,1032,-1,-1544
172,1.923838,-524,-661,-1126,1034,-7,-1539
173,1.934984,1265,53,-3023,1033,-2,-1546
174,1.946165,-2575,53,881,1030,2,-1549
175,1.957348,1009,-251,593,1033,1,-1540
176,1.968529,497,181,417,1029,-2,-1543
177,1.97971,-525,-660,-1126,1033,2,-1537
178,1.990909,1265,549,545,1028,0,-1540
179,2.002091,1009,405,81,1033,0,-1548
180,2.013273,1265,549,609,1032,0,-1547
181,2.024456,1009,133,737,1032,-3,-1545
182,2.035641,-2575,53,369,1032,2,-1542
183,2.046796,1009,-203,817,1032,3,-1545
184,2.057979,1265,453,849,1031,-2,-1541
185,2.069165,-2575,277,497,1030,-2,-1541
186,2.080363,-2063,-267,161,1030,0,-1543
187,2.091548,1009,-251,273,1031,2,-1542
188,2.102736,241,-187,849,1026,0,-1546
189,2.113921,1009,373,481,1030,-1,-1541
190,2.125124,1009,485,689,1027,0,-1538
191,2.136314,-271,-523,241,1032,-2,-1549
192,2.147506,1009,53,625,1030,-2,-1544
193,2.158693,497,229,-3071,1029,0,-1546
194,2.169876,1265,277,769,1029,2,-1541
195,2.181059,497,85,849,1032,0,-1550
196,2.192242,1009,21,177,1029,-1,-1543
197,2.203427,241,421,785,1032,0,-1541
198,2.21461,497,-363,-3167,1030,2,-1550
199,2.225805,1265,-171,-3119,1029,3,-1547
200,2.236997,-2063,53,273,1031,0,-1547
201,2.248188,497,-267,225,1031,-1,-1546
202,2.259353,-1807,-235,-2767,1034,0,-1543
203,2.27054,-2575,-475,513,1032,0,-1539
204,2.281723,1009,-43,-3183,1031,-2,-1537
205,2.292906,-271,-75,833,1030,2,-1537
206,2.304087,497,5,465,1032,-4,-1545
207,2.315278,497,197,481,1033,0,-1546
208,2.326428,-1807,357,625,1028,1,-1541
209,2.33761,497,37,513,1028,-1,-1542
210,2.348792,1265,5,529,1028,2,-1537
211,2.359973,1009,21,385,1030,0,-1548
212,2.371162,1009,837,641,1033,2,-1535
213,2.382341,-2575,245,-2735,1031,0,-1541
214,2.393531,1009,389,849,1029,0,-1539
215,2.404712,-2575,37,689,1032,0,-1544
216,2.415895,-2063,517,449,1029,0,-1541
217,2.427095,1265,245,673,1032,-2,-1540
218,2.438288,1009,437,593,1028,-1,-1545
219,2.449473,1009,117,65,1030,0,-1539
220,2.460656,241,309,17,1029,-3,-1542
221,2.47184,497,-411,-2655,1032,2,-1536
222,2.482985,497,181,641,1034,0,-1543
223,2.494168,-2575,37,241,1032,5,-1547
224,2.505354,-2063,-395,529,1033,2,-1539
225,2.516536,1009,101,321,1030,4,-1542
226,2.527718,1265,53,-1126,1030,-5,-1539
227,2.53891,497,149,497,1031,-3,-1541
228,2.550093,497,293,449,1030,-2,-1540
229,2.561276,1009,-123,641,1032,-3,-1545
230,2.572457,1265,357,433,1029,3,-1545
231,2.583652,1009,-267,513,1036,7,-1542
232,2.594797,497,101,817,1030,1,-1546
233,2.605981,1265,117,305,1031,-1,-1537
234,2.617163,-2575,-315,-2655,1027,0,-1543
235,2.628359,497,-363,-447,1028,-1,-1539
236,2.639542,1265,-107,369,1033,0,-1544
237,2.650741,497,-187,113,1031,0,-1544
238,2.661927,1265,-11,705,1033,0,-1547
239,2.673109,1265,389,737,1034,-1,-1545
240,2.684292,1009,-155,513,1031,-4,-1544
241,2.695478,-1551,-219,161,1034,-1,-1536
242,2.706663,1009,-251,449,1028,0,-1543
243,2.717848,1009,245,593,1025,-2,-1546
244,2.729031,-1807,325,225,1030,-2,-1541
245,2.740213,1009,21,-3167,1032,0,-1544
246,2.751399,1009,101,657,1031,0,-1537
247,2.762588,-271,325,305,1030,2,-1544
248,2.773771,-2575,-139,-2623,1028,-2,-1542
249,2.784955,-1807,181,177,1032,-1,-1541
250,2.796137,1009,-251,1,1028,3,-1540
251,2.807323,-2063,21,-2959,1035,0,-1550
252,2.818509,-2575,117,-3007,1029,0,-1537
253,2.829692,-2575,-219,241,1032,-3,-1545
254,2.840881,-271,277,865,1030,-3,-1537
255,2.852063,1009,293,657,1027,-2,-1540
256,2.863253,-2063,-171,113,1032,-2,-1544
257,2.874428,1265,229,305,1029,0,-1537
258,2.885611,497,421,81,1032,-2,-1542
259,2.896794,1009,325,-2895,1034,1,-1541
260,2.907975,-2575,117,673,1031,4,-1549
261,2.919168,1009,165,305,1029,-2,-1534
262,2.930355,497,565,737,1029,2,-1544
263,2.941543,1009,-203,369,1028,0,-1541
264,2.952728,1009,-571,513,1032,-1,-1548
265,2.963909,1009,-59,-3087,1032,2,-1539
266,2.975097,-2575,117,497,1031,1,-1541
267,2.98628,1269,165,529,1030,-2,-1542
268,2.99746,-2063,-11,305,1029,2,-1544
269,3.008644,497,101,65,1029,3,-1540
270,3.019825,1265,261,609,1027,0,-1544
271,3.030983,1009,-187,817,1033,2,-1543
272,3.042166,1009,69,321,1033,1,-1551
273,3.053348,1009,293,609,1032,0,-1545
274,3.06453,-524,-662,-1125,1033,0,-1543
275,3.07571,497,213,769,1029,-2,-1539
276,3.086924,1009,-603,657,1033,0,-1546
277,3.098112,497,-379,-3183,1029,0,-1541
278,3.109297,1009,-219,305,1034,0,-1540
279,3.120478,-523,-663,-1126,1032,-1,-1545
280,3.131677,-2063,117,465,1029,-1,-1543
281,3.142864,497,85,545,1031,0,-1541
282,3.15405,1265,325,865,1028,-1,-1538
283,3.165234,-2063,-75,433,1030,0,-1544
284,3.176424,241,197,481,1032,0,-1541
285,3.187624,1009,517,-399,1031,0,-1543
286,3.1988,1009,341,81,1029,-4,-1547
287,3.209987,497,293,289,1026,5,-1545
288,3.221181,-2575,245,769,1027,0,-1540
289,3.232368,497,517,705,1036,0,-1542
290,3.243557,-526,-660,-1126,1031,-2,-1537
291,3.254749,1009,-43,337,1031,-3,-1545
292,3.265934,241,85,609,1032,3,-1544
293,3.277121,497,181,545,1032,-1,-1542
294,3.288306,1009,309,-2143,1030,0,-1545
295,3.299509,1009,101,705,1026,-2,-1543
296,3.310695,1265,-187,257,1028,-3,-1544
297,3.321881,497,405,449,1029,-3,-1545
298,3.333064,1009,-251,-111,1027,-4,-1542
299,3.344256,-2575,-123,753,1032,-1,-1541
300,3.355442,-271,37,353,1029,0,-1549
301,3.366614,1009,373,145,1032,-2,-1543
302,3.377797,1009,-395,273,1029,0,-1536
303,3.388977,1265,-139,-2831,1033,-2,-1541
304,3.400159,1265,101,401,1029,2,-1539
305,3.411352,1009,357,817,1029,0,-1541
306,3.42254,497,-267,-255,1034,0,-1547
307,3.433723,1009,645,-3087,1027,-1,-1547
308,3.444908,-271,-123,-3183,1030,-1,-1537
309,3.456092,1009,5,305,1029,-1,-1550
310,3.467279,-2575,-283,369,1029,0,-1540
311,3.478433,-2575,21,33,1029,0,-1547
312,3.489624,497,-555,545,1028,-3,-1543
313,3.50082,1265,-27,385,1029,3,-1544
314,3.512009,-2063,213,257,1031,-3,-1540
315,3.52318,1265,-75,481,1032,-1,-1545
316,3.534366,1009,-43,545,1031,4,-1542
317,3.545556,1009,181,769,1032,-1,-1549
318,3.556743,-271,341,449,1033,2,-1546
319,3.567939,-2575,-459,529,1031,-2,-1543
320,3.579125,-2063,-59,-2543,1032,1,-1541
321,3.590309,1009,-395,-319,1031,0,-1545
322,3.601493,1009,-187,561,1027,1,-1542
323,3.61268,1009,373,417,1032,1,-1540
324,3.623862,241,517,529,1029,-3,-1543
325,3.635055,497,-187,-2575,1032,-2,-1538
326,3.646238,-2047,213,785,1032,2,-1543
327,3.657437,1009,-27,-3151,1029,-1,-1547
328,3.668625,-524,-661,-1127,1027,-4,-1535
329,3.679809,1009,149,705,1030,-1,-1546
330,3.690985,1009,-75,209,1030,0,-1547
331,3.702172,-2575,-59,417,1030,-2,-1546
332,3.713358,497,-187,769,1032,0,-1539
333,3.724545,1265,-11,577,1031,3,-1545
334,3.735728,1265,-75,513,1032,1,-1545
335,3.746925,1265,357,785,1029,-1,-1546
336,3.758109,1009,-171,-3151,1031,0,-1541
337,3.769304,-2575,261,641,1031,-2,-1538
338,3.780504,1009,37,-63,1031,0,-1543
339,3.791686,1265,-539,465,1032,0,-1545
340,3.802879,1265,5,897,1034,3,-1546
341,3.814061,1009,309,625,1025,0,-1542
342,3.825246,1009,181,113,1031,0,-1536
343,3.836428,-2063,69,49,1032,-2,-1536
344,3.84761,-2575,197,-2847,1032,1,-1542
345,3.8588,1009,-379,769,1029,0,-1548
346,3.869985,-2063,5,-3151,1028,-1,-1542
347,3.881167,-524,-662,-1125,1032,1,-1546
348,3.89235,-1551,69,657,1029,0,-1542
349,3.903528,-2063,165,369,1026,0,-1545
350,3.914721,1009,-27,897,1030,-1,-1544
351,3.92591,-2575,69,-3055,1032,1,-1542
352,3.937473,-271,-107,129,1031,-3,-1535
353,3.949149,1265,325,369,1031,0,-1544
354,3.960813,-2063,165,369,1033,-1,-1539
355,3.972457,497,-11,273,1035,-2,-1544
356,3.984105,-2575,-267,337,1031,-1,-1546
357,3.995774,1265,421,721,1032,2,-1547
358,4.007452,-1551,-219,753,1031,2,-1543
359,4.019146,241,-91,625,1032,2,-1544
360,4.030808,-525,-661,-1126,1031,-4,-1547
361,4.042356,1265,69,-3183,1028,-7,-1549
362,4.053929,1009,213,417,1029,2,-1538
363,4.065478,-2063,-27,-3119,1026,-3,-1539
364,4.077033,241,-475,-2287,1032,0,-1536
365,4.088625,1009,341,705,1032,0,-1547
366,4.100178,1009,-59,145,1030,-2,-1545
367,4.111816,1265,-107,577,1031,0,-1545
368,4.123371,1265,133,225,1030,0,-1544
369,4.134974,-1551,-155,1,1032,-2,-1551
370,4.146693,-525,-660,-1126,1030,1,-1542
371,4.158391,1009,725,577,1027,2,-1546
372,4.170053,497,-75,465,1031,0,-1547
373,4.181725,-2575,-43,561,1031,-5,-1545
374,4.193387,1009,213,609,1029,-2,-1549
375,4.20504,241,-123,305,1031,-3,-1541
376,4.216684,1265,197,-3135,1028,1,-1543
377,4.228386,1009,-331,657,1032,2,-1544
378,4.240048,-271,133,497,1026,0,-1544
379,4.251717,-2575,373,625,1030,3,-1544
380,4.263401,1265,53,-3135,1029,0,-1538
381,4.275046,-2063,-91,625,1028,0,-1542
382,4.286733,1009,533,177,1031,0,-1542
383,4.298393,-2063,-59,-3151,1029,-2,-1552
384,4.310026,-1551,165,673,1031,0,-1547
385,4.321672,1265,53,433,1029,3,-1537
386,4.333337,1265,-491,657,1030,-2,-1544
387,4.345035,1265,277,529,1033,1,-1537
388,4.356688,497,37,-3183,1030,0,-1543
389,4.368387,497,-11,-3103,1032,-3,-1540
390,4.380025,1009,117,145,1032,0,-1542
391,4.391699,1009,373,81,1027,-1,-1549
392,4.403396,-1551,101,641,1030,4,-1551
393,4.415041,-526,-660,-1125,1031,1,-1544
394,4.426734,1265,181,-2911,1032,-1,-1544
395,4.438393,497,-187,145,1029,0,-1545
396,4.450105,497,181,-3055,1027,-2,-1543
397,4.461838,1265,421,449,1033,2,-1547
398,4.473437,1265,149,481,1031,0,-1546
399,4.484991,241,-219,49,1031,0,-1544
400,4.496577,1009,149,641,1031,2,-1547
401,4.508121,1265,-267,673,1026,1,-1544
402,4.51968,-2575,-91,161,1029,0,-1546
403,4.531231,1009,149,657,1031,1,-1547
404,4.54278,1009,341,353,1033,-4,-1544
405,4.554337,497,-171,465,1031,-2,-1544
406,4.565989,-523,-659,-1127,1030,0,-1540
407,4.577647,1009,277,305,1030,0,-1546
408,4.589303,-1807,-27,657,1030,0,-1549
409,4.600952,-2575,-91,769,1032,2,-1545
410,4.612605,1009,309,417,1032,-3,-1545
411,4.62427,-2575,197,33,1029,0,-1547
412,4.63592,-2063,53,721,1026,-1,-1544
413,4.647574,-2575,341,721,1031,3,-1541
414,4.659272,-524,-662,-1125,1032,-5,-1546
415,4.670925,1009,-123,481,1031,1,-1541
416,4.682469,-2575,-283,753,1031,-4,-1542
417,4.694037,-2063,165,129,1032,0,-1547
418,4.705583,1265,-187,609,1029,0,-1545
419,4.717128,-526,-662,-1127,1032,1,-1540
420,4.728669,241,229,561,1029,0,-1544
421,4.740215,1265,293,-3119,1030,-2,-1543
422,4.751794,-2575,-395,417,1032,1,-1540
423,4.763382,241,-123,-3183,1030,-1,-1543
424,4.775004,-2575,69,433,1029,-3,-1544
425,4.786655,1009,149,705,1031,1,-1555
426,4.798312,-2575,485,337,1028,0,-1544
427,4.809954,-2063,-299,641,1028,0,-1544
428,4.8216,-525,-661,-1125,1031,0,-1544
429,4.833263,-2575,373,641,1032,1,-1542
430,4.844906,1265,293,513,1030,-1,-1551
431,4.85655,497,69,305,1029,0,-1544
432,4.86823,-2063,-235,433,1029,5,-1545
433,4.879899,1009,21,-3151,1031,0,-1546
434,4.891554,1265,-235,513,1031,-2,-1537
435,4.903247,1009,-395,17,1032,-3,-1544
436,4.9149,-2063,101,737,1032,-2,-1543
437,4.926599,1265,21,721,1032,0,-1543
438,4.938264,-2575,-75,-3023,1029,-1,-1543
439,4.949907,-1551,-283,593,1033,3,-1541
440,4.961555,1009,-331,17,1034,-2,-1534
441,4.973227,497,-11,-31,1032,2,-1550
442,4.984885,-2575,325,321,1029,0,-1550
443,4.996537,1265,-139,17,1027,2,-1552
444,5.008176,-524,-661,-1124,1032,0,-1546
445,5.019828,497,357,369,1030,-2,-1545
446,5.03151,497,245,673,1031,-1,-1544
447,5.04316,-2575,197,353,1032,-1,-1540
448,5.054804,-2063,-59,705,1033,0,-1551
449,5.066483,497,165,449,1035,0,-1546
450,5.07816,-2063,5,-2991,1031,4,-1541
451,5.08981,-1551,645,561,1031,0,-1548
452,5.101477,-525,-662,-1126,1027,-4,-1542
453,5.113131,497,-331,-3135,1032,-5,-1542
454,5.124793,-2063,341,673,1031,0,-1541
455,5.136552,-1039,37,-3183,1029,-3,-1546
456,5.148243,1265,-27,225,1030,-1,-1547
457,5.159921,1265,-187,-3023,1032,2,-1543
458,5.171605,-2063,341,337,1032,1,-1545
459,5.183272,-525,-663,-1124,1027,0,-1544
460,5.194973,-524,-662,-1127,1031,0,-1537
461,5.206542,-2575,101,497,1032,0,-1544
462,5.218088,497,645,657,1030,0,-1548
463,5.22965,-2575,213,625,1030,-1,-1542
464,5.241206,1009,293,-1127,1031,1,-1538
465,5.252751,1009,5,849,1031,2,-1542
466,5.264319,1009,-155,657,1030,-2,-1545
467,5.275881,1265,165,241,1034,2,-1549
468,5.28745,1009,453,753,1030,2,-1541
469,5.299147,-524,-660,-1124,1030,0,-1544
470,5.310804,-2575,-27,353,1030,0,-1542
471,5.322483,-2063,405,449,1031,0,-1539
472,5.334131,1009,-43,849,1030,-2,-1547
473,5.345782,1009,-107,753,1030,-1,-1544
474,5.357426,1265,277,289,1032,-2,-1543
475,5.369116,-271,-43,385,1026,-1,-1540
476,5.380768,497,245,817,1029,1,-1545
477,5.392414,1009,69,801,1034,3,-1540
478,5.40397,-2063,85,881,1031,0,-1545
479,5.41555,-2575,-187,865,1030,0,-1544
480,5.427112,-2063,-155,-2751,1032,0,-1537
481,5.438707,-2575,-27,481,1032,0,-1549
482,5.450257,1009,-91,609,1031,0,-1544
483,5.461821,-2063,213,769,1031,2,-1546
484,5.473366,1009,53,241,1031,-2,-1540
485,5.484951,-2063,53,369,1033,-2,-1549
486,5.496655,-2063,453,785,1030,-4,-1541
487,5.508311,1265,-507,817,1031,0,-1542
488,5.519957,-525,-659,-1125,1030,2,-1541
489,5.531636,-271,37,-223,1030,-3,-1546
490,5.543293,1265,277,-2943,1031,-7,-1541
491,5.554969,-1039,85,577,1029,-1,-1549
492,5.566625,-527,709,721,1025,0,-1538
493,5.578276,1265,21,337,1030,1,-1537
494,5.589932,-2575,-107,337,1030,2,-1548
495,5.601615,1009,21,897,1034,0,-1543
496,5.613208,497,293,449,1031,-3,-1538
497,5.624755,-2063,101,785,1032,3,-1545
498,5.636305,-2575,357,593,1028,-3,-1544
499,5.647859,-2575,-187,577,1033,-1,-1545
500,5.659443,-2063,-379,-3071,1027,0,-1541
501,5.671009,-2575,149,625,1032,-4,-1544
502,5.682604,1009,21,-2959,1032,0,-1539
503,5.694188,-2575,-171,817,1027,0,-1542
504,5.705798,-1551,677,369,1031,1,-1543
505,5.717472,1009,-251,305,1031,2,-1550
506,5.729124,1265,421,657,1033,-1,-1540
507,5.74077,1009,277,417,1027,1,-1545
508,5.752426,1265,229,561,1029,-2,-1546
509,5.764107,1265,-219,705,1031,-1,-1542
510,5.775767,1009,165,-3135,1032,1,-1544
511,5.787429,1009,-267,625,1032,-2,-1545
512,5.799145,-2575,-43,689,1034,0,-1543
513,5.810803,-2575,213,721,1030,1,-1544
514,5.822385,1009,-235,417,1032,-2,-1545
515,5.833936,-525,-661,-1124,1027,1,-1541
516,5.845481,1265,5,625,1026,1,-1536
517,5.857028,-2575,-171,337,1030,2,-1545
518,5.868592,1265,-251,497,1032,-2,-1548
519,5.880173,1009,661,545,1035,-5,-1545
520,5.891728,-2575,389,561,1032,0,-1544
521,5.903342,1265,-59,193,1032,0,-1543
522,5.915047,1009,197,-3151,1029,0,-1542
523,5.926744,-1807,-155,513,1032,0,-1544
524,5.938404,-1551,-347,449,1032,-1,-1541
525,5.950075,1009,373,81,1032,-3,-1542
526,5.961748,-526,-662,-1126,1032,2,-1541
527,5.973404,497,85,-2895,1028,0,-1544
528,5.985068,-1807,261,449,1031,1,-1545
529,5.996743,1265,149,-3087,1035,1,-1543
530,6.00841,-2575,-91,625,1034,-3,-1544
531,6.020067,497,-91,209,1032,0,-1540
532,6.031619,1009,5,529,1029,0,-1542
533,6.043205,-2063,469,-3071,1032,-4,-1542
534,6.054756,-525,-662,-1126,1031,0,-1542
535,6.066301,1265,-75,-2959,1032,0,-1543
536,6.077841,497,21,177,1032,-2,-1544
537,6.08941,1009,-187,465,1032,-1,-1539
538,6.100959,-2575,-11,-3119,1032,2,-1539
539,6.112521,-525,-123,337,1031,-1,-1545
540,6.124133,1009,133,401,1033,-1,-1546
541,6.13577,1009,117,-2991,1031,0,-1543
542,6.147419,1009,293,225,1032,0,-1547
543,6.159181,-524,-659,-1128,1032,0,-1545
544,6.170861,241,-267,897,1030,2,-1539
545,6.182527,497,245,689,1030,1,-1540
546,6.194186,-2063,501,-2991,1032,0,-1541
547,6.205838,1009,261,417,1032,0,-1541
548,6.217526,1009,69,673,1029,0,-1543
549,6.229199,1009,501,353,1032,-1,-1544
550,6.240878,1009,21,881,1028,3,-1543
551,6.252525,-2063,-187,529,1033,-1,-1545
552,6.264177,-2575,-251,417,1032,0,-1543
553,6.275866,497,229,481,1032,1,-1542
554,6.287515,1265,197,609,1030,3,-1542
555,6.299169,-1807,5,545,1029,-2,-1545
556,6.310858,-1551,-187,545,1029,1,-1545
557,6.322495,-2575,85,897,1028,3,-1541
558,6.334167,-2575,197,-31,1031,3,-1545
559,6.345726,-523,-660,-1126,1032,1,-1541
560,6.357313,1265,437,369,1034,-4,-1540
561,6.368863,1009,-123,353,1031,-2,-1545
562,6.380437,-2575,-171,-3087,1031,2,-1549
563,6.392087,1009,-155,657,1034,2,-1545
564,6.403671,1265,133,305,1030,0,-1546
565,6.415195,1009,469,657,1033,2,-1538
566,6.42677,1265,-411,769,1032,-1,-1546
567,6.438491,-525,-661,-1124,1031,-4,-1538
568,6.450143,-1807,53,497,1030,1,-1539
569,6.461794,-2063,517,625,1030,0,-1544
570,6.473466,1265,405,801,1028,-2,-1539
571,6.485131,1265,277,673,1032,2,-1546
572,6.496821,1009,453,705,1030,0,-1542
573,6.50847,497,-219,689,1033,0,-1542
574,6.520121,-2575,277,-143,1033,-1,-1544
575,6.53179,1009,229,465,1026,2,-1541
576,6.543456,-2063,133,481,1031,1,-1547
577,6.555014,497,53,449,1031,-2,-1545
578,6.566583,497,-299,225,1031,0,-1539
579,6.578125,-2575,85,801,1034,0,-1540
580,6.58968,1009,-155,753,1032,1,-1544
581,6.60123,241,277,481,1034,0,-1538
582,6.61283,1265,341,657,1029,-2,-1543
583,6.62438,1265,229,481,1033,3,-1544
584,6.63595,1265,85,401,1026,-2,-1544
585,6.647577,-2575,37,337,1032,2,-1542
586,6.659253,1009,325,753,1036,-4,-1541
587,6.670918,-2063,-27,385,1032,1,-1540
588,6.682629,1009,-27,625,1034,0,-1543
589,6.694285,-2063,261,385,1032,1,-1542
590,6.705924,1009,-107,273,1032,0,-1543
591,6.717568,497,117,705,1031,2,-1541
592,6.729255,-2063,357,401,1034,5,-1546
593,6.740897,1265,213,561,1029,1,-1544
594,6.752452,-2575,-75,513,1028,0,-1549
595,6.763997,-2063,37,257,1032,1,-1543
596,6.775559,1009,-107,609,1034,-3,-1539
597,6.787111,-2063,-203,-3183,1031,-1,-1546
598,6.798705,1009,101,625,1032,1,-1539
599,6.810253,1265,-315,385,1031,1,-1543
600,6.821815,1009,709,257,1030,-1,-1542
601,6.833357,1009,741,881,1033,-1,-1548
602,6.844905,-2063,101,817,1032,-16,-1547
603,6.856559,-2575,373,769,1032,0,-1549
604,6.868231,1009,-219,305,1032,0,-1543
605,6.879894,-527,181,-3007,1029,-2,-1543
606,6.891537,1009,-475,593,1031,0,-1544
607,6.903234,497,565,609,1031,-1,-1539
608,6.914897,1009,-219,497,1031,1,-1543
609,6.926576,-2575,117,209,1032,0,-1546
610,6.938253,-1551,277,305,1032,-1,-1543
611,6.94998,-271,-11,593,1032,-3,-1543
612,6.961636,-1551,69,433,1034,3,-1544
613,6.973284,1265,133,801,1027,-1,-1539
614,6.984972,-524,-661,-1128,1032,1,-1549
615,6.996626,-1551,-11,769,1031,3,-1547
616,7.008273,-2575,101,593,1031,-2,-1543
617,7.019925,241,405,337,1028,-2,-1545
618,7.031578,1009,341,-15,1030,-1,-1541
619,7.043256,241,5,97,1034,-1,-1543
620,7.054935,1265,597,481,1032,-1,-1543
621,7.066614,497,421,401,1028,1,-1546
622,7.078268,497,-203,609,1030,0,-1545
623,7.089907,-2575,725,897,1031,4,-1545
624,7.101552,1265,-11,673,1029,1,-1541
625,7.113223,1265,133,593,1032,2,-1548
626,7.124876,-2575,-379,-3135,1029,4,-1545
627,7.136521,1009,-283,-2943,1027,0,-1543
628,7.148173,1009,149,273,1030,0,-1537
629,7.159873,1009,149,593,1030,0,-1542
630,7.171528,497,-27,529,1032,0,-1545
631,7.183352,1009,341,-3023,1030,-2,-1548
632,7.195012,1009,21,609,1031,0,-1543
633,7.206679,1265,-43,465,1032,1,-1549
634,7.218332,-2575,149,769,1032,-2,-1544
635,7.230008,497,-283,-3103,1032,0,-1550
636,7.241668,1265,293,369,1030,-2,-1541
637,7.253326,-2063,261,145,1032,0,-1543
638,7.265011,1265,197,401,1034,3,-1539
639,7.276681,497,165,449,1026,1,-1547
640,7.288317,1009,181,641,1031,-1,-1546
641,7.300048,-1807,245,417,1028,0,-1542
642,7.311618,1009,-91,305,1034,1,-1537
643,7.323213,-2575,53,577,1031,-1,-1545
644,7.334767,-2063,53,657,1028,-1,-1545
645,7.346315,-2575,-123,769,1025,-1,-1541
646,7.357905,-1807,37,273,1032,-3,-1548
647,7.369451,497,-219,-2895,1034,-2,-1548
648,7.381005,497,469,-3135,1032,1,-1543
649,7.392568,-525,-661,-1125,1027,0,-1545
650,7.404122,1265,-107,401,1028,0,-1548
651,7.415675,1009,37,577,1033,0,-1546
652,7.427196,-1551,-107,849,1031,0,-1547
653,7.43871,1009,5,433,1033,-1,-1547
654,7.450253,-2063,-171,-47,1036,0,-1548
655,7.461797,497,117,657,1032,0,-1543
656,7.473355,1009,-315,865,1031,-1,-1537
657,7.485031,-2063,581,369,1030,2,-1550
658,7.496699,-2063,-43,625,1028,0,-1542
659,7.508393,1265,389,369,1030,0,-1548
660,7.520051,-2063,5,561,1033,1,-1541
661,7.531744,-2575,-123,513,1032,0,-1544
662,7.54341,1009,341,721,1031,4,-1541
663,7.555068,-2575,-171,-15,1032,1,-1536
664,7.566742,-525,-659,-1125,1032,0,-1546
665,7.578407,-526,-662,-1125,1031,-2,-1544
666,7.590091,1265,277,481,1029,1,-1539
667,7.601691,1009,389,769,1034,2,-1547
668,7.613236,-1551,389,-2975,1032,-2,-1542
669,7.624819,497,309,545,1029,0,-1545
670,7.636379,-2063,181,769,1031,0,-1547
671,7.647926,1009,245,881,1032,0,-1538
672,7.659483,-2575,-91,849,1029,0,-1543
673,7.671084,-524,485,785,1031,-3,-1544
674,7.682658,-2575,-251,-3039,1028,1,-1545
675,7.694273,-2063,389,289,1027,0,-1538
676,7.705928,1265,325,529,1034,-2,-1542
677,7.71758,-526,-660,-1126,1033,-1,-1546
678,7.729267,-2575,565,689,1029,0,-1541
679,7.740924,-2575,-11,833,1035,0,-1543
680,7.752573,1009,37,17,1031,-1,-1545
681,7.764228,1265,-123,897,1030,-1,-1545
682,7.775914,-1551,-283,385,1032,0,-1550
683,7.787606,-271,277,561,1034,0,-1546
684,7.799246,1265,293,193,1031,0,-1541
685,7.810835,-2063,-299,-3087,1031,-3,-1541
686,7.822383,497,421,401,1032,0,-1547
687,7.833935,-1551,245,849,1030,0,-1542
688,7.8455,-1551,-123,753,1030,-1,-1543
689,7.857052,1265,373,897,1033,1,-1541
690,7.868601,-1551,69,561,1028,1,-1538
691,7.880181,-1807,-27,417,1027,0,-1543
692,7.891745,-2063,533,721,1028,1,-1540
693,7.90344,1009,-171,-3103,1031,1,-1547
694,7.91513,-2575,-123,177,1034,0,-1550
695,7.926785,-2575,229,721,1032,-1,-1545
696,7.938483,-2575,53,833,1032,1,-1546
697,7.950127,1009,-187,369,1029,0,-1542
698,7.961779,241,133,-3135,1030,4,-1542
699,7.973441,1265,197,433,1029,1,-1535
700,7.985104,-2575,-75,305,1030,-1,-1540
701,7.996752,-2575,213,625,1032,0,-1541
702,8.008403,1009,389,369,1035,-4,-1540
703,8.020063,-2575,-59,-63,1029,1,-1541
704,8.031759,-524,-662,-1126,1032,0,-1548
705,8.043415,1265,-315,529,1032,1,-1547
706,8.055067,1009,245,641,1028,2,-1545
707,8.066734,497,181,-3135,1030,1,-1544
708,8.078381,497,69,-3119,1028,-1,-1543
709,8.090047,1265,-283,369,1032,3,-1536
710,8.101729,1265,277,689,1032,-2,-1543
711,8.11338,-2063,-171,785,1033,0,-1551
712,8.124946,-2575,293,481,1030,0,-1543
713,8.136529,1009,53,305,1030,0,-1538
714,8.148087,-2575,261,753,1029,5,-1547
715,8.159688,-2063,-427,689,1030,2,-1541
716,8.171234,497,37,193,1027,1,-1547
717,8.182791,-2575,21,-3039,1029,-2,-1540
718,8.194339,1265,357,513,1030,-2,-1546
719,8.20592,1265,277,849,1031,0,-1545
720,8.217543,-525,-660,-1125,1032,0,-1539
721,8.229205,1265,373,753,1029,0,-1546
722,8.240863,-2063,229,769,1032,0,-1544
723,8.252515,-2575,165,433,1029,1,-1546
724,8.264151,1265,21,-3039,1032,-2,-1547
725,8.27578,497,469,-3167,1035,-1,-1545
726,8.28745,-1551,-171,433,1031,0,-1540
727,8.299157,497,-203,513,1031,2,-1542
728,8.310828,-1807,245,801,1032,0,-1543
729,8.322489,-2063,373,33,1029,2,-1546
730,8.334047,-2575,-107,481,1030,1,-1536
731,8.3456,-2063,197,353,1033,-5,-1545
732,8.357176,-2063,421,593,1032,0,-1544
733,8.368728,-1807,133,753,1030,-1,-1542
734,8.3803,1009,-155,-2735,1026,0,-1546
735,8.391847,1009,53,-3103,1034,-1,-1540
736,8.403423,-525,-660,-1125,1032,0,-1542
737,8.414968,1265,421,593,1031,1,-1548
738,8.42661,497,229,273,1028,3,-1545
739,8.43826,-2575,37,785,1036,2,-1543
740,8.449904,497,-315,433,1029,0,-1544
741,8.461588,1009,-107,-319,1033,1,-1548
742,8.473247,-2063,549,465,1032,0,-1548
743,8.484895,1009,261,833,1032,0,-1544
744,8.496562,-1807,165,433,1031,3,-1551
745,8.508202,-2575,-43,753,1030,0,-1545
746,8.51992,241,165,289,1031,-3,-1536
747,8.53159,1009,-187,593,1030,0,-1549
748,8.543252,-527,-660,-1126,1029,0,-1540
749,8.5549,-1551,165,497,1029,1,-1543
750,8.566547,-271,181,337,1032,6,-1550
751,8.578222,1265,-107,737,1032,0,-1548
752,8.589867,497,-155,337,1031,0,-1547
753,8.601519,1009,197,321,1032,0,-1549
754,8.613179,-1039,245,529,1033,-1,-1547
755,8.624873,1009,5,33,1031,0,-1547
756,8.636522,-2063,309,609,1032,1,-1545
757,8.648184,-1551,117,81,1032,-2,-1541
758,8.659847,-1807,-491,513,1032,0,-1548
759,8.67151,-2575,149,753,1032,0,-1543
760,8.683164,1009,-187,545,1028,-1,-1541
761,8.694866,1265,389,753,1029,1,-1544
762,8.706519,-526,-659,-1126,1028,0,-1540
763,8.718182,1265,-43,273,1028,-1,-1552
764,8.729837,-523,-662,-1125,1027,1,-1547
765,8.741421,1009,-43,433,1032,0,-1549
766,8.75299,1265,405,-2911,1032,-1,-1545
767,8.764557,-2575,405,673,1029,0,-1545
768,8.776098,-2063,213,465,1035,-4,-1542
769,8.787668,1265,117,817,1028,0,-1540
770,8.799199,1265,597,705,1034,1,-1545
771,8.810759,-2575,197,817,1032,2,-1546
772,8.822313,-523,-661,-1128,1025,3,-1545
773,8.83388,-2063,293,561,1028,0,-1549
774,8.845505,-1551,389,465,1031,3,-1546
775,8.857152,-2575,117,529,1031,0,-1539
776,8.868799,1009,37,385,1033,0,-1540
777,8.880474,1265,-267,433,1032,0,-1550
778,8.892112,1009,-59,529,1028,-3,-1539
779,8.903775,1009,325,321,1032,-1,-1543
780,8.915443,1009,229,-3055,1030,-1,-1543
781,8.927122,-1807,373,145,1034,-3,-1544
782,8.93879,-2575,197,641,1029,4,-1548
783,8.950486,1265,-123,369,1027,-2,-1545
784,8.962043,1009,-91,577,1032,2,-1546
785,8.973606,1009,133,609,1030,0,-1546
786,8.985173,-2575,117,753,1030,-4,-1545
787,8.996731,-526,-661,-1127,1029,-1,-1546
788,9.008306,497,357,785,1032,1,-1541
789,9.01986,-2575,405,289,1034,0,-1542
790,9.031435,-2575,325,881,1030,-2,-1544
791,9.042956,1265,-91,-207,1032,2,-1543
792,9.054653,1009,197,737,1029,0,-1539
793,9.066336,1009,821,241,1030,4,-1544
794,9.077992,1009,341,801,1030,2,-1545
795,9.089642,1265,-251,65,1029,1,-1548
796,9.101316,-2575,277,241,1030,2,-1543
797,9.112972,1265,-171,257,1029,0,-1545
798,9.124619,1265,181,465,1032,2,-1542
799,9.136268,-525,-661,-1126,1030,-2,-1540
800,9.147955,-2575,85,737,1032,0,-1546
801,9.15961,-1807,101,-2719,1031,0,-1546
802,9.171195,-1807,293,513,1032,0,-1540
803,9.182712,1009,-59,705,1032,-3,-1544
804,9.194258,1265,501,-2847,1028,-2,-1544
805,9.205839,-2575,-203,497,1032,0,-1542
806,9.217412,-2575,-139,273,1033,2,-1544
807,9.228969,-1551,197,513,1029,-4,-1547
808,9.240554,-2575,-11,81,1031,1,-1545
809,9.252107,-2575,245,-3151,1032,-4,-1540
810,9.263757,-2575,85,369,1029,1,-1542
811,9.275417,-2575,373,577,1031,2,-1551
812,9.287069,-271,277,289,1032,-1,-1541
813,9.298735,1009,197,289,1033,-1,-1546
814,9.310374,1009,53,689,1033,0,-1546
815,9.322025,497,453,897,1030,0,-1543
816,9.333669,497,-75,657,1030,-3,-1543
817,9.345318,1009,309,865,1031,1,-1551
818,9.356996,-2575,-155,-2879,1032,0,-1548
819,9.368698,-2575,-27,513,1030,-2,-1547
820,9.380291,1009,-395,-3135,1026,2,-1535
821,9.391853,-2063,229,657,1032,0,-1541
822,9.403435,-2575,37,657,1035,1,-1547
823,9.414944,-1551,101,-2575,1032,-4,-1544
824,9.4265,-2063,-283,257,1033,0,-1537
825,9.438048,497,405,209,1030,2,-1543
826,9.449597,-1551,-123,-127,1030,-2,-1545
827,9.461166,1265,53,-3135,1029,0,-1544
828,9.472836,-2575,325,289,1030,1,-1546
829,9.484505,-783,-123,513,1035,1,-1538
830,9.496165,-2063,-171,641,1031,0,-1542
831,9.507824,1009,581,-3055,1030,-1,-1545
832,9.519512,1009,85,817,1032,-1,-1548
833,9.53119,-523,-662,-1126,1030,-1,-1548
834,9.542865,-2575,133,801,1031,2,-1545
835,9.554526,497,181,849,1032,-2,-1547
836,9.566223,-2575,437,529,1032,-2,-1546
837,9.577915,497,-347,-1135,1030,-1,-1543
838,9.589477,497,-107,545,1032,2,-1544
839,9.601051,1009,-331,-3151,1030,2,-1546
840,9.612594,-2063,-331,817,1030,-1,-1544
841,9.624132,-2575,309,305,1031,3,-1542
842,9.635681,1265,53,369,1032,1,-1544
843,9.647212,-524,-661,-1126,1030,1,-1547
844,9.658763,-2063,133,609,1032,6,-1541
845,9.670317,1265,293,-3183,1031,4,-1550
846,9.682017,1265,-283,737,1032,-2,-1544
847,9.693692,1265,293,-2911,1031,-3,-1539
848,9.705357,1009,53,657,1031,1,-1543
849,9.717012,1265,437,65,1032,-1,-1543
850,9.728678,-2575,53,737,1031,-3,-1544
851,9.740339,497,-235,641,1031,3,-1539
852,9.752031,-2063,533,-2943,1032,2,-1539
853,9.763705,1009,-123,657,1030,-1,-1542
854,9.775388,-525,-661,-1127,1030,1,-1543
855,9.787056,1265,197,705,1032,0,-1536
856,9.79862,-1807,53,657,1029,0,-1539
857,9.810181,1009,197,881,1030,1,-1542
858,9.821729,1009,453,449,1029,-4,-1547
859,9.833308,497,645,209,1033,-1,-1541
860,9.84486,-2063,-219,385,1031,-3,-1542
861,9.856428,-2063,165,161,1033,-1,-1544
862,9.867971,-523,-660,-1124,1030,-3,-1543
863,9.879576,-2063,549,401,1031,-3,-1544
864,9.89125,1265,181,833,1034,0,-1548
865,9.902911,-2575,213,-3151,1032,2,-1542
866,9.91461,1009,101,673,1032,0,-1545
867,9.926257,-1551,581,577,1032,0,-1536
868,9.937909,-2063,21,-3039,1030,-1,-1540
869,9.949596,-2063,-187,417,1031,0,-1543
870,9.961239,-1551,-235,-2847,1032,0,-1552
871,9.972894,1265,21,449,1032,0,-1539
872,9.984603,-2063,117,401,1029,0,-1545
873,9.996267,-525,-658,-1126,1032,0,-1544
874,10.007838,-1551,613,513,1033,0,-1543
875,10.019434,1265,69,801,1030,0,-1545
876,10.030989,-2063,-427,-3103,1031,0,-1540
877,10.04257,-2575,69,833,1032,0,-1550
878,10.054108,1265,-427,641,1034,0,-1543
879,10.065651,1265,373,817,1032,3,-1543
880,10.077197,1265,517,-207,1030,3,-1550
881,10.088779,-525,-661,-1125,1032,0,-1543
882,10.100415,-2063,293,-3183,1032,-3,-1543
883,10.11208,-2575,213,801,1032,0,-1543
884,10.12376,1265,-155,513,1032,-2,-1541
885,10.135446,-2575,-267,33,1029,-3,-1536
886,10.147118,1265,-171,833,1035,0,-1544
887,10.158775,-1807,-491,465,1032,0,-1547
888,10.170468,-2575,-251,689,1031,1,-1543
889,10.182107,-1807,213,-2687,1030,1,-1546
890,10.193769,-525,-659,-1127,1029,-4,-1545
891,10.205444,1009,565,-3135,1029,0,-1541
892,10.217059,1009,-315,465,1029,-2,-1542
893,10.228617,1265,-123,737,1032,0,-1538
894,10.240176,-2575,-91,273,1032,-1,-1544
895,10.251727,-2063,-299,417,1034,-1,-1536
896,10.263311,1265,-363,289,1030,3,-1550
897,10.274898,1265,437,545,1035,0,-1537
898,10.286471,1009,-299,497,1032,0,-1545
899,10.298029,-1551,437,-2911,1032,3,-1550
900,10.309646,1265,-27,801,1032,0,-1542
901,10.321361,-2575,-171,-2879,1031,3,-1541
902,10.333024,1009,-155,-2943,1027,0,-1543
903,10.344694,1009,-251,-3087,1036,2,-1539
904,10.356386,-2575,-11,193,1032,1,-1542
905,10.368028,1265,85,673,1034,-1,-1543
906,10.379683,1265,581,897,1032,-2,-1548
907,10.391377,-2575,1173,321,1034,0,-1546
908,10.403003,1009,5,865,1027,0,-1547
909,10.414687,-523,-660,-1128,1023,0,-1542
910,10.426251,497,-11,721,1026,2,-1541
911,10.437803,1265,661,33,1029,2,-1544
912,10.449344,-2575,261,625,1033,-1,-1548
913,10.460901,-2063,-187,-3039,1034,0,-1532
914,10.472446,-2575,597,-3167,1034,0,-1548
915,10.483984,1009,309,-2959,1033,-4,-1548
916,10.49555,497,-43,577,1026,4,-1541
917,10.507126,-2063,21,513,1031,0,-1540
918,10.518734,-2575,-91,513,1028,-4,-1538
919,10.530385,-1807,-27,321,1034,2,-1543
920,10.542075,497,37,641,1034,0,-1544
921,10.553734,-1039,-203,417,1032,0,-1549
922,10.565383,1009,-91,321,1033,0,-1546
923,10.57704,-2575,37,737,1029,0,-1540
924,10.588695,-2575,-75,-2991,1027,0,-1542
925,10.600378,1009,453,577,1032,-1,-1542
926,10.612039,1009,165,-2943,1032,-3,-1549
927,10.623711,1265,-203,273,1034,0,-1547
928,10.635374,1265,21,-3039,1032,1,-1544
929,10.646994,1265,-59,-3167,1029,-1,-1538
930,10.658648,-2063,101,193,1027,0,-1541
931,10.670314,1009,389,801,1028,1,-1542
932,10.681978,-271,-91,-2799,1028,1,-1545
933,10.693678,497,21,-2687,1032,3,-1546
934,10.705339,-2575,629,881,1033,0,-1542
935,10.717025,497,-171,-2367,1032,-2,-1549
936,10.728701,-2575,277,513,1031,1,-1543
937,10.740381,-2575,-219,-2367,1028,0,-1546
938,10.752034,1009,325,-2863,1034,-1,-1545
939,10.76373,-2575,-283,-2911,1035,-1,-1548
940,10.775393,-523,-659,-1126,1030,0,-1540
941,10.787046,-525,-660,-1127,1032,-2,-1546
942,10.798731,-2575,-59,737,1032,0,-1540
943,10.81037,1265,389,-2927,1029,-4,-1535
944,10.822014,-1807,-395,897,1036,-3,-1542
945,10.83356,497,-459,353,1036,-3,-1542
946,10.845103,1009,-171,241,1033,-1,-1544
947,10.856668,497,389,625,1036,-1,-1545
948,10.868215,-2575,165,625,1035,-6,-1540
949,10.879797,1009,-187,49,1027,0,-1540
950,10.891348,1265,517,-463,1028,1,-1547
951,10.902924,497,-75,81,1033,3,-1543
952,10.914464,1265,-75,353,1037,0,-1540
953,10.926058,1265,53,1,1035,-2,-1539
954,10.937721,1265,-283,-383,1038,-2,-1541
955,10.949396,1265,-59,-47,1031,-6,-1546
956,10.961095,-2575,165,209,1031,0,-1543
957,10.972739,-2575,181,-943,1027,-1,-1542
958,10.984419,-2575,261,-623,1032,0,-1541
959,10.99609,1009,53,-575,1030,4,-1546
960,11.007758,1265,-299,-399,1034,4,-1543
961,11.019413,-524,-661,-1125,1035,0,-1541
962,11.031129,-2575,277,-607,1032,-1,-1549
963,11.042789,-2063,-347,385,1021,1,-1542
964,11.054361,1265,117,401,1017,2,-1543
965,11.065915,1265,-27,385,1028,-1,-1549
966,11.07746,-2575,-523,529,1039,-4,-1550
967,11.089003,-1551,-75,833,1044,-1,-1545
968,11.100549,1265,181,-3151,1033,0,-1545
969,11.112087,-2575,-251,-2831,1018,-2,-1549
970,11.123693,1265,373,-3039,1014,3,-1554
971,11.135296,1265,-27,-2943,1021,0,-1538
972,11.146986,-1551,133,593,1036,-4,-1544
973,11.158649,-1551,-11,513,1043,-1,-1539
974,11.170319,-525,-660,-1126,1043,1,-1543
975,11.181982,1009,-395,545,1034,-3,-1548
976,11.193626,-2575,325,641,1034,3,-1546
977,11.20531,-2063,-555,241,1033,-4,-1539
978,11.216966,1009,597,-223,1033,0,-1554
979,11.228608,1009,-139,-3167,1031,-1,-1549
980,11.24027,-2575,437,561,1032,-1,-1539
981,11.251916,1009,-379,497,1028,-1,-1550
982,11.263575,-2575,-187,865,1032,-2,-1540
983,11.275252,1009,53,481,1029,1,-1544
984,11.286933,-1807,-187,209,1031,3,-1544
985,11.298603,-523,-659,-1126,1032,2,-1542
986,11.310253,-1807,85,337,1033,3,-1540
987,11.321911,-2063,453,769,1035,5,-1542
988,11.333578,-2063,5,-2767,1030,0,-1544
989,11.345298,1009,709,705,1029,5,-1547
990,11.356971,-2575,261,849,1029,-1,-1545
991,11.368567,1265,293,321,1031,-5,-1533
992,11.380136,1009,437,145,1035,-1,-1543
993,11.391673,497,-267,-95,1036,-1,-1539
994,11.403185,-2575,165,193,1035,-2,-1547
995,11.414704,1009,357,17,1030,-4,-1544
996,11.426267,-1551,133,417,1032,-3,-1549
997,11.43783,-2575,-75,353,1028,0,-1539
998,11.4494,1009,517,-463,1027,-1,-1535
999,11.461053,241,197,33,1024,4,-1543
1000,11.472712,1009,53,-159,1027,0,-1545
1001,11.484364,-2063,21,97,1027,-3,-1543
1002,11.496,-2063,229,481,1034,-1,-1546
1003,11.507659,241,357,481,1032,0,-1551
1004,11.519376,-2575,677,433,1032,0,-1548
1005,11.530988,-1551,-299,-1126,1032,-1,-1542
1006,11.542641,1265,-123,625,1031,0,-1545
1007,11.554322,1265,-107,641,1028,1,-1546
1008,11.565977,-1807,-27,433,1031,-1,-1547
1009,11.577623,1009,293,721,1029,-1,-1546
1010,11.589287,1265,133,-3087,1033,0,-1546
1011,11.600958,-1807,-155,657,1032,0,-1544
1012,11.61261,-524,-659,-1125,1035,3,-1544
1013,11.624255,1265,-267,-2911,1032,-3,-1550
1014,11.635909,-2063,-43,449,1033,-2,-1540
1015,11.647598,-2063,117,241,1029,0,-1534
1016,11.659303,-2575,-363,33,1032,0,-1549
1017,11.67098,-1807,101,401,1031,0,-1546
1018,11.682543,497,53,593,1029,2,-1546
1019,11.694101,-2063,-11,801,1030,0,-1547
1020,11.705664,1265,-187,705,1030,-1,-1539
1021,11.717212,1265,229,673,1037,-3,-1540
1022,11.728782,-1551,5,417,1033,0,-1541
1023,11.740317,1265,85,337,1033,-2,-1543
1024,11.751887,-525,-661,-1125,1033,2,-1539
1025,11.76344,-2575,405,465,1032,0,-1546
1026,11.775066,-1807,37,161,1026,-1,-1541
1027,11.78674,1265,-75,-2767,1033,1,-1547
1028,11.798422,1265,261,449,1030,2,-1550
1029,11.810082,-2063,453,-3151,1029,0,-1546
1030,11.821735,1265,69,625,1028,0,-1540
1031,11.833379,1265,341,545,1027,-2,-1546
1032,11.845038,-2063,-27,609,1034,-1,-1537
1033,11.856689,1265,373,337,1030,-1,-1541
1034,11.868379,497,213,625,1035,-2,-1547
1035,11.88004,1009,869,401,1035,3,-1557
1036,11.89166,-2047,-987,705,1034,-8,-1508
1037,11.903187,-522,-663,-1125,1036,6,-1574
1038,11.914706,1009,-43,689,1032,-5,-1531
1039,11.926244,-2575,309,33,1030,0,-1546
1040,11.937795,-1551,773,385,1024,0,-1553
1041,11.949344,1280,-1563,-3071,1031,-3,-1533
1042,11.960914,1009,981,-223,1028,6,-1547
1043,11.972493,241,-299,-2799,1031,-2,-1537
1044,11.984117,1009,501,241,1030,-1,-1543
1045,11.995782,1009,-43,-2959,1030,-2,-1544
1046,12.007451,-2575,-155,321,1028,-1,-1546
1047,12.019118,1009,21,497,1030,-5,-1548
1048,12.03078,-526,-659,-1124,1032,3,-1552
1049,12.04247,1009,-235,193,1032,0,-1538
1050,12.054123,1265,581,1,1031,1,-1541
1051,12.065799,-1551,213,513,1035,3,-1542
1052,12.077477,-2575,-411,833,1031,2,-1548
1053,12.08913,-2575,357,753,1032,3,-1546
1054,12.100687,-2575,1045,369,1031,1,-1545
1055,12.11225,-2063,245,737,1030,0,-1545
1056,12.123807,-525,-662,-1126,1030,-1,-1539
1057,12.135355,-2575,501,161,1031,-1,-1540
1058,12.146933,-2575,21,-3183,1032,-5,-1547
1059,12.158464,-2575,-59,465,1031,-4,-1545
1060,12.170027,-1807,-139,625,1030,0,-1537
1061,12.181589,-1807,197,-3119,1026,-1,-1543
1062,12.193297,-2575,-171,401,1030,-1,-1543
1063,12.204964,-2575,341,177,1032,2,-1552
1064,12.216619,1265,37,481,1030,2,-1546
1065,12.228286,-2575,101,689,1032,1,-1544
1066,12.239949,-2063,373,481,1033,-1,-1547
1067,12.251623,1265,-91,433,1029,2,-1547
1068,12.26325,497,421,97,1030,-3,-1540
1069,12.274912,1265,149,433,1031,0,-1548
1070,12.28657,-2063,165,625,1034,1,-1545
1071,12.298223,1265,101,593,1028,1,-1547
1072,12.309879,1009,917,193,1028,-5,-1544
1073,12.321534,-524,-662,-1127,1030,0,-1539
1074,12.333198,-2063,629,145,1031,-2,-1542
1075,12.344877,-2575,-155,721,1032,0,-1542
1076,12.356538,-2575,133,369,1028,-3,-1544
1077,12.368178,-1551,277,385,1032,-2,-1542
1078,12.379829,-2575,405,417,1033,-1,-1540
1079,12.39151,-524,-661,-1126,1032,3,-1546
1080,12.403214,1009,37,481,1029,-1,-1548
1081,12.414792,-2063,341,417,1029,3,-1542
1082,12.42634,-1807,213,401,1031,1,-1544
1083,12.437884,-1551,-11,417,1032,0,-1538
1084,12.44943,1009,853,-63,1036,2,-1553
1085,12.460975,1265,405,705,1031,1,-1539
1086,12.47252,1280,-875,593,1028,1,-1541
1087,12.48407,-2575,197,-127,1031,-1,-1535
1088,12.495673,-2063,341,657,1024,4,-1540
1089,12.507329,1009,453,673,1025,0,-1550
1090,12.518994,1265,37,433,1027,1,-1551
1091,12.530646,497,-459,-3119,1032,-2,-1536
1092,12.542331,-525,-661,-1125,1033,2,-1541
1093,12.553989,1265,85,849,1034,4,-1541
1094,12.565646,1265,245,545,1032,0,-1540
1095,12.577297,-2575,293,-15,1032,4,-1544
1096,12.588963,-2575,-27,385,1031,-1,-1552
1097,12.600617,-2063,453,225,1033,1,-1548
1098,12.612263,-523,-663,-1125,1018,3,-1543
1099,12.623815,-1551,325,369,1033,-3,-1546
1100,12.635373,-2575,181,65,1032,0,-1541
1101,12.646949,-2575,-491,241,1028,-3,-1542
1102,12.658533,1009,5,609,1029,-2,-1544
1103,12.670072,-1807,-91,529,1031,0,-1540
1104,12.681623,-2575,-139,737,1032,2,-1543
1105,12.693174,1009,21,465,1030,0,-1553
1106,12.70473,-523,309,529,1025,-5,-1546
1107,12.716383,1009,-59,-2863,1034,2,-1539
1108,12.728039,1009,5,529,1029,-1,-1545
1109,12.73971,-2575,325,-3103,1032,-1,-1541
1110,12.751373,-2063,149,-2991,1033,-1,-1544
1111,12.763029,-2063,-155,225,1033,-2,-1542
1112,12.774717,-1551,-299,769,1029,-2,-1546
1113,12.786363,497,277,833,1033,1,-1546
1114,12.798034,-2575,-203,193,1033,-1,-1540
1115,12.80972,1009,-171,593,1032,4,-1544
1116,12.821371,-2575,69,769,1029,3,-1543
1117,12.832931,-1807,501,801,1030,4,-1540
1118,12.844539,1265,149,177,1028,1,-1538
1119,12.856094,1009,-11,401,1032,3,-1548
1120,12.867665,-2575,213,705,1031,1,-1543
1121,12.879186,1265,133,577,1036,-1,-1547
1122,12.89071,-1551,197,-79,1031,1,-1540
1123,12.902277,1009,261,-3007,1030,-2,-1539
1124,12.913855,-2063,453,689,1033,-3,-1547
1125,12.925472,-2063,261,369,1033,-3,-1541
1126,12.937132,-2063,-155,-3151,1031,-2,-1540
1127,12.948789,-2575,-43,689,1030,0,-1543
1128,12.960457,-2063,741,785,1030,-3,-1542
1129,12.972113,-2575,277,257,1030,0,-1541
1130,12.98376,-1807,661,513,1031,4,-1544
1131,12.995427,-1807,-75,817,1029,-3,-1546
1132,13.007118,-2575,5,561,1030,-1,-1543
1133,13.018749,-2575,-11,481,1029,0,-1553
1134,13.030462,-2575,-11,513,1032,1,-1535
1135,13.042018,1265,-347,721,1029,0,-1540
1136,13.053567,1265,213,-2831,1032,-2,-1539
1137,13.065145,-1551,-11,-63,1031,1,-1541
1138,13.076699,-2575,293,481,1031,2,-1546
1139,13.088272,1009,197,593,1032,-3,-1543
1140,13.099819,-1551,-123,545,1033,0,-1546
1141,13.111373,1265,53,385,1029,0,-1542
1142,13.122954,1265,21,673,1033,0,-1545
1143,13.134611,1009,-187,65,1027,-1,-1538
1144,13.146266,-2575,53,-47,1037,0,-1543
1145,13.157912,1009,-235,145,1031,-2,-1545
1146,13.169571,-2063,373,769,1032,0,-1540
1147,13.181221,-1039,-27,-1125,1031,0,-1541
1148,13.19286,-2575,69,1,1030,-2,-1541
1149,13.204504,497,-331,625,1030,3,-1547
1150,13.216172,-1551,117,641,1031,1,-1539
1151,13.227852,-1807,197,241,1030,2,-1534
1152,13.239503,1009,-235,369,1031,0,-1546
1153,13.2511,-524,-661,-1124,1032,1,-1548
1154,13.262667,-525,-663,-1126,1031,0,-1544
1155,13.274213,-1551,5,-2895,1028,2,-1546
1156,13.285789,-1807,-139,129,1031,0,-1544
1157,13.297526,-2575,-347,417,1032,0,-1548
1158,13.309224,-2575,-443,-63,1031,1,-1545
1159,13.3208,1009,-75,-3071,1032,-1,-1547
1160,13.332448,-1551,-155,-3167,1030,4,-1547
1161,13.343998,-2063,101,-3103,1031,1,-1543
1162,13.35556,-525,-661,417,1028,1,-1544
1163,13.367137,-2063,5,721,1031,2,-1544
1164,13.378713,-2575,-59,497,1035,-2,-1546
1165,13.39028,1009,-107,481,1028,-2,-1544
1166,13.401837,-526,-663,-1125,1031,-3,-1544
1167,13.413395,1009,373,321,1032,2,-1544
1168,13.424949,497,-251,-3183,1032,-2,-1540
1169,13.436549,-525,-662,-1124,1030,-5,-1542
1170,13.448231,1265,-75,897,1030,0,-1549
1171,13.459897,1009,341,481,1030,1,-1540
1172,13.471597,1009,341,-255,1033,0,-1546
1173,13.483253,-2575,325,417,1017,2,-1541
1174,13.494915,1009,85,401,1030,0,-1540
1175,13.506603,-2575,229,721,1032,2,-1549
1176,13.518264,497,229,129,1031,1,-1546
1177,13.529908,-271,197,657,1030,-3,-1551
1178,13.54159,1265,-235,177,1027,-2,-1540
1179,13.553254,-2063,-27,545,1031,-2,-1549
1180,13.564809,1009,981,385,1031,0,-1548
1181,13.576379,1265,405,113,1032,3,-1543
1182,13.587933,-1039,-171,577,1031,2,-1544
1183,13.599533,1265,85,49,1028,2,-1547
1184,13.61109,1009,229,-47,1028,1,-1541
1185,13.62266,-2575,229,577,1030,0,-1544
1186,13.634202,1009,421,-3151,1032,1,-1543
1187,13.645757,1009,-43,881,1032,-1,-1547
1188,13.657496,497,117,593,1032,-1,-1544
1189,13.669173,1265,133,593,1032,-3,-1540
1190,13.680835,1265,37,817,1029,-4,-1543
1191,13.692487,-2063,437,161,1030,-2,-1545
1192,13.704146,-2575,101,833,1033,0,-1548
1193,13.715836,-2575,-347,561,1029,2,-1543
1194,13.727524,1265,293,513,1027,1,-1545
1195,13.739223,1009,5,881,1026,4,-1544
1196,13.750901,-2575,213,673,1032,2,-1541
1197,13.762569,-2063,357,865,1032,1,-1541
1198,13.774151,-2575,725,369,1030,3,-1545
1199,13.785706,-2575,-187,321,1033,-4,-1545
1200,13.797272,497,-171,817,1029,-4,-1547
1201,13.808825,1009,-219,49,1030,-2,-1542
1202,13.820409,-2575,-619,641,1033,-3,-1551
1203,13.832004,-522,-661,-1126,1031,-7,-1542
1204,13.843581,-2575,389,401,1026,0,-1538
1205,13.855246,-1807,-27,401,1030,-1,-1552
1206,13.866904,497,85,801,1027,1,-1538
1207,13.878604,-524,-660,-1127,1033,-1,-1549
1208,13.890254,-2575,101,-159,1033,2,-1552
1209,13.901914,-2063,37,353,1028,0,-1545
1210,13.913599,1265,309,97,1028,2,-1546
1211,13.925257,1265,21,833,1035,2,-1551
1212,13.936945,1009,197,-3151,1033,0,-1545
1213,13.948597,1265,-11,161,1032,-1,-1549
1214,13.960266,1265,-171,-3055,1027,4,-1538
1215,13.971963,1009,597,321,1027,0,-1542
1216,13.983546,1265,-75,-3167,1029,0,-1538
1217,13.995141,-1807,-107,753,1031,3,-1547
1218,14.006706,-2063,309,577,1034,0,-1544
1219,14.018292,1265,133,609,1031,-2,-1545
1220,14.029846,-2575,85,657,1028,0,-1546
1221,14.041399,-2575,-43,753,1031,-1,-1555
1222,14.052945,-2575,69,-79,1030,0,-1541
1223,14.0645,-525,-660,-1127,1031,0,-1543
1224,14.076116,1265,37,481,1030,2,-1549
1225,14.087759,1265,325,513,1029,0,-1546
1226,14.09944,-1551,-75,721,1032,1,-1551
1227,14.11111,-2575,261,81,1030,2,-1540
1228,14.122734,-2575,-203,449,1030,0,-1546
1229,14.134413,1265,133,417,1028,3,-1545
1230,14.146072,-2575,389,401,1031,2,-1545
1231,14.157747,1009,-171,449,1031,1,-1544
1232,14.169429,-1551,693,-3119,1032,0,-1542
1233,14.181104,1265,-11,289,1032,-2,-1543
1234,14.192673,1009,-43,305,1032,2,-1543
1235,14.204219,497,165,337,1028,1,-1547
1236,14.215797,497,117,145,1028,1,-1544
1237,14.227369,-2063,245,833,1032,1,-1545
1238,14.238943,1009,21,593,1032,3,-1541
1239,14.250541,1265,-11,833,1032,-1,-1542
1240,14.262099,497,101,-15,1033,0,-1547
1241,14.273662,-2575,149,641,1032,-3,-1547
1242,14.285287,1265,469,-3103,1030,1,-1543
1243,14.296943,-1551,325,241,1031,-1,-1548
1244,14.308594,1265,165,513,1031,-3,-1550
1245,14.320251,-2575,-107,817,1032,-1,-1540
1246,14.331895,-1807,245,609,1035,-1,-1540
1247,14.343546,-2063,-635,737,1032,1,-1540
1248,14.355239,1265,101,561,1031,2,-1540
1249,14.366891,-2063,-59,897,1032,3,-1550
1250,14.378566,-1551,293,689,1033,3,-1543
1251,14.390247,-1551,-27,-2847,1032,-3,-1540
1252,14.401808,-1551,37,689,1032,-2,-1543
1253,14.413396,-1551,-491,657,1030,-1,-1543
1254,14.42494,-1551,501,241,1030,-2,-1545
1255,14.436544,1265,53,673,1032,-2,-1542
1256,14.448119,-2063,-427,417,1030,2,-1539
1257,14.45967,1009,21,433,1028,0,-1545
1258,14.471187,-1551,165,833,1032,0,-1539
1259,14.48272,-2575,-187,897,1029,2,-1534
1260,14.494348,-2063,-251,-3023,1027,0,-1546
1261,14.505996,-1807,-107,-2895,1032,3,-1551
1262,14.517648,1265,-507,865,1028,0,-1539
1263,14.52933,-2575,101,289,1029,-1,-1546
1264,14.540972,-2575,37,-3119,1032,-3,-1546
1265,14.552615,-2063,197,673,1031,-1,-1541
1266,14.564289,-2063,469,481,1032,0,-1544
1267,14.575956,-1551,149,737,1027,0,-1543
1268,14.587637,-1551,101,753,1028,1,-1541
1269,14.599293,-526,-662,-1126,1031,2,-1543
1270,14.61085,-2063,405,241,1032,2,-1541
1271,14.62242,-2063,389,609,1033,-2,-1544
1272,14.633966,1009,405,-2703,1032,-1,-1548
1273,14.645504,-1551,-91,-3023,1028,-1,-1544
1274,14.657041,-2063,-123,721,1030,-2,-1546
1275,14.668617,497,-299,-3135,1032,-1,-1547
1276,14.680164,1009,405,897,1030,1,-1547
1277,14.691758,1265,149,865,1026,0,-1546
1278,14.703407,-1551,373,545,1032,0,-1539
1279,14.715069,-2063,133,689,1033,0,-1546
1280,14.726736,1009,117,561,1034,1,-1545
1281,14.738378,-2575,-27,833,1031,2,-1541
1282,14.750023,-2575,-139,481,1029,-2,-1544
1283,14.761711,-2063,101,-2783,1029,0,-1535
1284,14.773351,-2575,229,609,1032,1,-1539
1285,14.784995,-2063,-203,49,1029,0,-1543
1286,14.796675,-2575,-283,577,1029,-1,-1540
1287,14.808329,1265,101,33,1028,-2,-1542
1288,14.819904,-523,-661,-1126,1031,-1,-1542
1289,14.83143,-2063,341,673,1031,-1,-1544
1290,14.842963,1265,197,705,1035,0,-1540
1291,14.854523,1009,693,817,1028,-1,-1539
1292,14.866065,-2575,101,577,1035,-2,-1537
1293,14.877628,1009,-75,449,1030,0,-1546
1294,14.889175,-2575,-11,641,1033,-1,-1537
1295,14.900783,-2063,373,481,1032,1,-1543
1296,14.912473,1265,165,481,1034,0,-1545
1297,14.924137,-1807,485,545,1032,2,-1544
1298,14.935763,1009,-27,513,1026,-5,-1543
1299,14.947438,-524,-660,-1126,1031,2,-1546
1300,14.959112,-2575,-331,545,1029,0,-1544
1301,14.970807,-2063,357,689,1036,-3,-1545
1302,14.982465,-2575,-315,257,1030,2,-1547
1303,14.994112,-2063,53,801,1035,0,-1553
1304,15.005801,1009,133,369,1032,0,-1548
1305,15.017448,1009,-395,401,1032,2,-1537
1306,15.029007,-2575,517,337,1031,-1,-1543
1307,15.040555,-1807,-427,561,1031,-1,-1547
1308,15.052133,497,389,-2943,1032,-3,-1535
1309,15.063689,-2063,261,785,1032,-2,-1542
1310,15.075266,-2063,277,369,1032,0,-1548
1311,15.086824,1265,181,209,1029,0,-1540
1312,15.098363,-2575,533,769,1031,3,-1549
1313,15.109905,-2063,101,225,1033,1,-1543
1314,15.121565,-2063,213,241,1033,0,-1546
1315,15.133238,1265,213,337,1028,0,-1551
1316,15.144908,1009,-11,513,1028,1,-1541
1317,15.156561,1265,-171,897,1031,-1,-1544
1318,15.16821,-2063,245,673,1032,-3,-1544
1319,15.17992,-2575,517,385,1034,-2,-1542
1320,15.191574,-2575,325,449,1032,-3,-1546
1321,15.203241,-1551,421,545,1032,-4,-1545
1322,15.214904,1265,261,625,1033,0,-1545
1323,15.226559,-1039,229,-3183,1032,-3,-1539
1324,15.23821,-1551,229,849,1032,0,-1542
1325,15.249851,-2575,453,-15,1030,0,-1546
1326,15.261497,-1551,389,737,1025,1,-1541
1327,15.273169,-523,-661,-1125,1033,-2,-1543
1328,15.28482,-2575,85,753,1032,-2,-1540
1329,15.296488,-2063,-491,449,1036,-4,-1537
1330,15.308153,-1807,357,433,1032,-1,-1543
1331,15.319842,1009,-155,641,1029,0,-1547
1332,15.331502,-1807,245,-3135,1026,-1,-1544
1333,15.343176,-1551,485,673,1031,-2,-1543
1334,15.354852,-2063,165,593,1032,-1,-1538
1335,15.366474,-2575,-75,369,1034,-2,-1544
1336,15.378142,1009,101,625,1030,0,-1543
1337,15.389803,-1807,341,-2895,1029,0,-1541
1338,15.401457,-525,-661,-1127,1032,1,-1546
1339,15.413107,-2575,-75,273,1031,0,-1544
1340,15.424769,-1039,-235,481,1029,0,-1544
1341,15.436458,1009,85,321,1033,0,-1550
1342,15.44802,-1551,229,305,1031,1,-1537
1343,15.459573,-2575,85,545,1031,0,-1546
1344,15.471142,-1551,581,-3039,1029,-3,-1545
1345,15.482707,497,-123,513,1027,-3,-1550
1346,15.494261,-524,-662,-1124,1030,-4,-1539
1347,15.505825,-2063,-11,737,1029,-1,-1539
1348,15.517393,-2063,53,801,1032,0,-1544
1349,15.528947,-1807,437,609,1032,5,-1544
1350,15.54059,-1807,-155,689,1037,-2,-1539
1351,15.552251,-524,-660,-1126,1030,-3,-1546
1352,15.563904,-2575,-123,561,1034,-2,-1542
1353,15.575573,1009,149,-2863,1032,0,-1532
1354,15.587244,-1551,-155,353,1031,0,-1542
1355,15.598898,-2063,-27,257,1030,1,-1540
1356,15.610554,1009,149,49,1029,-3,-1541
1357,15.622204,-2063,37,561,1034,2,-1539
1358,15.633859,1265,-11,625,1031,1,-1544
1359,15.645508,-2575,165,321,1032,3,-1541
1360,15.657182,-1807,101,513,1030,0,-1540
1361,15.668827,-2063,-299,465,1029,3,-1545
1362,15.680472,-1551,181,513,1034,0,-1546
1363,15.692132,241,117,481,1029,-2,-1548
1364,15.703775,-2063,245,561,1032,-1,-1546
1365,15.715443,497,-267,337,1028,0,-1548
1366,15.727108,-1551,-347,721,1028,0,-1545
1367,15.738763,-2063,341,673,1032,1,-1540
1368,15.750471,-2575,245,353,1032,-1,-1541
1369,15.762114,1265,-251,593,1029,0,-1540
1370,15.773763,-2063,5,-15,1030,-5,-1548
1371,15.785429,1265,-203,593,1027,0,-1540
1372,15.797071,-2575,37,737,1031,-2,-1547
1373,15.808715,-524,-662,-1128,1033,1,-1545
1374,15.820366,-2575,341,625,1029,2,-1544
1375,15.832028,-2575,-139,97,1033,-4,-1544
1376,15.843728,1265,325,561,1034,4,-1543
1377,15.855412,1265,181,193,1030,0,-1543
1378,15.867074,-2063,5,161,1028,0,-1541
1379,15.878748,1009,-11,385,1031,0,-1542
1380,15.890425,-2575,-251,145,1028,1,-1543
1381,15.902069,-1551,85,577,1031,0,-1548
1382,15.913716,-1551,261,593,1028,-1,-1547
1383,15.925365,1009,325,225,1028,-1,-1542
1384,15.937034,-525,-660,-1125,1032,0,-1543
1385,15.948697,-2063,357,641,1032,-1,-1540
1386,15.960382,-2063,213,-2975,1029,1,-1549
1387,15.97205,-2575,-59,-2847,1031,-6,-1545
1388,15.983749,1265,245,-15,1034,-2,-1543
1389,15.995404,-1807,117,433,1032,-1,-1544
1390,16.007066,-783,101,897,1033,-6,-1538
1391,16.018736,1265,389,865,1031,1,-1546
1392,16.030377,-1807,757,-2975,1032,0,-1547
1393,16.042024,-1807,-107,-15,1032,1,-1542
1394,16.053725,1265,149,353,1029,1,-1544
1395,16.065369,-1551,5,561,1032,-1,-1538
1396,16.077013,-1551,-187,465,1032,-1,-1538
1397,16.088679,-2575,389,337,1032,-3,-1549
1398,16.100322,-525,-661,-1126,1031,2,-1547
1399,16.112072,-783,229,177,1028,1,-1547
1400,16.123758,-2575,965,673,1027,-2,-1546
1401,16.135428,-2063,133,449,1029,4,-1546
1402,16.1471,-2575,-91,-3167,1030,0,-1541
1403,16.158746,-1551,-219,257,1029,-3,-1546
1404,16.170408,-2575,37,865,1032,-3,-1546
1405,16.182013,-1551,5,545,1032,1,-1541
1406,16.193565,-525,-659,-1127,1032,-1,-1545
1407,16.205141,-2575,437,753,1032,2,-1538
1408,16.21668,1265,-363,129,1032,1,-1542
1409,16.228251,1009,-267,705,1032,2,-1541
1410,16.239812,1009,-171,561,1031,1,-1541
1411,16.251402,-2575,-171,-3087,1032,4,-1546
1412,16.262959,-1551,245,897,1031,0,-1541
1413,16.274604,-2575,213,-3167,1027,-2,-1546
1414,16.286253,-1551,-139,225,1030,-1,-1542
1415,16.297904,-2063,-91,481,1029,-3,-1543
1416,16.309576,-2063,-91,353,1034,0,-1542
1417,16.321216,-2575,357,145,1030,1,-1540
1418,16.332863,-2575,-11,657,1032,0,-1547
1419,16.344533,-524,-659,33,1032,3,-1548
1420,16.35618,-1039,-107,769,1034,-1,-1545
1421,16.367848,-1551,85,337,1032,0,-1537
1422,16.379504,1009,-59,753,1031,-2,-1542
1423,16.39108,-525,-659,-1125,1030,-1,-1538
1424,16.402649,-1551,53,801,1033,-1,-1541
1425,16.41423,-1807,85,-3023,1029,0,-1545
1426,16.425782,-1551,21,897,1031,-3,-1546
1427,16.437381,-1551,-203,289,1030,0,-1540
1428,16.448921,-2063,-203,593,1031,3,-1543
1429,16.460459,-2063,-203,817,1033,1,-1544
1430,16.472016,-524,-663,-1126,1031,2,-1544
1431,16.483677,1009,133,113,1035,0,-1543
1432,16.495367,-2063,421,337,1032,1,-1538
1433,16.506986,497,117,417,1030,-1,-1547
1434,16.518665,-2575,261,577,1026,1,-1546
1435,16.530317,-1807,229,401,1028,0,-1544
1436,16.541957,-2063,293,113,1031,0,-1547
1437,16.553609,-2063,133,577,1028,0,-1546
1438,16.565291,-1807,-123,-3007,1031,0,-1548
1439,16.576946,-2575,261,449,1032,2,-1543
1440,16.588596,1265,5,-3119,1033,0,-1546
1441,16.600152,-1551,85,673,1033,0,-1539
1442,16.611674,1265,261,689,1032,-1,-1545
1443,16.623329,-2575,437,-15,1035,-2,-1545
1444,16.634969,-2575,5,513,1032,-1,-1544
1445,16.646536,1265,437,-2863,1031,0,-1547
1446,16.658123,-2063,37,49,1032,0,-1544
1447,16.669685,-1807,293,385,1033,-2,-1543
1448,16.681282,1265,293,513,1030,0,-1549
1449,16.692958,1265,37,-2751,1030,-2,-1549
1450,16.704611,1265,-395,-3071,1032,0,-1542
1451,16.716264,-2575,21,-3167,1029,-3,-1539
1452,16.727941,-1551,-75,337,1031,-1,-1550
1453,16.739634,-2063,-443,113,1030,0,-1545
1454,16.751308,-1551,421,625,1031,0,-1545
1455,16.762982,-522,-661,-1128,1032,0,-1547
1456,16.774656,-2063,549,-3007,1030,-3,-1540
1457,16.786328,-1807,181,513,1031,-1,-1540
1458,16.79798,-1551,-75,849,1031,0,-1544
1459,16.809542,1265,453,545,1032,-2,-1545
1460,16.821131,1265,-75,545,1032,1,-1545
1461,16.832675,-1551,117,625,1034,0,-1548
1462,16.844217,-1551,37,-3135,1033,2,-1546
1463,16.855795,-1807,-411,625,1032,-1,-1542
1464,16.867368,497,-59,577,1030,2,-1535
1465,16.878968,-2575,-235,561,1028,-2,-1542
1466,16.890547,-2575,-331,689,1029,0,-1546
1467,16.902177,-2063,437,865,1030,-3,-1540
1468,16.913836,-2063,21,257,1029,0,-1544
1469,16.925478,-2575,165,753,1033,-2,-1534
1470,16.937141,-1551,101,577,1031,2,-1543
1471,16.948809,-1807,-27,417,1028,-14,-1537
1472,16.960455,1009,-43,-2959,1033,2,-1540
1473,16.972103,1265,-379,321,1032,0,-1551
1474,16.98381,-1807,-315,-3087,1030,0,-1543
1475,16.995498,-1807,-203,609,1034,0,-1544
1476,17.007154,-1551,-91,529,1032,-1,-1542
1477,17.018705,-1551,21,81,1030,0,-1555
1478,17.030252,1265,-219,753,1027,-1,-1540
1479,17.041802,-2575,37,513,1031,-3,-1551
1480,17.05337,1009,165,561,1029,0,-1546
1481,17.064913,-1039,69,769,1032,0,-1545
1482,17.076494,1265,5,49,1032,-1,-1545
1483,17.08803,497,165,513,1032,3,-1537
1484,17.099595,-2063,181,385,1029,0,-1547
1485,17.111274,-1807,293,513,1032,1,-1538
1486,17.122933,-1551,-27,705,1032,0,-1544
1487,17.134599,-2575,-91,225,1033,0,-1546
1488,17.146262,1265,21,561,1027,-1,-1550
1489,17.15791,-2063,-379,353,1030,-1,-1543
1490,17.169567,-2575,325,-3167,1032,0,-1544
1491,17.181219,-1807,-235,577,1031,0,-1545
1492,17.192857,-1807,325,577,1031,-5,-1541
1493,17.204518,1009,-411,161,1028,-2,-1542
1494,17.216188,-1551,-251,449,1027,1,-1541
1495,17.227763,-2575,165,-2959,1030,0,-1545
1496,17.23933,-1807,197,305,1028,4,-1541
1497,17.250894,-2063,197,401,1029,1,-1545
1498,17.262466,-2575,-27,-3119,1028,-1,-1543
1499,17.274017,-1551,229,193,1029,1,-1536
1500,17.285577,-2575,517,609,1030,-1,-1550
1501,17.297152,-525,-659,-1125,1031,-1,-1543
1502,17.308714,-2063,-107,817,1032,0,-1548
1503,17.320364,-2063,37,225,1028,0,-1538
1504,17.332036,-2575,133,-3151,1029,0,-1549
1505,17.343731,-1807,-43,705,1034,2,-1546
1506,17.35542,1009,133,625,1032,0,-1546
1507,17.367068,-2575,-347,881,1030,0,-1539
1508,17.378737,-2575,-315,753,1032,-1,-1540
1509,17.390419,-2575,-59,545,1026,-3,-1545
1510,17.40206,-2575,-27,33,1031,-2,-1544
1511,17.413711,-2063,-347,305,1031,2,-1546
1512,17.425387,-2575,117,593,1029,1,-1549
1513,17.436931,1265,-187,305,1029,-1,-1546
1514,17.448475,-1551,405,305,1030,-2,-1543
1515,17.460022,1265,101,449,1029,-2,-1544
1516,17.471594,-2063,69,129,1032,-1,-1547
1517,17.483182,-2063,-363,417,1033,-1,-1545
1518,17.494774,-524,-662,-1126,1028,-1,-1535
1519,17.506334,-2063,437,497,1032,0,-1539
1520,17.517896,-1551,565,-127,1030,-1,-1546
1521,17.529565,-2063,293,257,1033,0,-1547
1522,17.541228,1009,165,625,1030,-1,-1547
1523,17.552901,-2063,149,657,1029,-1,-1543
1524,17.564557,-2063,149,385,1031,2,-1546
1525,17.576252,-783,53,-3119,1031,-2,-1543
1526,17.587915,-526,-661,-1124,1031,0,-1544
1527,17.599574,1265,-283,897,1032,2,-1541
1528,17.611266,1265,101,545,1031,3,-1544
1529,17.622929,-2575,-203,289,1030,0,-1535
1530,17.634578,-2575,501,-3023,1034,2,-1538
1531,17.646142,-1039,85,497,1030,0,-1547
1532,17.65769,1009,245,865,1036,-2,-1538
1533,17.669245,-1551,293,785,1030,3,-1547
1534,17.680797,-2575,-187,337,1029,1,-1541
1535,17.692376,1009,149,-223,1034,-1,-1541
1536,17.703928,-2063,37,-63,1029,4,-1543
1537,17.715498,-525,-661,-1124,1030,-1,-1541
1538,17.727096,-1551,389,593,1033,1,-1540
1539,17.738733,1265,421,657,1030,0,-1548
1540,17.750386,-2063,165,177,1031,1,-1540
1541,17.76203,-1551,197,529,1030,-2,-1549
1542,17.773684,-2063,5,705,1030,-1,-1543
1543,17.785326,-1551,373,-3151,1032,0,-1544
1544,17.797001,-2575,133,577,1029,1,-1541
1545,17.808654,-2063,-75,369,1030,0,-1541
1546,17.820304,-2063,213,193,1033,0,-1552
1547,17.831967,-1039,181,641,1032,0,-1538
1548,17.843617,-526,-661,-1126,1032,2,-1543
1549,17.855194,1009,-59,161,1032,3,-1545
1550,17.866773,497,69,625,1031,0,-1538
1551,17.878341,-1807,597,689,1029,3,-1536
1552,17.889881,-2575,133,465,1032,4,-1545
1553,17.901422,1265,-27,353,1026,1,-1544
1554,17.912977,-2575,293,625,1029,0,-1540
1555,17.924522,-2063,341,481,1032,0,-1545
1556,17.936076,-524,-661,-1124,1032,-2,-1545
1557,17.947763,-2063,5,353,1034,-7,-1548
1558,17.959438,1265,69,81,1027,-2,-1538
1559,17.971106,1265,277,225,1035,0,-1543
1560,17.982738,1009,229,-3055,1031,0,-1542
1561,17.994416,-2575,-11,705,1028,2,-1541
1562,18.006059,-1551,357,689,1029,2,-1544
1563,18.017708,-2575,-283,497,1029,1,-1551
1564,18.029373,1265,293,689,1033,3,-1535
1565,18.041042,-1551,5,689,1033,-1,-1548
1566,18.052695,-1039,229,17,1032,-1,-1541
1567,18.064338,-1551,37,465,1035,-3,-1540
1568,18.076018,1265,277,97,1035,3,-1545
1569,18.087693,1009,-139,513,1031,2,-1541
1570,18.099433,1265,677,337,1032,0,-1540
1571,18.11111,497,165,561,1032,2,-1540
1572,18.122784,-1807,645,-3103,1033,-1,-1539
1573,18.134458,-783,21,641,1032,0,-1549
1574,18.146113,1009,421,-3167,1027,0,-1541
1575,18.157662,-1551,293,-63,1027,1,-1544
1576,18.169208,1265,117,849,1031,5,-1543
1577,18.183257,-2063,-203,-271,1034,0,-1545
1578,18.194879,-523,-661,-1126,1029,-2,-1538
1579,18.206461,1265,245,241,1031,0,-1539
1580,18.218001,-1551,-139,641,1030,2,-1540
1581,18.229539,-2575,165,817,1030,2,-1540
1582,18.241077,-2575,-11,865,1031,0,-1544
1583,18.252645,-2575,165,209,1032,2,-1543
1584,18.264229,1265,453,17,1029,1,-1545
1585,18.275795,1265,197,289,1028,0,-1546
1586,18.287357,-2063,949,529,1032,2,-1542
1587,18.298923,-525,-662,-1127,1029,-3,-1543
1588,18.310463,-783,5,625,1030,3,-1541
1589,18.322075,-2063,-475,-3103,1031,1,-1548
1590,18.333646,1009,549,-3055,1031,-2,-1540
1591,18.345238,-1551,21,529,1031,-1,-1542
1592,18.356801,-2063,229,-3039,1031,1,-1537
1593,18.368488,-2063,229,481,1032,0,-1547
1594,18.380165,-2575,549,1,1028,-1,-1547
1595,18.39183,-1551,-59,641,1028,0,-1541
1596,18.403531,-2063,5,305,1032,0,-1544
1597,18.415189,1009,-187,465,1029,-2,-1545
1598,18.426866,-1551,309,449,1031,-1,-1538
1599,18.438554,-2575,21,897,1031,0,-1547
1600,18.450215,-2575,213,737,1030,1,-1548
1601,18.461874,-1551,-27,-3119,1032,1,-1544
1602,18.473589,-1807,181,673,1031,-1,-1545
1603,18.485135,-2575,341,465,1032,-1,-1543
1604,18.4967,-2575,53,353,1035,2,-1541
1605,18.508252,-2575,149,385,1032,-2,-1544
1606,18.519823,-1551,-43,817,1029,1,-1537
1607,18.531385,-1807,533,-3167,1028,-1,-1547
1608,18.542942,-2575,165,-3103,1027,1,-1544
1609,18.554464,-2058,-123,705,1030,0,-1543
1610,18.566024,-2575,-251,481,1032,-1,-1547
1611,18.577665,-526,-660,-1124,1033,-2,-1540
1612,18.589319,-2063,-155,417,1033,-1,-1537
1613,18.600973,-1551,389,721,1032,0,-1536
1614,18.612652,1265,213,305,1032,-2,-1545
1615,18.624314,-2063,53,833,1031,0,-1542
1616,18.636021,1265,-299,657,1033,1,-1541
1617,18.647681,-1807,-203,225,1030,-2,-1543
1618,18.659359,-2575,-187,-3183,1030,0,-1539
1619,18.671068,-2063,53,513,1026,0,-1543
1620,18.682731,-2575,-43,417,1031,0,-1544
1621,18.694297,-2063,197,-3087,1029,2,-1544
1622,18.705866,-2575,-43,-2671,1031,0,-1548
1623,18.717438,-2575,-107,561,1032,-3,-1541
1624,18.728994,1265,453,545,1030,0,-1543
1625,18.740534,-1551,357,369,1028,-1,-1540
1626,18.752072,-2063,53,545,1032,-2,-1548
1627,18.763622,-525,-661,-1125,1028,0,-1541
1628,18.775191,-1039,197,401,1029,1,-1543
1629,18.78681,-2063,517,241,1032,-3,-1544
1630,18.798478,-2575,117,753,1029,-1,-1544
1631,18.810123,-2575,-171,801,1031,-2,-1547
1632,18.821776,-2575,-139,593,1030,-4,-1540
1633,18.833427,-783,197,241,1032,2,-1544
1634,18.845088,-2575,85,721,1031,1,-1539
1635,18.856732,1009,-155,-3039,1032,0,-1539
1636,18.868409,-1551,101,353,1031,1,-1543
1637,18.880059,-2575,-331,417,1032,2,-1545
1638,18.891741,-2063,-251,705,1030,0,-1541
1639,18.903417,-2063,293,833,1032,-1,-1547
1640,18.915066,-2575,-91,609,1032,0,-1539
1641,18.926738,-1551,133,609,1032,3,-1545
1642,18.938411,-525,-663,-1125,1031,-1,-1543
1643,18.950068,-2575,373,353,1029,-1,-1545
1644,18.961718,-783,-123,-3071,1031,1,-1541
1645,18.973384,-1807,341,337,1028,-5,-1542
1646,18.985071,-2575,101,-31,1032,-1,-1543
1647,18.996719,-1807,277,241,1030,0,-1547
1648,19.008403,-2575,-43,433,1030,0,-1550
1649,19.020045,-1551,-539,529,1033,2,-1543
1650,19.031703,-2063,309,321,1032,-2,-1548
1651,19.043392,-1551,21,897,1034,3,-1543
1652,19.055051,-525,-660,-1128,1031,0,-1548
1653,19.066722,-2063,165,-3039,1030,0,-1545
1654,19.078361,1265,421,-3055,1028,0,-1548
1655,19.090041,1265,149,817,1028,0,-1544
1656,19.1017,-2063,-155,737,1027,2,-1541
1657,19.113345,-1551,117,561,1027,0,-1543
1658,19.124989,-2575,469,593,1029,0,-1543
1659,19.136658,-1807,325,593,1032,0,-1540
1660,19.148304,-2575,197,-3023,1029,2,-1545
1661,19.159951,1265,213,657,1028,2,-1538
1662,19.171671,-1551,-203,817,1032,-4,-1543
1663,19.183322,-1551,453,-79,1029,0,-1549
1664,19.195,1265,-75,897,1033,0,-1536
1665,19.206671,-2063,149,-3183,1032,-2,-1544
1666,19.218264,-1551,325,17,1033,0,-1545
1667,19.229853,-2575,-491,721,1032,0,-1538
1668,19.241392,-524,-662,-1125,1030,-1,-1544
1669,19.252927,-2575,53,529,1030,-3,-1548
1670,19.264478,-2063,-171,465,1031,1,-1541
1671,19.276023,-2575,21,513,1029,0,-1541
1672,19.287596,1265,469,-31,1032,2,-1538
1673,19.299415,1009,-75,801,1032,2,-1549
1674,19.311143,497,325,-2927,1032,0,-1547
1675,19.322697,-1551,-411,577,1029,3,-1544
1676,19.334249,-2575,309,609,1032,0,-1544
1677,19.345799,1265,-155,433,1032,0,-1545
1678,19.357351,-1551,53,705,1030,3,-1542
1679,19.368905,1265,85,-31,1030,2,-1546
1680,19.380451,-1551,389,161,1032,-2,-1547
1681,19.392003,-2063,85,241,1031,-1,-1537
1682,19.403717,-2063,-75,417,1030,0,-1541
1683,19.415396,1265,437,385,1031,-1,-1539
1684,19.427071,1265,-171,881,1033,-3,-1544
1685,19.438759,-2063,-27,-3007,1029,-4,-1543
1686,19.450419,-2063,277,609,1029,4,-1540
1687,19.462078,-1807,-331,-15,1032,-1,-1538
1688,19.473734,-2575,-75,529,1028,-1,-1541
1689,19.485416,-2575,-27,-3151,1031,-1,-1545
1690,19.497076,-1551,277,369,1030,0,-1547
1691,19.508796,-1039,37,689,1031,-1,-1547
1692,19.520462,-2575,-59,737,1029,-3,-1546
1693,19.532037,-2063,-219,689,1029,2,-1545
1694,19.543619,1009,-155,721,1030,0,-1541
1695,19.555192,-2575,-203,657,1032,0,-1544
1696,19.566761,-1551,-459,721,1030,0,-1547
1697,19.578324,-2575,357,881,1036,0,-1539
1698,19.589898,-2063,453,769,1028,-4,-1544
1699,19.601442,1009,565,529,1030,0,-1538
1700,19.613021,-2063,-59,577,1030,0,-1544
1701,19.624692,1009,21,289,1030,0,-1549
1702,19.636383,-1551,133,-239,1032,-1,-1542
1703,19.648047,1009,-91,81,1032,0,-1541
1704,19.65972,-1807,437,433,1032,0,-1541
1705,19.67139,-2575,213,-3103,1025,1,-1540
1706,19.683048,1265,277,193,1032,0,-1537
1707,19.694737,1265,-459,769,1032,1,-1540
1708,19.706384,-1551,197,465,1031,0,-1542
1709,19.718055,-523,-661,-1128,1031,-1,-1539
1710,19.729725,-2063,309,-3151,1034,-2,-1539
1711,19.741278,-1807,421,529,1032,2,-1542
1712,19.752826,-1551,-107,801,1031,0,-1541
1713,19.764386,-1807,-91,449,1032,2,-1544
1714,19.775933,-1551,-187,673,1031,1,-1548
1715,19.787487,-2575,-475,97,1034,2,-1545
1716,19.799068,-2063,405,833,1032,2,-1546
1717,19.810624,-1551,229,769,1032,3,-1544
1718,19.822182,-1551,149,737,1029,-1,-1539
1719,19.833812,-2575,-411,801,1029,4,-1548
1720,19.845486,1265,149,849,1031,2,-1544
1721,19.857153,-1807,437,545,1034,2,-1548
1722,19.868799,-2575,277,481,1031,0,-1547
1723,19.880445,-2575,-155,241,1034,-3,-1545
1724,19.892111,-523,-662,-1126,1028,1,-1545
1725,19.903779,-1807,357,113,1029,0,-1538
1726,19.915435,-1551,-139,113,1032,3,-1546
1727,19.927142,-1807,165,817,1029,0,-1546
1728,19.938791,1265,469,289,1029,0,-1542
1729,19.950347,-1807,501,-479,1029,4,-1540
1730,19.961917,1265,-11,449,1032,0,-1546
1731,19.973467,-2575,405,609,1031,0,-1539
1732,19.985007,-1551,149,721,1028,3,-1549
1733,19.996585,-2575,21,769,1031,1,-1542
1734,20.00813,-2063,-59,593,1032,0,-1544
1735,20.019684,-1807,453,449,1032,0,-1541
1736,20.031251,-783,149,833,1031,0,-1541
1737,20.042882,-2575,197,737,1032,-1,-1544
1738,20.054547,-2575,-155,657,1033,-1,-1541
1739,20.066221,-2575,-75,673,1032,2,-1541
1740,20.077867,-2063,309,337,1031,1,-1545
1741,20.089529,-2063,53,721,1033,-1,-1543
1742,20.101185,-1551,277,561,1030,0,-1547
1743,20.112829,-1039,-91,-1126,1029,2,-1547
1744,20.124479,-1551,533,577,1030,-3,-1541
1745,20.136165,-1551,149,513,1031,-1,-1543
1746,20.147814,-2063,501,593,1033,3,-1547
1747,20.159374,497,-11,369,1028,-2,-1542
1748,20.170938,-2575,293,753,1030,-2,-1547
1749,20.182466,-1551,101,609,1032,2,-1546
1750,20.194017,-1551,-299,353,1030,2,-1542
1751,20.205596,-2063,-235,529,1032,-3,-1543
1752,20.217145,-1807,-267,833,1029,0,-1545
1753,20.228728,1009,5,705,1030,-3,-1549
1754,20.24028,-524,-661,-1127,1034,14,-1537
1755,20.251943,-1807,341,417,1029,3,-1542
1756,20.263621,-1807,-59,209,1034,2,-1546
1757,20.275249,-2063,21,273,1033,0,-1542
1758,20.286969,-2063,389,209,1033,1,-1543
1759,20.29863,-1551,-43,-47,1029,1,-1543
1760,20.310282,-1807,197,33,1032,1,-1542
1761,20.321931,-2575,-59,225,1031,1,-1540
1762,20.333604,-1551,549,849,1032,-2,-1544
1763,20.345281,-2575,-315,337,1031,1,-1543
1764,20.356933,-2575,-347,801,1032,2,-1548
1765,20.368594,-524,-662,-1127,1033,0,-1547
1766,20.380237,-1807,117,465,1032,-3,-1544
1767,20.39192,-1807,53,337,1030,1,-1550
1768,20.403584,-2063,101,-3023,1032,-2,-1540
1769,20.415252,-1551,277,737,1031,0,-1543
1770,20.426919,1009,165,625,1033,1,-1545
1771,20.438604,-1551,293,721,1028,0,-1538
1772,20.450259,-1807,85,321,1034,-4,-1542
1773,20.461927,-2063,197,641,1032,-1,-1544
1774,20.473492,1265,277,657,1031,-2,-1547
1775,20.485051,-525,-661,-1129,1034,0,-1543
1776,20.496708,497,277,833,1030,-1,-1546
1777,20.508249,-2575,181,177,1030,2,-1549
1778,20.519831,-2063,405,417,1029,0,-1540
1779,20.531381,-2063,-219,737,1034,2,-1538
1780,20.542941,-1039,101,161,1029,0,-1548
1781,20.554477,-1551,-283,801,1029,1,-1539
1782,20.566103,-1551,325,241,1032,0,-1539
1783,20.577751,-2575,165,801,1028,-1,-1547
1784,20.589411,-1807,-331,353,1029,0,-1548
1785,20.601057,-1551,-235,625,1028,1,-1544
1786,20.612708,1265,69,-3183,1032,0,-1544
1787,20.624378,497,389,769,1033,0,-1542
1788,20.636031,-2575,-427,577,1031,-2,-1543
1789,20.647695,-1807,21,369,1031,0,-1549
1790,20.65937,-525,-662,-1125,1038,2,-1538
1791,20.671037,-524,-662,-1128,1034,0,-1548
1792,20.682615,-1551,-203,737,1033,-2,-1537
1793,20.694167,-2575,245,353,1032,3,-1540
1794,20.705753,-2063,37,401,1030,0,-1538
1795,20.717298,-2575,-75,-63,1032,-2,-1540
1796,20.728857,1265,421,-143,1032,2,-1544
1797,20.74042,-1807,501,561,1031,-2,-1545
1798,20.751967,-1551,69,433,1029,0,-1544
1799,20.763563,-2063,37,721,1029,-3,-1546
1800,20.775187,-1551,101,513,1031,0,-1541
1801,20.786865,-1807,37,113,1028,-1,-1554
1802,20.798527,-2063,-91,193,1031,2,-1547
1803,20.81018,-1551,197,-159,1032,1,-1539
1804,20.821834,-2575,53,609,1031,-2,-1548
1805,20.833479,-1807,389,801,1033,0,-1541
1806,20.845153,1265,405,769,1032,0,-1546
1807,20.85681,-2575,-11,369,1035,-4,-1547
1808,20.868515,-2063,-251,465,1034,-2,-1540
1809,20.880173,-2063,197,625,1033,-1,-1542
1810,20.891744,-2063,325,177,1029,3,-1548
1811,20.903318,-2063,-187,49,1032,-1,-1543
1812,20.914875,-1551,-27,401,1036,1,-1548
1813,20.926477,-2575,-411,321,1029,1,-1551
1814,20.93803,-1807,165,689,1029,3,-1542
1815,20.949604,-1551,181,209,1032,0,-1543
1816,20.961142,-1807,-139,529,1025,0,-1546
1817,20.972696,-2063,-603,-2943,1026,0,-1546
1818,20.984426,-1807,293,881,1030,0,-1544
1819,20.99609,-525,-660,-1126,1031,0,-1547
1820,21.007776,-2063,917,865,1034,0,-1545
1821,21.019439,-2575,-379,545,1032,-5,-1542
1822,21.031134,-2575,677,817,1033,-4,-1538
1823,21.042799,-2575,37,353,1030,2,-1540
1824,21.054484,-2575,-235,321,1032,0,-1541
1825,21.066148,-2575,165,81,1030,0,-1547
1826,21.07784,1265,-299,-2991,1032,-1,-1546
1827,21.089506,-526,-661,-1126,1032,-2,-1538
1828,21.101075,-1807,245,65,1032,-1,-1550
1829,21.112635,-2575,229,193,1032,-2,-1549
1830,21.124218,-2575,-43,465,1032,-4,-1544
1831,21.135846,-2575,389,529,1032,0,-1544
1832,21.14742,1009,-59,817,1033,1,-1544
1833,21.158953,-2063,613,673,1028,1,-1545
1834,21.170507,1009,533,-3071,1027,4,-1543
1835,21.18206,-524,-661,-1126,1032,3,-1541
1836,21.193687,-783,-187,513,1029,0,-1544
1837,21.205394,-2063,69,881,1031,1,-1545
1838,21.217052,-2575,85,193,1030,-1,-1547
1839,21.228693,-2575,421,193,1030,-2,-1541
1840,21.240381,-2063,-59,849,1032,-1,-1541
1841,21.252046,-1807,389,481,1032,-2,-1545
1842,21.263699,-526,-662,-1127,1032,0,-1551
1843,21.275387,-2575,37,545,1029,-1,-1545
1844,21.287069,1265,-395,369,1034,1,-1544
1845,21.298634,-2575,-251,561,1032,-2,-1543
1846,21.310213,-2575,373,689,1028,2,-1539
1847,21.321769,-1551,613,513,1028,0,-1553
1848,21.333348,1265,-43,705,1033,2,-1542
1849,21.344889,-1807,53,513,1032,3,-1540
1850,21.356492,-1551,117,673,1032,-4,-1541
1851,21.368052,-2575,277,641,1028,0,-1541
1852,21.379606,-523,-662,-1125,1031,-2,-1540
1853,21.39119,1265,549,801,1032,-3,-1544
1854,21.402876,-1551,-299,209,1033,-2,-1548
1855,21.414531,1265,229,49,1028,5,-1544
1856,21.426214,-1807,197,417,1030,-1,-1544
1857,21.4379,1265,453,689,1033,0,-1546
1858,21.44955,-1551,309,257,1034,-1,-1542
1859,21.461203,-1551,213,257,1033,2,-1542
1860,21.47287,-2575,405,65,1029,2,-1541
1861,21.48453,1009,181,865,1029,0,-1539
1862,21.496182,-2063,229,-3119,1025,-2,-1548
1863,21.507847,-1551,133,721,1030,0,-1547
1864,21.519621,-2575,69,177,1033,0,-1543
1865,21.531303,-2063,229,561,1030,2,-1544
1866,21.542986,-1039,-43,225,1033,0,-1548
1867,21.554654,-2575,149,353,1032,-3,-1548
1868,21.566307,-2063,117,33,1029,1,-1542
1869,21.577944,-1807,165,801,1031,-2,-1549
1870,21.589671,-2063,-59,721,1032,1,-1543
1871,21.601359,-2063,373,513,1032,-5,-1545
1872,21.612962,-2063,-219,385,1029,0,-1537
1873,21.624509,-1807,-315,897,1032,0,-1548
1874,21.636054,-1551,-491,81,1033,0,-1542
1875,21.647613,-2063,261,737,1027,0,-1542
1876,21.659187,-525,-658,-1125,1029,1,-1539
1877,21.670764,1265,581,-2943,1030,3,-1538
1878,21.682338,-2063,181,-2735,1031,0,-1541
1879,21.693896,-1551,501,801,1032,0,-1543
1880,21.705526,-2575,-171,305,1029,0,-1539
1881,21.717178,-1551,21,657,1031,1,-1542
1882,21.728822,1265,213,353,1032,0,-1545
1883,21.740466,-1551,-75,-3119,1033,0,-1543
1884,21.752139,-1551,149,369,1030,-1,-1541
1885,21.763767,-1551,101,689,1033,5,-1547
1886,21.775424,-2063,149,81,1033,1,-1540
1887,21.787116,-523,-661,-1127,1032,-1,-1547
1888,21.798786,-2063,325,-2431,1032,-8,-1532
1889,21.810482,-2063,-43,593,1031,-1,-1541
1890,21.82204,-525,-662,-1123,1032,0,-1543
1891,21.83359,-1551,389,161,1030,-3,-1545
1892,21.845147,-1551,597,353,1030,-1,-1545
1893,21.856737,-2063,277,657,1031,-1,-1541
1894,21.868288,-2063,341,337,1032,1,-1550
1895,21.879841,-1551,341,481,1034,1,-1540
1896,21.891459,-1551,-187,433,1031,0,-1542
1897,21.903032,1265,-59,481,1032,1,-1547
1898,21.914659,-2063,485,609,1030,1,-1541
1899,21.926318,1265,149,337,1031,0,-1545
1900,21.937961,-1551,229,193,1032,2,-1543
1901,21.949609,-1551,149,-2639,1032,1,-1547
1902,21.961282,1265,309,529,1032,1,-1539
1903,21.972923,-2063,-27,145,1033,0,-1551
1904,21.984567,-2575,181,385,1028,1,-1540
1905,21.996233,-1551,133,-3167,1029,2,-1547
1906,22.007913,-523,-663,-1126,1028,-1,-1543
1907,22.019557,-2063,101,673,1035,0,-1540
1908,22.031123,-2575,21,673,1029,0,-1544
1909,22.04272,-2575,229,545,1032,0,-1540
1910,22.054269,1009,-219,785,1032,-1,-1539
1911,22.06582,-1551,-123,385,1037,0,-1543
1912,22.07737,-2575,181,481,1033,-2,-1548
1913,22.088914,-1551,-315,321,1029,-1,-1541
1914,22.100461,-1551,213,417,1030,0,-1550
1915,22.112016,-2063,133,417,1029,0,-1538
1916,22.123722,-2575,101,49,1032,-2,-1547
1917,22.135398,-523,-661,-1126,1030,-3,-1542
1918,22.147048,-2575,53,865,1033,-1,-1541
1919,22.158739,-2063,69,577,1030,-1,-1550
1920,22.170385,-527,-659,-1124,1029,0,-1542
1921,22.182046,1009,581,721,1033,0,-1540
1922,22.193695,1009,-523,593,1029,1,-1548
1923,22.205337,-1807,-75,593,1030,1,-1535
1924,22.217001,1265,5,529,1031,0,-1544
1925,22.228651,-1807,533,497,1029,0,-1548
1926,22.240226,1265,53,-15,1029,0,-1542
1927,22.251833,-2575,-283,561,1029,-1,-1542
1928,22.2634,-2063,-11,769,1033,-3,-1540
1929,22.274952,-1551,-11,481,1032,-2,-1547
1930,22.286473,-2575,181,289,1032,1,-1544
1931,22.298015,-2063,-155,369,1029,0,-1543
1932,22.309578,1009,389,401,1030,0,-1545
1933,22.321137,-2063,213,369,1030,0,-1545
1934,22.332774,-2575,229,97,1030,-1,-1546
1935,22.344428,-2063,-235,769,1031,0,-1543
1936,22.356138,-524,-659,-1126,1029,-3,-1542
1937,22.367772,1265,357,449,1031,0,-1540
1938,22.379415,1009,-235,-2991,1035,-3,-1539
1939,22.391068,-2575,-59,-95,1032,0,-1545
1940,22.402744,497,229,321,1027,0,-1543
1941,22.414392,1009,-43,497,1029,5,-1541
1942,22.426051,-2575,517,737,1032,0,-1541
1943,22.437697,-2575,-43,225,1033,0,-1547
1944,22.449256,-524,-661,-1127,1027,0,-1544
1945,22.460827,1265,229,705,1029,-3,-1553
1946,22.472391,-1039,-283,657,1034,-2,-1550
1947,22.483965,-2575,357,-3167,1028,-2,-1541
1948,22.495546,-2575,389,753,1029,0,-1544
1949,22.507105,-2575,-75,385,1031,1,-1540
1950,22.518646,-2575,-43,865,1029,0,-1546
1951,22.530205,-2063,101,257,1032,-1,-1546
1952,22.541824,1265,181,513,1031,-1,-1545
1953,22.553558,-525,-660,-1126,1030,0,-1542
1954,22.565208,1009,37,609,1029,0,-1545
1955,22.576898,-2063,21,257,1032,0,-1544
1956,22.588553,-1551,133,321,1030,0,-1540
1957,22.600196,1265,-139,305,1030,0,-1540
1958,22.611889,-1551,-91,417,1031,-3,-1538
1959,22.623553,-1807,-75,385,1033,0,-1545
1960,22.635267,-2575,53,769,1028,0,-1545
1961,22.646923,-2063,-203,-287,1029,0,-1539
1962,22.658472,497,37,817,1032,1,-1539
1963,22.670012,-1807,-75,-3087,1030,1,-1544
1964,22.681564,-1039,-75,353,1023,0,-1542
1965,22.693114,1009,277,-3103,1029,-4,-1546
1966,22.704658,-1551,533,257,1025,0,-1542
1967,22.716203,1009,-43,817,1032,0,-1545
1968,22.727753,1265,213,337,1028,3,-1543
1969,22.739351,-524,-661,-1126,1033,-2,-1539
1970,22.751002,-2063,37,545,1033,-2,-1542
1971,22.762657,1009,5,-2975,1030,0,-1544
1972,22.774298,-1807,-43,785,1031,4,-1544
1973,22.785947,-1807,341,289,1029,2,-1539
1974,22.79763,-1551,-267,705,1033,0,-1550
1975,22.809279,-1807,341,657,1028,-1,-1548
1976,22.820928,-1551,-363,113,1028,0,-1541
1977,22.832589,-783,181,-31,1033,-1,-1543
1978,22.844268,-1551,-443,321,1034,0,-1549
1979,22.855924,1009,-59,705,1032,0,-1546
1980,22.86749,1009,293,97,1032,0,-1548
1981,22.879093,-1807,-11,-15,1029,0,-1542
1982,22.890712,-2063,-315,113,1032,-1,-1543
1983,22.902261,1265,-43,-2975,1028,-2,-1547
1984,22.913834,-2063,-171,241,1029,-1,-1538
1985,22.925389,1009,-491,849,1032,0,-1539
1986,22.936936,-1551,325,385,1028,-1,-1543
1987,22.94849,1265,165,-3183,1031,-3,-1546
1988,22.960105,-2575,37,481,1031,0,-1547
1989,22.971778,-2575,325,385,1032,1,-1540
1990,22.983437,-1551,149,449,1031,3,-1545
1991,22.99513,497,5,369,1032,0,-1541
1992,23.00679,1265,-75,209,1035,0,-1541
1993,23.018481,-2063,149,465,1032,-1,-1535
1994,23.030157,-2575,277,897,1029,-2,-1551
1995,23.041805,-1039,501,417,1031,2,-1540
1996,23.053498,-2063,-27,481,1032,2,-1545
1997,23.065159,-526,-660,-2815,1029,0,-1546
1998,23.076734,-2575,197,257,1028,0,-1542
1999,23.088299,-525,-660,-1127,1032,0,-1546
