sample,t_s,gyro_x,gyro_y,gyro_z,accel_x,accel_y,accel_z
0,1.1e-05,1024,1040,-1536,0,65,-1040
1,0.011338,256,448,1744,-2,61,-1035
2,0.022542,768,512,2000,-4,63,-1029
3,0.033733,1,6,9,-3,62,-1030
4,0.044923,-256,912,1456,-2,65,-1035
5,0.056121,-1280,752,1600,-3,64,-1034
6,0.067305,-256,480,1808,2,64,-1039
7,0.078492,256,1024,1616,-2,67,-1028
8,0.089689,256,1024,-2016,0,66,-1030
9,0.100873,1024,1632,1376,0,65,-1028
10,0.112067,-256,624,1536,0,60,-1034
11,0.123263,-256,832,1808,0,61,-1034
12,0.134448,256,528,2032,0,64,-1030
13,0.14563,256,1104,1744,3,61,-1031
14,0.156813,1024,608,-1968,-4,67,-1033
15,0.168001,0,800,1424,-5,67,-1028
16,0.17918,-256,720,-1680,0,68,-1034
17,0.190367,768,1104,1936,-1,66,-1035
18,0.201548,1024,544,1184,0,62,-1031
19,0.212731,-768,1328,1520,-4,63,-1028
20,0.223927,-1024,784,-1968,0,63,-1039
21,0.235109,1024,704,1408,-1,62,-1026
22,0.246292,-256,32,-1952,1,62,-1030
23,0.257477,0,528,1424,-1,63,-1034
24,0.268659,-256,1392,2000,-2,64,-1031
25,0.279854,1024,624,1488,0,70,-1031
26,0.291039,1536,768,-1888,0,67,-1032
27,0.302222,-768,416,1504,-2,65,-1036
28,0.313406,256,480,1632,-2,65,-1034
29,0.324585,1024,528,1856,-1,64,-1032
30,0.335746,0,1040,1936,0,65,-1039
31,0.346929,1024,720,1088,0,64,-1029
32,0.358114,-256,464,1792,0,62,-1035
33,0.369306,-256,736,-1680,-2,63,-1039
34,0.380496,2,6,6,-2,64,-1031
35,0.391686,-256,272,1360,0,66,-1031
36,0.402886,-256,512,1360,0,61,-1034
37,0.414068,0,704,1520,-2,64,-1031
38,0.42525,256,880,1808,3,66,-1033
39,0.436441,1024,560,1568,-5,65,-1035
40,0.447627,1536,288,1440,0,65,-1029
41,0.458818,2,7,8,2,67,-1029
42,0.470001,0,816,1616,-2,69,-1034
43,0.481181,256,1104,1584,-1,63,-1032
44,0.492368,256,1408,1984,1,65,-1040
45,0.50356,256,768,1648,0,64,-1033
46,0.514741,1,7,9,-1,66,-1028
47,0.525924,0,912,-1664,0,61,-1034
48,0.537111,1536,912,1408,-1,64,-1025
49,0.548302,-768,672,-1360,-3,66,-1038
50,0.559492,1536,672,1456,-3,63,-1030
51,0.570673,1536,576,2032,0,63,-1034
52,0.581859,256,960,1472,2,67,-1027
53,0.593043,256,1024,-1872,-1,66,-1033
54,0.604232,256,720,1248,-1,61,-1028
55,0.615372,-768,608,1232,0,65,-1035
56,0.626555,1024,928,-1952,2,65,-1040
57,0.637739,768,720,-1936,4,67,-1029
58,0.648922,15,-80,976,-3,65,-1038
59,0.660116,0,448,1920,-2,67,-1035
60,0.671298,256,832,1616,-1,66,-1032
61,0.682486,1,6,8,0,68,-1038
62,0.693677,768,416,1648,-1,66,-1038
63,0.704915,-256,1328,1264,-2,58,-1034
64,0.716117,1024,320,-1904,-3,64,-1037
65,0.727307,0,608,1904,-3,65,-1031
66,0.73849,768,208,1984,-1,65,-1028
67,0.749677,0,368,496,-2,61,-1036
68,0.760873,256,272,1072,0,59,-1038
69,0.772067,256,448,1312,0,63,-1036
70,0.783274,3,5,13,-5,67,-1032
71,0.794481,5,6,8,0,68,-1030
72,0.805671,768,480,1440,0,66,-1032
73,0.816857,256,448,1664,0,66,-1036
74,0.828052,1536,736,1840,-2,64,-1031
75,0.839236,768,736,-1408,-6,61,-1032
76,0.850424,-256,224,528,-1,63,-1035
77,0.861616,768,576,1840,0,66,-1028
78,0.872801,0,320,1984,-6,63,-1037
79,0.883991,0,1040,1728,2,64,-1032
80,0.895173,768,896,1904,0,65,-1034
81,0.906361,-256,624,1504,2,64,-1033
82,0.917545,-256,624,1216,-2,64,-1032
83,0.928732,256,672,-2048,-3,66,-1035
84,0.939926,256,1072,1968,-3,67,-1035
85,0.951107,-1024,1232,2000,-2,64,-1037
86,0.962291,-256,672,1216,3,65,-1029
87,0.973476,2,8,9,2,63,-1031
88,0.984661,0,432,1616,0,61,-1031
89,0.995857,-256,736,1520,-4,66,-1028
90,1.007041,-256,1088,1344,0,64,-1029
91,1.018229,2,5,9,1,59,-1034
92,1.029416,0,592,-1872,-2,63,-1033
93,1.04061,0,672,1504,-4,62,-1032
94,1.0518,1024,208,1568,-3,64,-1036
95,1.062984,-768,352,-2032,-3,66,-1036
96,1.074165,768,176,1712,0,64,-1031
97,1.085348,256,544,1968,0,66,-1032
98,1.096533,0,656,1152,-1,66,-1038
99,1.107744,-256,288,1888,-4,63,-1030
100,1.118933,1024,1296,1904,0,63,-1023
101,1.130115,768,528,1696,-2,65,-1028
102,1.1413,0,1104,-1824,0,67,-1034
103,1.152479,256,1152,1568,-1,69,-1026
104,1.163672,0,704,1936,-3,64,-1031
105,1.174856,1024,448,1792,0,64,-1029
106,1.186053,0,864,-1520,2,67,-1031
107,1.197236,1024,800,1312,-1,63,-1034
108,1.208429,-1024,1344,1856,-1,65,-1033
109,1.219626,-256,656,1360,1,63,-1037
110,1.23081,0,1008,2016,-3,64,-1032
111,1.241993,768,624,1872,-3,65,-1033
112,1.253176,1024,1184,1008,-1,65,-1029
113,1.264365,-256,1104,1728,-3,64,-1030
114,1.275565,-256,592,1600,-5,66,-1024
115,1.286747,0,736,1488,0,64,-1035
116,1.297935,256,544,-1728,0,68,-1034
117,1.309116,271,-208,272,-2,63,-1031
118,1.320301,768,1024,-2016,-2,63,-1033
119,1.331493,-768,1088,1328,-3,64,-1036
120,1.342676,3,5,9,-1,65,-1025
121,1.353861,-256,112,1168,1,64,-1029
122,1.365045,1024,352,1872,0,66,-1028
123,1.376254,256,752,2000,-2,63,-1026
124,1.387443,2,4,7,1,64,-1040
125,1.398624,-1024,1008,1888,0,66,-1035
126,1.409808,0,880,-928,-2,67,-1029
127,1.420992,-256,384,1968,1,63,-1035
128,1.432194,256,832,1760,-1,66,-1034
129,1.443375,768,944,1920,2,63,-1024
130,1.45456,1024,480,1632,-4,64,-1029
131,1.465749,0,544,-1872,0,65,-1032
132,1.476943,256,384,1344,0,64,-1038
133,1.488118,-1280,848,1152,-3,65,-1038
134,1.499302,-256,640,1472,1,67,-1032
135,1.510487,256,864,-1824,0,66,-1027
136,1.521689,768,768,1408,0,65,-1035
137,1.532956,768,432,240,0,66,-1032
138,1.544268,3,5,8,4,66,-1034
139,1.555462,256,784,1408,0,61,-1032
140,1.56665,768,400,1440,-2,61,-1030
141,1.577838,256,320,1280,2,67,-1032
142,1.589026,0,1184,1776,-5,59,-1040
143,1.60023,1024,576,1920,-1,63,-1028
144,1.611421,0,736,-1456,0,64,-1030
145,1.622612,1024,576,-1984,0,65,-1036
146,1.633802,256,608,1568,-2,65,-1031
147,1.644987,0,5,7,-4,67,-1036
148,1.656176,1024,784,1120,-4,63,-1035
149,1.667378,1,7,9,-4,64,-1029
150,1.678561,-256,816,1840,-1,62,-1037
151,1.689747,1024,864,1840,-2,67,-1030
152,1.70093,1024,1104,-1712,-3,61,-1033
153,1.712114,768,816,1232,3,64,-1029
154,1.723298,1536,384,1872,-2,66,-1034
155,1.734484,256,1200,1712,-1,66,-1027
156,1.745672,0,736,2016,-1,62,-1027
157,1.756853,0,496,-2048,-4,63,-1029
158,1.768067,256,1120,1552,2,63,-1031
159,1.779249,256,704,1952,0,63,-1033
160,1.790429,1536,912,1792,0,63,-1029
161,1.801613,0,976,1824,-1,63,-1037
162,1.812799,768,960,2016,-5,64,-1042
163,1.823984,-768,624,1008,0,62,-1037
164,1.83518,1024,816,1488,-2,61,-1036
165,1.846364,-2048,832,1728,0,65,-1033
166,1.857547,-256,544,1824,0,65,-1037
167,1.868731,1536,768,1712,-1,67,-1027
168,1.879932,0,1408,1472,-2,64,-1037
169,1.891113,-256,288,1904,-1,63,-1033
170,1.902298,256,752,1664,1,64,-1031
171,1.91348,256,576,-1984,-1,66,-1034
172,1.924665,768,592,1280,-1,65,-1028
173,1.935867,768,1072,1296,1,63,-1029
174,1.94705,768,1232,-1808,-3,62,-1034
175,1.95824,0,816,-1664,-2,63,-1032
176,1.969421,-240,4,9,0,62,-1033
177,1.980608,256,496,1616,1,64,-1034
178,1.991797,768,704,-2000,0,67,-1034
179,2.002978,256,896,1408,-4,64,-1030
180,2.014161,768,112,1136,0,65,-1030
181,2.025346,0,608,1696,-2,66,-1028
182,2.03653,0,800,1728,-2,67,-1034
183,2.047713,1024,672,1824,-3,65,-1028
184,2.058896,256,560,1168,1,65,-1031
185,2.070077,-256,1488,8,0,61,-1032
186,2.081268,-256,720,1456,-2,64,-1022
187,2.09245,0,960,1840,-1,61,-1029
188,2.103634,256,800,1232,-1,66,-1038
189,2.114813,-256,960,1840,-4,64,-1024
190,2.125992,-256,544,1536,2,65,-1033
191,2.137173,-1024,880,1728,1,65,-1035
192,2.148359,-256,432,1760,1,68,-1027
193,2.159553,256,288,-1936,2,63,-1034
194,2.170733,-256,560,1296,0,64,-1029
195,2.181916,-256,560,1472,-5,64,-1033
196,2.193107,-256,480,1344,-2,65,-1035
197,2.204301,-256,944,-1920,-1,63,-1031
198,2.215494,1024,1072,1776,-1,63,-1035
199,2.226676,-256,752,1664,-1,62,-1028
200,2.237861,768,880,-1920,2,61,-1036
201,2.249046,-256,704,1872,-3,64,-1033
202,2.260238,768,592,1264,0,66,-1042
203,2.27143,256,1328,-1984,0,64,-1030
204,2.282625,0,528,1600,-1,61,-1037
205,2.293809,256,944,-2032,-1,63,-1032
206,2.304993,256,1008,1488,-2,63,-1038
207,2.316179,256,608,1248,-3,64,-1032
208,2.327369,768,368,1392,-3,65,-1028
209,2.338552,768,736,1904,2,65,-1032
210,2.349736,0,640,1664,0,65,-1037
211,2.360918,-256,880,1360,3,65,-1035
212,2.372119,1536,496,672,-1,63,-1035
213,2.383301,1024,688,-1792,-4,65,-1035
214,2.394495,0,272,1584,-3,64,-1030
215,2.40568,768,1088,1856,2,62,-1033
216,2.41686,768,976,1760,2,63,-1032
217,2.428051,1536,672,1552,-1,64,-1034
218,2.439232,768,1152,1808,-4,65,-1031
219,2.450419,1024,496,-2032,0,63,-1027
220,2.461599,1024,544,1072,0,65,-1032
221,2.472785,-256,32,1200,-3,67,-1035
222,2.483926,256,464,1872,0,64,-1036
223,2.495106,256,592,2016,3,62,-1033
224,2.506291,256,752,-1888,-4,68,-1034
225,2.517478,256,560,1280,-4,66,-1032
226,2.528661,256,1328,1552,0,66,-1035
227,2.539854,-768,416,-2048,-1,64,-1033
228,2.551048,-256,992,1264,-4,67,-1028
229,2.562227,0,800,1232,-4,60,-1037
230,2.57341,1024,912,1968,2,68,-1032
231,2.584595,1024,608,1392,-3,68,-1035
232,2.595741,0,880,1552,0,63,-1030
233,2.606926,768,384,2000,2,64,-1036
234,2.61811,-256,352,1776,-1,66,-1031
235,2.629303,-256,624,11,1,68,-1032
236,2.640486,256,800,1408,2,61,-1033
237,2.651679,-256,640,-1824,0,66,-1034
238,2.662859,1024,672,1472,1,63,-1037
239,2.674047,1024,704,1664,0,61,-1031
240,2.685228,-256,720,1936,-3,66,-1035
241,2.696417,1536,1152,1232,0,68,-1034
242,2.707612,0,848,1760,0,65,-1034
243,2.718793,-256,448,1200,3,60,-1034
244,2.729978,1024,1440,-672,-3,69,-1028
245,2.741161,256,624,1840,0,62,-1036
246,2.75241,768,1072,1360,1,66,-1030
247,2.763557,1024,944,992,-3,66,-1034
248,2.77474,0,720,-1952,-2,65,-1037
249,2.785921,2,8,9,-1,66,-1028
250,2.797101,768,560,2016,0,65,-1028
251,2.808296,-256,896,1952,1,67,-1031
252,2.819487,1536,416,1904,0,64,-1032
253,2.830669,-256,448,752,-3,64,-1034
254,2.84186,256,592,1680,-3,64,-1033
255,2.85304,0,672,1296,-2,63,-1023
256,2.864232,-256,640,-2048,0,67,-1028
257,2.875374,1024,256,1744,0,63,-1029
258,2.886555,768,896,1424,0,64,-1031
259,2.89774,-768,672,1408,4,66,-1034
260,2.908936,-256,1232,1760,0,67,-1035
261,2.920111,256,736,1168,-3,68,-1032
262,2.931294,1024,512,-1568,0,65,-1034
263,2.942477,1536,944,-2000,1,64,-1031
264,2.953661,0,672,1504,-2,67,-1035
265,2.964843,256,944,1408,0,64,-1031
266,2.976043,-256,976,1936,-2,65,-1029
267,2.987257,256,624,1472,-1,66,-1035
268,2.998441,256,768,1616,2,64,-1034
269,3.009627,1024,384,1296,0,65,-1027
270,3.020809,-768,736,1008,0,67,-1034
271,3.031992,3,6,7,-4,67,-1029
272,3.043172,1024,1328,1536,-3,64,-1025
273,3.054352,1792,864,2016,-2,60,-1028
274,3.065535,0,624,1264,1,68,-1032
275,3.076721,2,8,11,-2,60,-1036
276,3.087915,256,384,1808,-2,64,-1032
277,3.099102,-256,624,1664,-2,65,-1028
278,3.11029,1024,832,-2032,0,63,-1031
279,3.121479,1536,784,1792,1,63,-1036
280,3.132664,1024,656,1712,-2,62,-1035
281,3.143855,768,816,1648,3,64,-1031
282,3.155038,-256,352,1680,-2,65,-1027
283,3.166223,-256,1104,1792,0,65,-1030
284,3.177406,-256,480,1408,-5,63,-1032
285,3.188597,0,896,1520,2,63,-1027
286,3.199742,0,832,1616,-1,63,-1034
287,3.210925,2,4,9,3,63,-1029
288,3.222107,256,784,-1872,-1,68,-1032
289,3.233302,-2048,128,1184,0,67,-1035
290,3.244483,256,688,-1440,-5,62,-1032
291,3.255696,0,512,1376,0,65,-1029
292,3.266879,5,6,9,-2,64,-1032
293,3.278059,256,656,1568,-4,64,-1033
294,3.28924,0,800,-1088,3,63,-1031
295,3.300424,256,672,1472,-3,67,-1033
296,3.31161,1024,736,1840,-1,64,-1034
297,3.322789,256,576,1456,-3,63,-1035
298,3.333977,256,1392,-2048,0,67,-1023
299,3.345159,0,640,1632,1,66,-1030
300,3.356347,768,864,1632,2,66,-1038
301,3.367552,256,1168,1600,0,67,-1032
302,3.378733,1536,592,1648,-5,66,-1032
303,3.389922,1024,1072,-2000,-2,67,-1028
304,3.401107,1024,256,1600,-1,66,-1030
305,3.412297,1024,544,-1808,0,64,-1035
306,3.423486,768,752,1552,-1,66,-1038
307,3.434671,1536,416,1824,-1,62,-1034
308,3.445855,-256,1344,1680,-1,62,-1035
309,3.457041,1536,848,1472,-3,63,-1033
310,3.468229,1024,864,1520,0,65,-1027
311,3.479373,768,512,1856,-4,63,-1033
312,3.490552,-256,704,-1616,3,64,-1031
313,3.501735,-256,768,1824,-1,67,-1033
314,3.512913,256,704,1344,0,66,-1034
315,3.524112,1536,784,1216,2,67,-1033
316,3.535293,0,1264,1504,-5,65,-1033
317,3.546481,768,816,1344,-6,66,-1030
318,3.557664,256,768,2032,-4,60,-1039
319,3.568846,256,784,1808,1,67,-1030
320,3.580044,0,640,1264,0,63,-1031
321,3.591224,1024,672,-1536,0,63,-1034
322,3.602412,0,496,-2016,-3,67,-1029
323,3.613612,1536,640,-1856,-3,65,-1029
324,3.624793,256,1088,1984,1,61,-1031
325,3.63598,768,432,1312,0,64,-1029
326,3.647161,256,528,1296,0,65,-1027
327,3.658343,1024,1104,1664,0,64,-1030
328,3.669525,768,400,1360,0,64,-1037
329,3.68071,256,480,1696,-3,62,-1034
330,3.691898,4,10,9,-1,66,-1038
331,3.703081,768,848,1392,-2,66,-1033
332,3.714264,256,1104,-1824,2,65,-1030
333,3.725443,0,816,-1888,-2,66,-1032
334,3.736623,256,416,-2048,-2,65,-1033
335,3.747807,1024,384,1568,-2,65,-1032
336,3.758986,256,880,1664,-1,66,-1026
337,3.77017,0,1472,1632,-4,69,-1032
338,3.781358,0,1120,1936,1,66,-1037
339,3.79255,768,496,1728,1,66,-1034
340,3.803742,768,752,1728,-1,61,-1035
341,3.814925,768,800,1440,-2,62,-1041
342,3.826106,-256,592,1616,-3,65,-1031
343,3.8373,256,528,-1856,-3,63,-1032
344,3.848485,1024,640,1664,-1,63,-1024
345,3.859676,256,912,1712,1,63,-1039
346,3.870857,3,7,10,-1,65,-1039
347,3.882038,1024,672,-2016,-1,62,-1035
348,3.893222,-256,304,1408,0,63,-1037
349,3.904405,1792,736,1760,-4,64,-1027
350,3.915557,256,1232,1936,0,62,-1033
351,3.926737,1536,672,1648,3,62,-1037
352,3.937916,1024,912,1632,1,65,-1030
353,3.9491,768,704,-880,3,62,-1037
354,3.960294,0,768,1376,-3,66,-1026
355,3.971495,0,192,1952,-1,61,-1036
356,3.982678,256,736,1456,0,63,-1033
357,3.99386,256,352,1728,-3,62,-1032
358,4.005043,0,864,1376,-1,63,-1037
359,4.01623,768,816,1680,4,68,-1033
360,4.027374,256,736,1472,1,65,-1034
361,4.038557,1536,928,1792,-6,62,-1033
362,4.049748,256,496,1904,-4,63,-1028
363,4.060931,-256,912,1776,-4,64,-1030
364,4.072114,256,624,1200,0,63,-1024
365,4.083296,1024,1056,1232,-1,61,-1035
366,4.09448,1024,816,1600,-1,65,-1023
367,4.105667,0,1184,-2032,1,67,-1034
368,4.116852,256,1264,1648,1,66,-1028
369,4.128038,-256,848,1744,-2,66,-1038
370,4.139223,768,688,1456,-5,65,-1036
371,4.150403,768,1520,1936,-2,68,-1032
372,4.161587,1024,592,1232,0,68,-1033
373,4.17277,256,848,-1744,0,64,-1038
374,4.183925,1536,528,1744,0,62,-1027
375,4.195108,-768,784,1824,-2,62,-1032
376,4.20629,0,560,1328,-3,58,-1028
377,4.217473,0,672,1536,2,62,-1032
378,4.228658,256,528,1472,-3,60,-1031
379,4.239854,256,560,1792,-2,70,-1038
380,4.251036,256,704,2016,1,65,-1033
381,4.262223,1024,1024,1712,0,65,-1031
382,4.273406,1536,1072,1904,0,66,-1034
383,4.284592,768,896,-2016,0,66,-1031
384,4.29575,1024,688,1792,0,68,-1033
385,4.307228,1536,640,1760,-1,64,-1030
386,4.318798,-256,560,1472,-2,61,-1029
387,4.330368,-2048,1008,1728,0,63,-1024
388,4.341912,256,720,1728,-4,63,-1029
389,4.353468,1792,816,1040,-3,64,-1037
390,4.365049,1024,720,1680,-1,63,-1033
391,4.376614,-256,688,1824,-2,63,-1037
392,4.38813,256,928,1808,-2,62,-1040
393,4.399665,1536,672,2032,-1,67,-1034
394,4.411287,1024,1184,1840,0,65,-1035
395,4.422938,2,5,11,0,67,-1035
396,4.43461,256,1040,1328,-4,59,-1029
397,4.446254,1024,688,1664,1,64,-1029
398,4.457905,1024,1248,1760,-1,64,-1031
399,4.469576,0,1008,2032,-2,65,-1026
400,4.481231,256,864,-2000,-3,63,-1032
401,4.492895,0,784,1584,2,69,-1029
402,4.504584,-256,960,-2016,-1,67,-1029
403,4.51613,256,896,2016,-2,66,-1038
404,4.527652,256,912,-1904,2,66,-1028
405,4.539198,1024,352,1888,0,65,-1041
406,4.550768,-256,864,1472,1,63,-1034
407,4.562317,1536,672,1632,-1,64,-1039
408,4.573894,768,1024,-1888,0,62,-1032
409,4.585439,768,800,1472,-1,61,-1028
410,4.59698,256,480,1968,0,59,-1038
411,4.608551,256,832,1824,-2,64,-1024
412,4.62019,0,224,1792,1,64,-1032
413,4.631865,1536,864,1664,-1,64,-1034
414,4.643538,768,1344,1680,-1,64,-1033
415,4.655184,768,624,1392,3,62,-1033
416,4.666852,-256,1056,1728,-3,62,-1031
417,4.678498,1024,608,1744,-1,63,-1031
418,4.690144,-256,1040,1280,-4,62,-1034
419,4.701823,1792,624,1440,-2,64,-1032
420,4.713483,0,944,1744,-5,63,-1029
421,4.725131,1536,816,1392,1,62,-1036
422,4.736777,1024,912,-1680,4,66,-1026
423,4.748463,0,0,1584,-2,63,-1035
424,4.760118,-256,928,1568,0,66,-1029
425,4.771788,1024,1312,-2032,-6,65,-1033
426,4.783463,768,800,1712,-1,66,-1026
427,4.795126,256,496,-2016,1,65,-1035
428,4.806792,256,976,1632,0,65,-1019
429,4.818451,1536,480,1952,-3,66,-1034
430,4.830117,256,576,1824,1,61,-1033
431,4.841709,1792,464,-1824,3,64,-1021
432,4.853276,256,752,2016,0,58,-1036
433,4.864844,0,720,1728,-1,64,-1031
434,4.876369,1024,752,1696,1,63,-1034
435,4.887899,1536,656,1904,0,69,-1030
436,4.899448,1792,560,1680,2,65,-1034
437,4.910992,-256,592,1920,-2,64,-1038
438,4.92257,-256,576,-2000,-2,68,-1025
439,4.934182,-256,1024,1248,0,67,-1037
440,4.945844,768,720,-2000,-1,69,-1036
441,4.957503,1536,336,1952,2,62,-1031
442,4.969158,0,448,1712,0,64,-1036
443,4.980845,768,688,1840,-1,61,-1030
444,4.992506,0,944,1520,1,58,-1031
445,5.004224,256,800,1024,-4,68,-1036
446,5.015864,1536,864,1728,-3,64,-1034
447,5.02755,0,480,1600,1,65,-1031
448,5.039228,-256,1088,1440,0,64,-1031
449,5.050809,-256,1120,2016,-3,65,-1026
450,5.062354,768,336,1504,0,64,-1033
451,5.073929,1024,912,1264,-1,64,-1031
452,5.08549,3,5,8,-1,61,-1032
453,5.097043,256,592,1648,3,64,-1032
454,5.108692,1024,1152,1536,-1,60,-1028
455,5.120261,-256,864,1216,-2,63,-1035
456,5.131843,1024,1040,9,-1,66,-1030
457,5.143578,1024,192,1872,1,64,-1030
458,5.155258,1024,800,1184,0,63,-1025
459,5.166903,0,960,1040,0,67,-1036
460,5.178552,0,400,1984,-3,62,-1031
461,5.190234,-256,864,2032,0,68,-1034
462,5.20188,-768,624,1344,0,69,-1035
463,5.21353,1536,656,1712,0,60,-1038
464,5.225209,1024,528,1824,0,63,-1030
465,5.236876,1024,736,1552,-2,64,-1033
466,5.248533,1024,448,1312,-5,64,-1033
467,5.260116,1,5,1611,-4,64,-1028
468,5.271657,-256,560,1776,0,64,-1032
469,5.283205,2,7,7,-1,66,-1035
470,5.294782,1024,1024,1504,0,61,-1032
471,5.306322,1024,864,1712,-4,66,-1033
472,5.317862,768,912,-1952,-3,65,-1028
473,5.329406,1024,736,1344,-5,64,-1034
474,5.340965,256,1168,1360,-3,64,-1036
475,5.352623,1024,928,1920,-1,64,-1031
476,5.364327,256,928,1312,-4,64,-1034
477,5.376016,256,512,1792,-2,62,-1032
478,5.387689,1024,1040,1728,0,66,-1031
479,5.399348,-256,368,1536,-2,69,-1035
480,5.410999,1024,752,-1696,-1,63,-1033
481,5.422656,256,720,1600,-3,64,-1032
482,5.434321,-256,496,1600,0,63,-1033
483,5.445985,768,768,1712,-2,63,-1029
484,5.457623,1024,592,1040,0,67,-1028
485,5.469191,768,1056,-2000,-4,65,-1038
486,5.480758,1024,656,1424,1,65,-1031
487,5.492313,-1024,752,1392,0,61,-1035
488,5.503885,1024,1056,1856,-3,64,-1038
489,5.51541,1024,432,1440,2,64,-1030
490,5.526965,1536,896,1504,-1,66,-1032
491,5.53854,256,576,2032,-5,67,-1030
492,5.550112,0,416,1792,-1,67,-1029
493,5.561774,256,720,1616,-4,67,-1033
494,5.573431,2,6,10,0,61,-1026
495,5.585112,256,576,1760,-1,66,-1031
496,5.596776,256,1120,1392,-2,65,-1030
497,5.608445,768,768,-1920,-3,61,-1028
498,5.620109,256,864,1952,-1,65,-1033
499,5.6318,1536,816,1952,-2,67,-1031
500,5.643491,1792,480,-1568,-6,67,-1029
501,5.65515,1024,272,1280,-4,68,-1034
502,5.666817,1,7,9,-3,63,-1035
503,5.678426,256,816,1712,-4,66,-1035
504,5.689976,1024,816,1824,2,67,-1033
505,5.701542,768,576,1936,-2,67,-1025
506,5.713082,0,464,1424,2,66,-1037
507,5.724616,256,1136,1584,0,63,-1029
508,5.736136,-256,784,1648,0,64,-1032
509,5.74765,1024,256,1984,0,60,-1033
510,5.759206,3,7,9,1,60,-1034
511,5.770857,256,1216,1296,0,62,-1025
512,5.782509,1536,992,-1984,-1,64,-1031
513,5.79418,256,528,1744,-1,67,-1027
514,5.805842,1024,848,1264,0,65,-1033
515,5.81752,0,880,-1824,0,64,-1034
516,5.829206,1536,736,1552,-2,69,-1032
517,5.84086,256,800,1728,4,66,-1025
518,5.852522,-256,512,2000,-1,69,-1035
519,5.864241,0,1136,1696,-2,62,-1029
520,5.875902,768,768,1632,1,64,-1033
521,5.887477,1792,496,1856,1,66,-1028
522,5.89903,0,1008,1200,2,64,-1027
523,5.910568,768,960,1552,0,60,-1028
524,5.922143,1792,240,1536,0,66,-1033
525,5.933693,-256,496,1632,-1,62,-1034
526,5.945238,0,6,11,0,64,-1032
527,5.956787,-256,592,-1984,-3,65,-1030
528,5.968374,1536,272,1824,-2,62,-1028
529,5.980008,1024,784,1952,-1,65,-1033
530,5.991712,-2048,864,1392,-1,63,-1030
531,6.003356,256,0,1568,0,65,-1032
532,6.015005,1536,496,1040,0,66,-1030
533,6.026672,1024,624,1488,0,68,-1035
534,6.038344,1,6,8,-2,66,-1035
535,6.049992,256,528,1600,0,63,-1032
536,6.061646,256,560,1856,0,63,-1032
537,6.073326,-256,688,1856,-2,60,-1026
538,6.084976,256,928,1648,0,66,-1032
539,6.096546,1024,128,1536,0,70,-1029
540,6.108137,256,400,1744,1,65,-1038
541,6.1197,256,480,1552,0,65,-1032
542,6.131276,256,1088,1472,1,63,-1038
543,6.142817,1024,800,1408,-2,62,-1047
544,6.154359,0,864,1648,-2,60,-1030
545,6.16594,0,816,1264,0,65,-1033
546,6.177512,3,7,9,-3,64,-1032
547,6.189129,0,576,1536,-2,70,-1039
548,6.200797,1024,1088,1792,-1,65,-1030
549,6.212461,0,288,1776,0,65,-1038
550,6.224125,256,928,1056,0,65,-1028
551,6.235828,1024,768,1632,3,64,-1036
552,6.247496,1536,560,-1616,-1,65,-1028
553,6.259152,1536,880,1920,-1,65,-1035
554,6.270821,768,416,1824,0,68,-1035
555,6.282489,0,1376,1504,0,63,-1038
556,6.294148,768,560,1520,-1,62,-1036
557,6.305706,0,736,2016,-4,65,-1029
558,6.317354,1536,384,1568,1,68,-1029
559,6.328905,1536,896,-2000,0,69,-1037
560,6.340456,1536,896,1584,-5,62,-1030
561,6.352031,0,496,1552,0,68,-1026
562,6.363582,768,512,1472,2,64,-1036
563,6.375127,1024,992,1280,-2,70,-1030
564,6.386684,4,6,9,1,65,-1034
565,6.398335,768,352,1456,0,66,-1030
566,6.409983,1536,896,1664,-2,64,-1028
567,6.421633,1024,512,2016,-2,60,-1032
568,6.433278,-256,784,1680,-2,67,-1032
569,6.444965,-1536,672,1280,2,66,-1029
570,6.45662,256,992,1344,0,63,-1038
571,6.468315,0,1088,1888,-5,66,-1041
572,6.479978,1792,592,1552,-2,65,-1032
573,6.491666,0,640,1568,2,62,-1036
574,6.50335,1024,816,1264,-2,63,-1028
575,6.51493,1024,560,1872,1,65,-1034
576,6.526511,256,912,-1808,-3,65,-1034
577,6.538067,1024,560,1440,-1,66,-1033
578,6.54969,-256,992,1744,-3,63,-1032
579,6.561272,1024,576,-1984,-2,63,-1033
580,6.572851,1024,736,1264,0,68,-1034
581,6.584393,1024,464,-2032,-1,64,-1037
582,6.595957,256,784,976,0,69,-1029
583,6.60759,0,768,1424,1,62,-1037
584,6.619233,768,672,1536,-7,65,-1038
585,6.63088,0,944,1696,4,65,-1039
586,6.642544,1536,752,1552,-2,63,-1030
587,6.654209,256,544,544,-1,63,-1041
588,6.665864,256,624,1536,-3,65,-1032
589,6.67751,0,1360,-1680,4,65,-1031
590,6.689156,1536,512,1728,4,64,-1035
591,6.700854,1024,624,1744,-2,68,-1034
592,6.712506,256,784,-1808,-2,64,-1031
593,6.724187,1536,1216,1872,0,61,-1037
594,6.735909,-768,848,1648,-4,66,-1035
595,6.747567,768,1344,2000,0,60,-1024
596,6.759217,1024,480,1616,0,62,-1034
597,6.77087,0,752,1680,-4,66,-1036
598,6.782509,256,736,1600,-3,61,-1031
599,6.794153,1536,448,1904,-2,63,-1025
600,6.805853,1,6,8,-4,66,-1038
601,6.817495,-256,400,1520,-3,67,-1035
602,6.829145,256,832,-1936,-1,66,-1036
603,6.840843,256,400,1552,0,66,-1036
604,6.852511,1024,464,1760,0,67,-1031
605,6.864199,768,1264,1616,4,68,-1041
606,6.875861,256,736,1584,1,66,-1036
607,6.887544,0,752,1632,-1,63,-1038
608,6.899204,1536,960,1632,0,61,-1032
609,6.910927,0,512,1696,-2,67,-1026
610,6.92262,256,768,1872,-3,65,-1029
611,6.934179,2,6,10,-3,67,-1035
612,6.945744,0,768,1520,0,66,-1027
613,6.957305,256,640,1712,-1,63,-1031
614,6.968861,1024,592,-2000,1,59,-1034
615,6.980398,1024,1232,1024,-1,67,-1036
616,6.99195,768,1008,1536,0,63,-1036
617,7.00349,1024,400,-1824,-3,64,-1033
618,7.015068,0,720,1600,-4,61,-1036
619,7.026683,256,912,1856,-2,65,-1029
620,7.038341,1536,720,1760,-4,66,-1032
621,7.049984,768,560,1584,0,64,-1028
622,7.061633,-768,560,1920,-4,64,-1037
623,7.073272,768,832,1488,-1,65,-1031
624,7.084953,256,5,11,-2,63,-1031
625,7.096611,1536,752,1664,0,65,-1031
626,7.108261,768,704,1408,-2,64,-1036
627,7.119939,256,608,1744,1,65,-1034
628,7.131601,256,976,1472,1,67,-1031
629,7.14317,-1536,1040,1712,1,61,-1034
630,7.154716,1024,1040,1664,0,68,-1030
631,7.166271,3,5,8,0,64,-1028
632,7.177819,768,1328,1872,0,65,-1037
633,7.189371,1536,512,1840,-5,64,-1034
634,7.200922,1024,432,1936,0,71,-1031
635,7.212497,256,640,1648,0,62,-1032
636,7.224066,256,816,1568,-5,64,-1034
637,7.235686,768,592,-1952,-3,67,-1035
638,7.247339,768,896,1936,-1,60,-1032
639,7.25899,2,6,1232,-3,65,-1032
640,7.270641,1024,832,1840,0,63,-1037
641,7.282288,0,960,1632,-1,64,-1033
642,7.293981,1024,864,-1856,-4,66,-1034
643,7.305632,1536,192,1392,-1,67,-1026
644,7.317273,1536,752,1696,-1,68,-1026
645,7.329035,1024,336,1296,0,61,-1030
646,7.340736,1792,1552,-1920,1,66,-1031
647,7.35231,1024,720,1920,1,65,-1036
648,7.363927,1536,304,1840,3,66,-1036
649,7.375484,256,976,1408,-1,64,-1033
650,7.387039,768,720,1600,4,63,-1030
651,7.398575,1024,656,2000,-2,64,-1032
652,7.410112,2,5,7,0,61,-1036
653,7.421663,1536,752,-1760,-1,63,-1036
654,7.433264,256,1152,1696,-2,62,-1033
655,7.444951,1024,528,1360,-2,63,-1039
656,7.456608,256,576,1600,2,69,-1030
657,7.468265,1536,768,-2000,-1,66,-1029
658,7.479964,-2048,768,1536,0,69,-1036
659,7.491608,256,864,1744,0,66,-1033
660,7.503253,5,7,10,0,63,-1042
661,7.514914,768,896,1088,0,63,-1027
662,7.526583,1536,864,1280,0,63,-1037
663,7.53841,256,912,1728,-2,65,-1030
664,7.550093,1536,1312,1824,-3,65,-1039
665,7.561691,768,1040,1440,2,64,-1033
666,7.573244,768,672,1616,-1,65,-1034
667,7.584799,768,752,1808,-3,65,-1026
668,7.596422,1024,880,1248,-3,65,-1038
669,7.607979,1024,816,1904,-4,64,-1028
670,7.61954,1024,1040,1488,0,66,-1030
671,7.631084,256,752,1536,-4,66,-1024
672,7.642642,1024,1216,1504,0,65,-1034
673,7.654334,256,752,1440,-3,60,-1030
674,7.666015,1024,928,1824,-4,62,-1028
675,7.677675,256,848,1808,-2,64,-1030
676,7.689343,768,240,-1888,-3,65,-1033
677,7.70099,-256,880,1552,-2,65,-1031
678,7.712643,1536,784,1536,-2,62,-1034
679,7.724327,0,688,1696,0,66,-1036
680,7.735979,-2048,1280,-1872,0,65,-1033
681,7.747693,256,592,1568,-3,65,-1031
682,7.759364,1792,592,-1744,-3,64,-1033
683,7.770929,0,432,1824,0,63,-1022
684,7.782514,-256,704,1680,0,63,-1042
685,7.794063,0,6,9,0,64,-1034
686,7.805626,0,416,1488,-4,64,-1030
687,7.817169,1536,688,1440,2,64,-1039
688,7.828767,1024,640,1936,-4,66,-1027
689,7.840343,256,1328,1616,0,68,-1036
690,7.851914,-256,176,1248,-2,67,-1033
691,7.863607,1024,624,-1904,-3,66,-1036
692,7.875265,256,1040,1232,-6,65,-1035
693,7.886909,2,9,10,-2,64,-1034
694,7.898587,1792,672,1856,0,66,-1024
695,7.910244,256,944,1440,-4,64,-1040
696,7.921887,256,528,1600,0,63,-1030
697,7.933555,256,480,-2048,0,67,-1037
698,7.945225,1536,1264,1872,2,66,-1032
699,7.95689,1024,656,1648,-1,65,-1036
700,7.968581,0,656,1968,-3,62,-1037
701,7.980153,1024,976,1424,1,64,-1035
702,7.991699,256,1088,1840,2,64,-1032
703,8.00324,768,656,1504,-2,64,-1031
704,8.014789,1024,928,1712,1,68,-1033
705,8.026332,256,544,1888,1,65,-1038
706,8.037908,768,592,1280,0,65,-1033
707,8.049456,1024,944,1696,-4,62,-1029
708,8.061039,1024,672,1456,-2,69,-1035
709,8.072714,1024,800,1680,-1,63,-1035
710,8.084379,768,544,1696,-4,65,-1032
711,8.09608,256,656,1760,-1,63,-1034
712,8.107733,0,432,1184,-1,65,-1033
713,8.119411,768,976,1936,-3,70,-1035
714,8.131051,1792,528,1472,0,63,-1029
715,8.142701,256,1440,1728,-2,66,-1033
716,8.154348,256,880,1440,2,62,-1027
717,8.165979,256,704,1408,-4,63,-1027
718,8.177538,4,8,8,0,67,-1029
719,8.189083,256,992,1792,-6,62,-1031
720,8.20064,1024,832,-2048,0,66,-1031
721,8.212186,-2048,1200,1664,-1,66,-1035
722,8.223785,-256,784,1584,-4,60,-1032
723,8.235336,768,608,-1952,0,66,-1032
724,8.246903,256,736,1520,-1,64,-1030
725,8.258441,0,624,1728,-3,64,-1031
726,8.269983,768,928,1440,0,65,-1027
727,8.281634,256,640,1632,-1,62,-1034
728,8.293274,256,560,1856,1,68,-1033
729,8.304961,768,848,1264,-2,60,-1038
730,8.31661,1024,848,1488,-1,64,-1036
731,8.328266,1024,912,1744,-1,65,-1031
732,8.339955,2,5,9,-2,64,-1035
733,8.351631,0,624,-1824,0,68,-1029
734,8.363329,1792,1040,1184,0,67,-1033
735,8.375009,0,752,-2048,0,64,-1026
736,8.386662,768,560,1424,0,62,-1029
737,8.398336,256,416,1584,-2,66,-1038
738,8.41,256,560,1840,-1,65,-1029
739,8.421653,768,816,1808,-2,66,-1032
740,8.433325,2,7,11,-2,60,-1031
741,8.444966,0,352,1968,-1,61,-1035
742,8.456625,768,896,1120,3,64,-1033
743,8.468383,1536,688,1504,-4,64,-1041
744,8.480069,256,944,1728,-4,64,-1028
745,8.491635,768,496,1328,0,66,-1040
746,8.50318,1536,544,1856,-2,66,-1032
747,8.514743,768,1104,1344,-2,67,-1025
748,8.526291,2,6,8,-1,64,-1030
749,8.537854,768,656,1680,0,63,-1033
750,8.549413,1024,928,1696,1,61,-1029
751,8.560961,1792,560,1664,0,64,-1030
752,8.572547,1792,768,1632,-3,60,-1031
753,8.584245,1536,656,1984,0,60,-1033
754,8.595929,1024,368,1776,-3,63,-1041
755,8.607601,0,912,1520,-3,64,-1028
756,8.619259,3,7,11,-2,67,-1039
757,8.630898,256,1104,1696,0,64,-1035
758,8.64258,1536,672,1632,-5,67,-1028
759,8.654259,-256,560,1408,2,68,-1037
760,8.665906,768,768,1824,-5,61,-1032
761,8.67774,1536,464,1600,-1,66,-1032
762,8.6894,1792,1264,2016,-2,62,-1033
763,8.700952,0,992,1616,-3,67,-1036
764,8.712516,768,1056,1728,-1,67,-1037
765,8.724071,256,496,1232,0,63,-1035
766,8.735663,256,464,1648,3,64,-1034
767,8.747198,0,816,-1696,-3,64,-1030
768,8.758752,-2048,640,1600,-1,66,-1027
769,8.7703,1792,896,-1936,0,64,-1032
770,8.781865,256,768,1888,-4,64,-1034
771,8.79352,1792,1008,1648,0,68,-1034
772,8.805169,1536,816,1680,0,63,-1030
773,8.816846,1024,1040,1392,0,66,-1035
774,8.828498,256,464,1776,0,68,-1033
775,8.840188,3,8,9,-4,66,-1033
776,8.851844,1024,592,1696,-4,64,-1036
777,8.86349,256,944,1328,-1,63,-1029
778,8.875137,256,560,1888,-3,63,-1037
779,8.886816,1536,368,1760,1,62,-1031
780,8.898395,1792,704,1392,0,66,-1032
781,8.909946,1024,608,1312,1,59,-1037
782,8.921533,1792,784,1376,1,63,-1036
783,8.933089,0,784,-1632,5,66,-1033
784,8.944662,1536,928,1536,0,63,-1033
785,8.956218,1024,768,1408,-5,64,-1027
786,8.967801,4,8,11,-3,61,-1034
787,8.97935,1024,48,1920,-1,65,-1035
788,8.990927,1024,960,1840,0,67,-1032
789,9.002582,1536,848,1584,0,65,-1029
790,9.014245,1024,304,1552,-2,64,-1036
791,9.025899,1024,1232,2016,2,64,-1030
792,9.037563,256,624,1424,-1,63,-1031
793,9.049232,1536,640,-1824,-1,67,-1033
794,9.060884,1024,816,1520,0,61,-1034
795,9.072594,1536,768,1888,-6,64,-1027
796,9.084266,1792,448,2016,0,60,-1035
797,9.09596,768,784,1888,-5,67,-1037
798,9.107626,256,528,1520,-2,63,-1029
799,9.119176,1792,944,1888,-4,67,-1040
800,9.130732,0,560,1392,-3,63,-1035
801,9.14231,1024,1040,1472,-1,64,-1029
802,9.153855,2,6,9,2,64,-1027
803,9.165401,1536,1136,1696,3,64,-1033
804,9.176951,1536,1152,1344,0,64,-1030
805,9.188537,1024,576,-1968,0,67,-1032
806,9.200127,256,800,1808,-3,63,-1033
807,9.211748,256,880,1152,0,66,-1030
808,9.223421,768,800,-2016,-3,66,-1030
809,9.235084,1536,432,1840,0,62,-1034
810,9.246727,0,256,1536,-2,65,-1035
811,9.258369,4,6,11,0,63,-1030
812,9.270026,-256,1072,1584,2,65,-1035
813,9.281687,-256,608,-1936,0,66,-1025
814,9.293342,768,1040,1840,1,64,-1036
815,9.305003,1536,688,-2016,2,62,-1033
816,9.316696,256,464,-1792,-5,64,-1037
817,9.328355,1536,480,1280,1,66,-1030
818,9.340007,0,896,1520,-1,64,-1032
819,9.351681,1024,704,-2016,1,63,-1025
820,9.363327,256,864,1488,0,63,-1037
821,9.374974,256,544,-2000,-4,68,-1034
822,9.386637,256,480,1776,-1,64,-1037
823,9.398291,768,336,1440,2,61,-1032
824,9.409964,256,816,1568,0,64,-1035
825,9.421623,1024,912,1584,-4,64,-1033
826,9.433264,256,592,1712,-2,65,-1034
827,9.444947,3,8,9,0,61,-1026
828,9.456607,768,896,1648,1,64,-1031
829,9.468279,1024,752,1424,1,63,-1036
830,9.479949,1024,304,1936,-1,63,-1035
831,9.491608,1024,656,1920,1,62,-1039
832,9.503273,0,1104,1296,-4,64,-1032
833,9.514957,256,656,1424,0,64,-1035
834,9.526608,768,1040,1888,0,63,-1032
835,9.538304,2,8,8,-1,67,-1032
836,9.549957,1536,416,1824,-3,68,-1039
837,9.561605,256,480,1680,-1,70,-1031
838,9.573258,2,4,7,-1,63,-1031
839,9.584946,-256,688,1728,0,66,-1036
840,9.596604,256,400,1568,0,66,-1035
841,9.608272,1536,832,1600,0,63,-1036
842,9.620022,-256,928,-1744,0,65,-1030
843,9.631704,1024,496,1968,0,61,-1031
844,9.643285,1536,576,1328,2,66,-1037
845,9.654836,1024,768,1920,2,66,-1033
846,9.666402,0,7,9,-1,67,-1032
847,9.677943,1536,832,1584,1,66,-1034
848,9.68948,1536,480,1168,-3,66,-1034
849,9.701029,0,928,1216,-2,65,-1039
850,9.712602,-256,1152,1472,2,64,-1041
851,9.724147,-2048,512,1264,-5,61,-1022
852,9.7358,-1024,1312,-1568,1,66,-1030
853,9.74749,0,688,-1984,-4,62,-1033
854,9.759139,1024,848,448,-2,62,-1037
855,9.770812,1024,912,1440,0,64,-1027
856,9.782461,1024,768,1552,-1,60,-1031
857,9.794107,1024,720,1504,0,64,-1036
858,9.805755,1024,704,1824,-3,65,-1040
859,9.817419,256,1008,1056,0,63,-1028
860,9.829096,-256,1024,1808,0,65,-1036
861,9.840767,0,896,-1952,0,65,-1033
862,9.852445,1792,1104,1664,-2,62,-1035
863,9.864108,256,512,1712,-4,67,-1035
864,9.875755,1536,512,1776,-2,64,-1027
865,9.887453,1024,608,1792,0,67,-1034
866,9.899106,1024,16,1872,-4,60,-1027
867,9.910772,0,432,1728,-2,62,-1032
868,9.922466,1024,848,-2016,-2,67,-1025
869,9.934174,1792,576,1472,-1,65,-1031
870,9.945849,256,688,1312,0,63,-1033
871,9.957408,-256,848,-1792,-4,63,-1032
872,9.968971,0,192,1728,-1,61,-1027
873,9.980523,-256,448,1824,0,68,-1040
874,9.992083,768,752,-1984,-3,63,-1042
875,10.003694,1024,736,1616,-5,64,-1030
876,10.015239,256,768,1536,3,64,-1034
877,10.026787,1536,528,1856,0,70,-1034
878,10.038364,256,640,1728,-1,65,-1030
879,10.049992,2,6,8,-1,68,-1034
880,10.061687,256,992,1696,-3,64,-1037
881,10.073334,1024,976,2016,0,61,-1039
882,10.08499,-2048,1216,-1968,-2,64,-1029
883,10.096663,256,704,1648,-5,64,-1028
884,10.108331,256,448,2032,-1,66,-1032
885,10.119998,1024,992,1728,-3,64,-1032
886,10.131687,1536,1056,1168,-1,63,-1029
887,10.143359,256,432,1520,-3,66,-1033
888,10.155039,256,1056,1984,-2,69,-1028
889,10.166652,-256,656,-1680,-2,64,-1039
890,10.178204,1536,400,1984,-2,65,-1040
891,10.189777,1536,688,1792,-2,64,-1028
892,10.201327,1024,592,1904,0,65,-1033
893,10.212876,1024,832,1600,0,67,-1033
894,10.224436,768,256,1904,-2,65,-1029
895,10.23604,4,6,10,-2,63,-1037
896,10.247672,1024,752,-1744,0,65,-1035
897,10.259297,0,368,-1920,-2,69,-1034
898,10.270898,0,1232,1920,-5,66,-1029
899,10.282466,768,880,1840,0,69,-1025
900,10.29403,1,768,1488,-1,63,-1041
901,10.305571,256,1248,1264,-4,67,-1027
902,10.317113,1024,1088,-2032,0,66,-1034
903,10.328663,256,528,1488,3,62,-1036
904,10.340266,768,208,1680,-2,61,-1035
905,10.351881,256,704,944,-3,63,-1034
906,10.363569,1024,480,1744,-3,66,-1030
907,10.375222,3,7,10,-1,64,-1027
908,10.386879,256,592,1808,-1,67,-1027
909,10.398545,256,496,1760,1,63,-1032
910,10.410199,1024,992,1696,-1,67,-1032
911,10.421851,1536,512,1856,-2,59,-1035
912,10.433502,4,6,10,2,68,-1032
913,10.445155,768,1008,1856,-2,63,-1035
914,10.456843,1024,400,1840,0,70,-1030
915,10.468503,0,816,1728,-3,66,-1033
916,10.480185,768,448,1840,1,65,-1039
917,10.491838,3,5,9,2,66,-1033
918,10.503492,256,976,-1856,-6,64,-1035
919,10.515134,1536,416,1328,-3,60,-1037
920,10.526797,1024,688,-2000,-6,64,-1033
921,10.538449,256,848,-1952,0,65,-1034
922,10.550159,1024,992,1488,-1,60,-1035
923,10.56184,768,624,1504,0,61,-1028
924,10.573446,256,720,1904,0,63,-1033
925,10.585003,1536,640,1856,0,63,-1027
926,10.596565,256,672,1632,-4,65,-1031
927,10.60816,1024,880,1792,-3,66,-1042
928,10.619729,1024,800,1920,-1,65,-1030
929,10.631294,0,1072,1808,-3,65,-1032
930,10.642844,0,768,1888,-1,66,-1031
931,10.654413,1024,816,1520,-5,63,-1038
932,10.666071,256,720,1776,0,65,-1032
933,10.677719,256,976,1504,-2,65,-1038
934,10.689368,0,896,1328,-4,61,-1041
935,10.701033,768,512,-1680,0,64,-1031
936,10.712705,1536,896,1728,-2,68,-1038
937,10.724363,0,1008,1728,0,62,-1039
938,10.736032,0,848,992,-1,65,-1035
939,10.747681,256,704,1568,-1,64,-1035
940,10.759348,256,1056,1376,-7,61,-1030
941,10.771001,256,720,-1760,0,63,-1035
942,10.782649,1024,1536,1488,0,66,-1032
943,10.794319,1024,672,1584,-1,67,-1031
944,10.805961,1024,912,1856,0,64,-1028
945,10.817603,1024,512,1536,-2,64,-1032
946,10.829273,768,944,1680,-1,65,-1040
947,10.84095,1536,576,1648,0,68,-1030
948,10.852611,1024,1104,1504,1,65,-1036
949,10.864308,1536,1040,1472,-3,67,-1033
950,10.87594,2,8,8,-4,65,-1029
951,10.887597,768,1056,1024,-3,64,-1035
952,10.899246,1024,608,1792,0,66,-1031
953,10.910912,1024,912,1488,-3,64,-1029
954,10.922566,-256,800,-1904,-1,66,-1031
955,10.93421,1536,544,1664,0,64,-1033
956,10.945996,1536,1056,1808,0,65,-1035
957,10.957682,768,1024,-1728,-2,68,-1030
958,10.969341,768,480,-1840,0,68,-1035
959,10.980993,0,656,1504,1,64,-1030
960,10.99267,1024,464,752,0,67,-1032
961,11.004351,1024,816,1600,-5,65,-1033
962,11.016012,1536,992,1584,-1,64,-1038
963,11.027691,1024,416,1600,-1,64,-1032
964,11.039339,1536,816,2016,-1,60,-1035
965,11.050991,4,5,9,-2,62,-1032
966,11.062627,2,6,9,0,63,-1035
967,11.074369,0,976,1696,3,63,-1033
968,11.086041,-256,912,1504,-7,62,-1026
969,11.09764,1536,720,688,-4,63,-1033
970,11.109184,768,384,1472,-5,60,-1029
971,11.120746,768,864,1376,0,61,-1035
972,11.132299,0,736,928,1,65,-1038
973,11.143872,768,976,2016,0,68,-1033
974,11.155408,1024,544,1600,-1,65,-1026
975,11.166975,1536,656,1376,0,64,-1031
976,11.178537,768,1600,1888,-1,68,-1034
977,11.190227,-256,928,1888,-6,65,-1039
978,11.201894,768,864,1296,0,68,-1037
979,11.213549,256,768,1872,-4,61,-1030
980,11.225202,768,576,1376,-1,64,-1039
981,11.236857,768,528,1280,3,66,-1033
982,11.248508,768,496,1360,0,65,-1041
983,11.260192,256,1072,1104,-1,63,-1031
984,11.271848,1536,736,2000,2,64,-1035
985,11.283507,1024,944,1232,-1,65,-1034
986,11.295166,1024,320,1920,-2,68,-1030
987,11.30674,1024,896,1552,0,65,-1030
988,11.318285,256,720,-1824,1,66,-1037
989,11.329858,3,6,-1664,0,70,-1034
990,11.341403,256,1360,1840,1,66,-1027
991,11.352947,1024,832,1904,1,66,-1039
992,11.36452,256,864,1744,3,58,-1033
993,11.37607,256,432,1312,0,66,-1033
994,11.387654,1024,672,1552,-3,64,-1034
995,11.399268,1024,720,1920,-2,65,-1029
996,11.410927,1536,576,1136,-2,64,-1035
997,11.422578,1024,400,-2048,-3,66,-1028
998,11.434236,1024,688,1888,-2,65,-1043
999,11.445887,768,592,-1888,1,66,-1032
1000,11.457549,256,592,1664,-2,62,-1031
1001,11.469213,1024,272,-2048,3,64,-1032
1002,11.480859,2,6,10,0,62,-1026
1003,11.492526,256,784,1872,0,66,-1035
1004,11.504185,1536,640,1632,0,67,-1031
1005,11.515781,1024,496,1824,0,64,-1033
1006,11.527344,256,752,1568,-1,64,-1033
1007,11.538896,768,928,1360,0,64,-1033
1008,11.550458,1536,880,1952,0,66,-1023
1009,11.562018,768,720,1472,-2,64,-1034
1010,11.573565,256,800,1936,-2,64,-1029
1011,11.58513,1024,464,1920,1,65,-1031
1012,11.596688,256,624,1840,1,63,-1036
1013,11.608383,1024,720,1664,-1,62,-1031
1014,11.62006,1024,944,-1696,-1,69,-1028
1015,11.631745,0,1152,1328,-2,64,-1034
1016,11.643423,1536,736,1792,-1,66,-1031
1017,11.655082,256,464,1984,1,64,-1028
1018,11.666727,1024,304,-1568,-3,67,-1032
1019,11.678382,0,80,1792,-4,67,-1031
1020,11.690041,768,720,1712,-1,61,-1034
1021,11.701688,3,6,9,-4,65,-1030
1022,11.713339,768,592,1824,0,66,-1036
1023,11.724987,768,1088,-1808,-1,64,-1030
1024,11.736634,-2048,704,1504,0,64,-1034
1025,11.748339,256,400,1568,-1,64,-1036
1026,11.759993,1536,416,1248,0,67,-1031
1027,11.771678,768,896,2000,-2,64,-1028
1028,11.78333,768,336,1552,-4,67,-1031
1029,11.794975,1024,672,1840,-1,62,-1032
1030,11.806638,1024,640,896,0,65,-1031
1031,11.818298,1024,672,1616,2,64,-1034
1032,11.829902,256,976,1952,-1,67,-1031
1033,11.841466,1024,864,1584,-2,63,-1029
1034,11.853016,0,624,1824,1,62,-1034
1035,11.864556,768,704,1840,-1,63,-1036
1036,11.87612,1024,880,1280,0,65,-1040
1037,11.887668,1536,112,1552,-1,63,-1039
1038,11.89921,1792,640,1680,-2,65,-1033
1039,11.910765,1024,768,-1888,0,66,-1038
1040,11.922469,4,8,10,0,62,-1032
1041,11.934137,768,912,1696,2,65,-1035
1042,11.945798,1536,880,1904,2,68,-1033
1043,11.957472,1024,848,1280,5,62,-1036
1044,11.969325,256,992,1744,1,69,-1038
1045,11.980982,256,816,1216,-2,64,-1031
1046,11.992623,1792,1184,-1696,2,63,-1034
1047,12.004298,1024,576,1168,-2,65,-1030
1048,12.015956,1536,400,1776,3,61,-1038
1049,12.02762,1024,704,1984,0,62,-1033
1050,12.03917,-256,928,1840,-1,64,-1023
1051,12.050756,-2048,1072,1504,-1,67,-1027
1052,12.062309,1024,1120,1472,-1,65,-1029
1053,12.073896,768,848,-2000,-3,68,-1028
1054,12.085439,0,5,7,0,65,-1042
1055,12.097001,1024,1072,1712,-2,65,-1034
1056,12.108564,1024,720,1712,0,63,-1032
1057,12.120136,256,992,2016,-4,64,-1030
1058,12.13179,1536,704,1552,-4,63,-1027
1059,12.14341,1536,480,1696,-4,65,-1031
1060,12.155096,-2048,656,1632,0,63,-1026
1061,12.166749,1024,80,1856,1,63,-1034
1062,12.178392,3,4,11,3,67,-1040
1063,12.19006,-768,800,1536,0,66,-1035
1064,12.201711,1024,944,1648,1,68,-1031
1065,12.213351,-2048,848,1264,3,66,-1039
1066,12.225013,1024,1232,1888,-2,64,-1038
1067,12.2367,1024,240,1648,0,65,-1029
1068,12.248271,1024,544,-1952,-1,59,-1034
1069,12.259827,1024,256,1776,-1,61,-1031
1070,12.271401,1,7,10,-3,61,-1034
1071,12.282949,1024,336,1344,-2,60,-1034
1072,12.294494,1024,624,1456,0,63,-1033
1073,12.30604,256,976,1584,3,64,-1034
1074,12.317608,1024,624,1664,2,65,-1035
1075,12.329157,1024,272,1776,0,66,-1032
1076,12.34086,1536,864,1840,2,66,-1034
1077,12.352519,1024,640,1488,0,62,-1031
1078,12.364204,-256,560,1648,-2,63,-1036
1079,12.375856,1536,688,1792,0,64,-1028
1080,12.387556,768,672,1744,-1,64,-1032
1081,12.399216,1536,816,1600,-4,64,-1029
1082,12.410861,256,656,1728,-2,68,-1026
1083,12.422518,-256,800,1216,-3,67,-1034
1084,12.434245,768,672,1536,1,67,-1033
1085,12.445896,1024,736,1760,-1,65,-1030
1086,12.457481,4,5,9,0,61,-1031
1087,12.469031,1024,1120,1872,0,66,-1032
1088,12.480649,1536,736,-2000,0,66,-1031
1089,12.492197,256,768,1264,0,64,-1033
1090,12.503773,2,5,8,0,62,-1028
1091,12.515311,768,496,1520,-3,65,-1028
1092,12.526857,1024,432,1904,-2,60,-1035
1093,12.538408,1792,1328,1584,0,63,-1037
1094,12.550099,1792,384,1456,0,62,-1032
1095,12.561767,1536,560,1616,-1,66,-1032
1096,12.573424,256,608,-2016,2,63,-1031
1097,12.585078,1024,192,-1664,-3,65,-1035
1098,12.596702,3,5,12,-4,63,-1033
1099,12.608355,0,528,1200,0,68,-1031
1100,12.62002,1536,496,1488,-2,66,-1030
1101,12.631683,1536,672,1568,0,63,-1032
1102,12.643346,1024,560,1712,-1,64,-1033
1103,12.655019,768,912,1536,1,67,-1034
1104,12.66668,768,1008,1040,-4,63,-1035
1105,12.678329,-2048,1424,1520,1,66,-1033
1106,12.689974,768,896,1920,0,66,-1034
1107,12.701658,768,400,1792,4,66,-1033
1108,12.713308,1536,688,-1936,0,65,-1037
1109,12.724948,1536,240,1696,0,65,-1032
1110,12.736618,1536,688,1760,-3,63,-1037
1111,12.748331,1024,960,1584,-2,64,-1029
1112,12.760006,256,1184,1744,-5,65,-1037
1113,12.771676,1792,1104,1648,0,68,-1030
1114,12.783327,1024,384,-2000,-3,64,-1033
1115,12.794976,1536,832,1600,-1,65,-1032
1116,12.806608,1024,1296,1792,-1,65,-1038
1117,12.818257,3,6,10,-5,65,-1032
1118,12.829911,1024,816,1904,0,67,-1035
1119,12.841575,1536,1296,1744,1,65,-1030
1120,12.853379,256,432,1504,0,67,-1029
1121,12.865044,1536,496,1216,-2,67,-1030
1122,12.876638,768,992,1872,0,62,-1035
1123,12.888201,3,7,9,-3,63,-1037
1124,12.899779,1024,688,1856,0,65,-1031
1125,12.91132,768,736,1872,0,62,-1036
1126,12.922866,-1536,896,1728,-1,63,-1031
1127,12.934416,768,864,1792,-1,62,-1033
1128,12.945964,1024,784,1680,-1,69,-1033
1129,12.957527,1024,912,1872,0,65,-1039
1130,12.96921,1536,352,1264,0,63,-1041
1131,12.980893,0,608,1120,-3,64,-1027
1132,12.992692,1024,928,2000,0,62,-1033
1133,13.004356,256,704,1568,-3,61,-1032
1134,13.016054,1024,1088,1984,-1,63,-1032
1135,13.02768,1024,736,1296,-1,65,-1029
1136,13.039329,768,656,1376,3,61,-1031
1137,13.050977,1024,288,2032,-3,64,-1034
1138,13.062638,1536,880,2000,0,62,-1029
1139,13.074219,0,736,2032,0,65,-1032
1140,13.085771,1536,944,1808,-2,66,-1032
1141,13.097318,768,480,2032,-4,68,-1027
1142,13.108863,1536,512,1584,-3,61,-1034
1143,13.120415,1024,480,-1952,0,68,-1030
1144,13.132015,3,8,10,0,67,-1030
1145,13.143573,1024,1248,1984,-2,61,-1032
1146,13.155142,768,560,1824,0,67,-1038
1147,13.16676,1024,704,1984,0,62,-1031
1148,13.178421,768,864,1312,0,64,-1031
1149,13.190076,1536,752,-2048,-4,64,-1028
1150,13.201728,1536,384,1360,-2,66,-1037
1151,13.213394,-256,368,1760,1,68,-1034
1152,13.225094,0,1056,1648,-1,61,-1034
1153,13.236773,768,144,1568,1,65,-1030
1154,13.24845,768,352,1872,-1,63,-1029
1155,13.26012,2,6,10,0,64,-1028
1156,13.271789,1536,1072,1728,2,63,-1034
1157,13.2834,768,416,2000,-4,67,-1033
1158,13.294957,768,1008,1792,1,61,-1036
1159,13.30651,768,992,1584,0,66,-1026
1160,13.318052,0,1088,1552,-3,63,-1036
1161,13.329597,1024,448,1696,2,68,-1036
1162,13.341138,1024,768,1808,-3,64,-1033
1163,13.352682,3,6,9,0,61,-1036
1164,13.364261,768,592,1376,0,64,-1030
1165,13.375956,1024,976,1936,0,65,-1026
1166,13.387657,1024,544,-1920,-5,61,-1035
1167,13.399314,768,752,-1888,1,58,-1029
1168,13.410969,1024,640,1408,0,69,-1037
1169,13.422643,768,736,1440,2,67,-1028
1170,13.434306,-2048,912,1280,0,62,-1034
1171,13.445958,3,7,8,0,65,-1035
1172,13.457611,1024,496,1392,-4,63,-1037
1173,13.469265,1024,672,1984,-1,63,-1028
1174,13.480955,1792,272,1840,-4,66,-1037
1175,13.492648,256,272,1360,3,69,-1033
1176,13.504322,1536,784,1408,-3,63,-1027
1177,13.515982,1024,1120,1856,1,68,-1038
1178,13.52773,1536,1168,-1968,-1,65,-1031
1179,13.539709,1792,864,1360,-1,62,-1034
1180,13.55152,256,640,1920,0,64,-1032
1181,13.56319,256,784,1984,0,63,-1030
1182,13.574917,768,912,1520,0,65,-1033
1183,13.586575,1536,848,-1920,-1,65,-1031
1184,13.598273,1024,736,-1856,1,60,-1035
1185,13.609935,768,1088,1152,-5,67,-1034
1186,13.621587,-1536,736,1856,-4,66,-1036
1187,13.633256,1792,624,1824,2,67,-1031
1188,13.644925,1024,688,-1872,2,63,-1034
1189,13.656583,-768,688,1600,-4,67,-1032
1190,13.668252,1024,784,-2000,-1,65,-1024
1191,13.679956,2,4,11,-4,70,-1036
1192,13.691671,1024,896,1824,-1,61,-1038
1193,13.703251,0,1200,1520,-4,61,-1034
1194,13.714796,256,448,1776,-1,63,-1033
1195,13.726344,-2048,896,1312,-5,63,-1030
1196,13.737896,256,1280,1744,-2,64,-1041
1197,13.749443,768,608,1904,-2,64,-1032
1198,13.761018,768,576,1456,-1,67,-1028
1199,13.772631,1024,704,1616,0,69,-1037
1200,13.784209,1024,944,1664,-2,62,-1035
1201,13.795831,256,784,1520,1,64,-1035
1202,13.807499,256,576,1648,-2,62,-1026
1203,13.819154,1024,864,1184,0,62,-1032
1204,13.830822,1024,912,-2032,-1,63,-1036
1205,13.842477,-2048,496,1376,1,62,-1029
1206,13.854169,1536,720,1360,1,64,-1032
1207,13.865811,1536,912,1680,-2,67,-1033
1208,13.877463,1536,800,-2000,0,66,-1029
1209,13.889152,1024,1200,1568,-2,64,-1035
1210,13.900815,0,896,-1984,0,64,-1034
1211,13.912381,0,896,1552,1,66,-1028
1212,13.923964,1024,944,1680,-1,66,-1035
1213,13.935539,-2048,1152,1760,1,61,-1036
1214,13.947115,256,432,1472,-5,65,-1032
1215,13.958655,256,752,1840,-1,63,-1036
1216,13.97022,256,800,1744,-1,63,-1027
1217,13.981772,-256,480,-1808,-6,65,-1034
1218,13.993335,2,6,8,-1,61,-1034
1219,14.004954,1536,624,1664,-1,66,-1027
1220,14.016725,0,832,1344,-1,65,-1031
1221,14.028446,1024,1088,1296,0,62,-1030
1222,14.040102,1024,528,1424,0,64,-1030
1223,14.051798,1024,672,1232,-2,61,-1034
1224,14.063426,1792,448,1600,0,59,-1032
1225,14.075078,1024,832,1568,0,65,-1027
1226,14.086726,1024,544,-1728,-1,63,-1028
1227,14.098411,1536,544,1952,1,59,-1028
1228,14.110022,1024,864,2000,-3,68,-1035
1229,14.121604,256,1008,1760,-1,62,-1025
1230,14.133161,1536,768,1792,0,63,-1032
1231,14.144752,1024,784,1728,-3,70,-1027
1232,14.156362,1536,448,1776,-1,68,-1034
1233,14.167898,0,928,1568,2,65,-1033
1234,14.179468,3,6,8,2,64,-1029
1235,14.191018,1536,288,1808,-2,64,-1028
1236,14.202609,1024,880,1920,0,65,-1042
1237,14.214298,-2048,640,1776,-3,63,-1035
1238,14.225968,768,1072,1904,0,62,-1032
1239,14.237662,0,704,1280,0,67,-1029
1240,14.249312,256,1104,1984,0,67,-1030
1241,14.260966,768,928,1536,-2,66,-1036
1242,14.272652,1024,736,1904,2,64,-1031
1243,14.284377,768,320,-1664,-3,67,-1029
1244,14.296061,1024,528,1296,-3,68,-1037
1245,14.30775,768,1008,1600,-2,67,-1035
1246,14.319429,3,6,10,1,65,-1030
1247,14.331005,256,320,2032,-1,62,-1031
1248,14.342578,1536,912,1376,0,66,-1032
1249,14.354132,2,6,7,0,64,-1033
1250,14.365702,1024,752,1696,0,63,-1034
1251,14.377256,1536,576,1744,2,65,-1030
1252,14.388812,768,352,-1888,-4,67,-1036
1253,14.400377,1792,1264,1824,0,66,-1029
1254,14.411909,2,6,10,0,64,-1036
1255,14.423555,0,400,1440,-5,63,-1035
1256,14.435213,1024,768,-2000,-4,60,-1032
1257,14.446887,256,512,1184,-1,68,-1038
1258,14.458552,1024,624,-2000,0,63,-1033
1259,14.4702,256,816,-1872,-3,67,-1034
1260,14.481861,1024,784,1824,0,67,-1039
1261,14.493531,1024,608,1104,-4,58,-1033
1262,14.505192,1536,960,1968,1,65,-1036
1263,14.516883,1536,1424,1968,-2,64,-1033
1264,14.528557,1024,528,1520,0,65,-1034
1265,14.540133,2,6,10,-3,66,-1037
1266,14.551653,1536,544,1552,1,64,-1030
1267,14.563218,-2048,768,2000,-4,65,-1032
1268,14.574765,256,656,1808,-2,63,-1034
1269,14.586306,1536,736,1440,-1,65,-1032
1270,14.597859,768,432,1488,-1,64,-1039
1271,14.609404,1024,1184,1792,-3,62,-1032
1272,14.620968,1024,400,1168,2,65,-1029
1273,14.632601,4,6,10,-1,67,-1029
1274,14.644278,768,880,-1968,-2,63,-1032
1275,14.655934,1536,688,1712,0,64,-1035
1276,14.667598,768,496,-1712,-4,68,-1036
1277,14.679239,256,720,1360,-3,61,-1030
1278,14.690885,1792,1120,1232,-1,64,-1035
1279,14.702555,-256,640,-1776,-2,62,-1031
1280,14.71422,-256,704,1728,-3,70,-1029
1281,14.725881,768,704,-2016,0,64,-1033
1282,14.73756,-2048,656,1760,-3,63,-1034
1283,14.749115,1792,1136,912,-2,66,-1028
1284,14.760671,0,416,-2048,1,65,-1041
1285,14.772252,1536,800,1584,-1,63,-1025
1286,14.783828,-1536,480,1728,-2,66,-1026
1287,14.795401,0,816,960,-1,64,-1028
1288,14.806984,1792,528,1408,0,64,-1032
1289,14.818523,1024,864,976,-1,65,-1032
1290,14.830096,0,912,1872,-3,60,-1035
1291,14.841715,1536,736,1712,-1,60,-1034
1292,14.853366,1536,960,1808,0,63,-1039
1293,14.865022,768,176,2016,-2,64,-1036
1294,14.876701,3,6,8,-3,67,-1036
1295,14.888383,1024,688,1344,-4,60,-1026
1296,14.900054,1024,944,1760,-3,64,-1028
1297,14.911685,-256,784,1744,-4,66,-1036
1298,14.923338,768,640,1760,-4,66,-1033
1299,14.935015,1536,976,1808,-3,64,-1036
1300,14.946694,1536,672,1648,4,65,-1034
1301,14.958257,1536,1024,1376,-2,67,-1035
1302,14.969839,2,7,-1936,-2,66,-1034
1303,14.981395,1024,848,1520,-1,62,-1033
1304,14.992977,1536,416,1840,-1,63,-1027
1305,15.004522,256,720,1552,-1,68,-1038
1306,15.016066,1536,512,-2048,-6,64,-1030
1307,15.027642,1024,928,1648,-1,65,-1031
1308,15.039202,1792,672,1712,-2,63,-1041
1309,15.050818,1024,320,1616,-2,60,-1033
1310,15.062478,1024,1152,1904,-2,61,-1038
1311,15.074159,3,7,9,0,64,-1034
1312,15.08583,768,816,1984,-1,62,-1033
1313,15.097501,1536,736,1840,0,63,-1032
1314,15.109154,1536,704,1392,-3,65,-1026
1315,15.120836,1024,1024,-1920,1,66,-1033
1316,15.132497,256,896,1424,1,69,-1031
1317,15.144207,3,864,1648,-1,64,-1033
1318,15.15587,1536,1040,1696,0,64,-1027
1319,15.167461,1024,848,1792,0,64,-1036
1320,15.179015,1536,544,1808,1,66,-1030
1321,15.190597,1024,704,1696,3,67,-1028
1322,15.202143,-2048,592,1584,1,63,-1042
1323,15.213686,768,864,1728,-2,67,-1030
1324,15.225234,1792,992,-2016,-2,66,-1028
1325,15.236783,768,752,1680,-4,66,-1043
1326,15.248375,0,704,1936,-4,65,-1035
1327,15.260072,3,8,9,-2,61,-1030
1328,15.271757,1024,688,1888,-4,66,-1034
1329,15.283436,768,448,1936,3,63,-1036
1330,15.295098,1024,1040,1888,-2,63,-1035
1331,15.306768,256,976,-1904,3,65,-1029
1332,15.318429,4,384,-1904,-1,66,-1032
1333,15.330087,256,752,1936,-3,68,-1023
1334,15.341763,0,736,-1616,-1,65,-1036
1335,15.353445,1792,704,-2016,-1,64,-1037
1336,15.365113,-1536,832,1472,0,65,-1032
1337,15.376789,1792,784,1728,-3,67,-1031
1338,15.388456,768,1024,1984,1,63,-1036
1339,15.400118,1536,1088,1200,13,65,-1024
1340,15.411802,1024,768,1552,-2,63,-1037
1341,15.423464,-2048,560,-1904,-3,63,-1032
1342,15.435109,-2048,256,1280,-1,64,-1031
1343,15.446802,1536,1344,2016,-1,64,-1032
1344,15.458471,768,704,1424,0,65,-1032
1345,15.470131,1536,784,1440,0,63,-1035
1346,15.481717,2,7,9,0,66,-1033
1347,15.493269,1792,992,1520,-2,69,-1030
1348,15.504864,1536,544,-1936,0,64,-1025
1349,15.51641,1792,1008,1776,0,64,-1036
1350,15.527956,768,512,1536,1,65,-1036
1351,15.539529,1024,784,1568,5,64,-1036
1352,15.551073,1024,848,1424,-4,66,-1031
1353,15.562627,1792,736,1488,-4,64,-1032
1354,15.574324,256,384,1552,0,65,-1028
1355,15.585988,768,448,1728,1,62,-1030
1356,15.597656,768,1120,1520,0,60,-1034
1357,15.609321,1536,576,1792,2,65,-1025
1358,15.621021,1536,224,1392,1,63,-1032
1359,15.632691,1536,352,1472,-1,64,-1032
1360,15.644352,768,752,-1600,0,66,-1031
1361,15.656017,1536,928,784,0,64,-1031
1362,15.66769,1536,848,1584,-3,63,-1028
1363,15.679351,1024,1008,1280,-2,66,-1030
1364,15.690911,1,5,8,-2,63,-1038
1365,15.702491,1024,1312,1360,2,67,-1036
1366,15.714031,768,576,1520,-1,64,-1036
1367,15.725572,1024,768,1552,-3,65,-1037
1368,15.73712,1536,336,1392,1,63,-1034
1369,15.748688,1536,864,1408,-4,65,-1031
1370,15.760254,1792,464,1376,-2,63,-1032
1371,15.771845,256,736,-2048,-5,64,-1032
1372,15.783475,256,1072,1584,1,70,-1034
1373,15.795155,1024,784,1904,3,64,-1036
1374,15.806799,1536,928,1440,-2,65,-1031
1375,15.818478,1024,752,1808,-2,63,-1029
1376,15.830169,1792,544,-1728,0,64,-1033
1377,15.841815,1024,1136,1520,-1,67,-1030
1378,15.853465,1792,768,1792,-2,63,-1034
1379,15.865141,1024,176,1520,-3,65,-1037
1380,15.876854,1,7,11,-2,63,-1041
1381,15.888527,1536,624,1456,-1,68,-1023
1382,15.900077,1024,640,1344,0,59,-1033
1383,15.911643,1536,992,1152,-2,61,-1035
1384,15.923225,1024,1008,1424,0,65,-1034
1385,15.934774,1024,864,1888,-2,63,-1035
1386,15.946356,1024,848,1968,-4,67,-1036
1387,15.957898,768,736,1968,0,62,-1037
1388,15.969437,1536,464,-1984,-1,62,-1037
1389,15.980993,1792,464,1856,-2,64,-1028
1390,15.992621,1024,880,1536,-2,65,-1033
1391,16.004281,-2048,576,1728,1,65,-1030
1392,16.015935,1024,1008,1440,1,61,-1026
1393,16.027596,5,2,8,-6,64,-1031
1394,16.039239,768,624,1792,-2,67,-1031
1395,16.050895,1536,1056,1456,-2,48,-1034
1396,16.062553,256,448,1920,1,66,-1036
1397,16.074209,-2048,240,1920,-2,69,-1034
1398,16.085911,1536,880,1616,-3,65,-1032
1399,16.097593,1792,832,2000,-4,63,-1032
1400,16.109165,1024,608,2000,-1,65,-1036
1401,16.120745,1024,336,1792,0,65,-1037
1402,16.132355,-2048,1248,1616,-4,65,-1032
1403,16.143901,1792,448,1344,0,64,-1028
1404,16.155479,768,848,1520,1,66,-1030
1405,16.167031,256,1040,1888,-6,66,-1032
1406,16.178606,-256,736,1680,0,61,-1030
1407,16.190173,1024,944,-1856,-3,63,-1040
1408,16.201796,768,576,1072,1,63,-1034
1409,16.213438,1792,672,1312,4,64,-1034
1410,16.225079,256,624,-1904,0,66,-1028
1411,16.236708,1024,1136,1216,-2,62,-1037
1412,16.248381,2,7,9,3,63,-1030
1413,16.260057,1024,1024,1456,1,67,-1031
1414,16.271678,1536,768,1840,-1,65,-1033
1415,16.283331,768,848,1840,-3,63,-1031
1416,16.294987,1536,464,1760,-5,65,-1034
1417,16.306644,256,512,1568,0,69,-1033
1418,16.318295,1536,592,1296,3,61,-1033
1419,16.329934,1536,544,1888,-3,67,-1033
1420,16.341578,1,7,9,-4,62,-1039
1421,16.353244,1536,832,1984,-3,61,-1025
1422,16.364911,1536,384,1888,0,67,-1042
1423,16.376581,1792,416,1904,1,66,-1031
1424,16.388256,-2048,1008,1568,-2,68,-1024
1425,16.399951,1024,848,-1872,-4,66,-1034
1426,16.41161,1536,432,-2048,-1,67,-1031
1427,16.423166,1536,928,1664,0,63,-1032
1428,16.434721,1536,752,1888,-3,64,-1037
1429,16.446271,-1280,1232,1440,2,69,-1041
1430,16.457819,768,592,2016,2,62,-1035
1431,16.469365,768,448,1568,0,67,-1030
1432,16.480922,256,736,1744,-5,66,-1032
1433,16.492494,1536,384,1872,-1,67,-1034
1434,16.504058,1024,416,-2032,0,63,-1040
1435,16.515681,1024,624,1904,0,69,-1032
1436,16.527336,1792,304,1808,0,64,-1032
1437,16.538977,1536,944,1520,3,62,-1027
1438,16.550627,1792,736,1104,0,60,-1031
1439,16.562311,1024,432,-2032,-1,66,-1025
1440,16.573951,1024,800,1056,0,59,-1032
1441,16.585601,768,448,1616,2,64,-1031
1442,16.597274,0,512,-1936,-1,64,-1035
1443,16.608965,768,464,-1952,0,64,-1035
1444,16.620633,1536,1072,1600,1,65,-1034
1445,16.632237,-2048,1088,1232,-1,65,-1031
1446,16.643789,768,496,1632,-2,65,-1029
1447,16.655405,1024,560,1856,1,65,-1035
1448,16.666982,256,608,-2048,0,67,-1033
1449,16.678525,256,352,1344,0,65,-1033
1450,16.690072,1536,1456,1488,-1,67,-1036
1451,16.701622,-2048,656,1616,-4,64,-1032
1452,16.713175,256,1136,1680,-4,65,-1030
1453,16.724834,1536,448,1856,-2,65,-1036
1454,16.736522,1536,480,1984,0,62,-1036
1455,16.748195,768,400,1184,-3,71,-1034
1456,16.75985,1024,816,1536,-5,64,-1038
1457,16.771514,1536,512,1456,0,62,-1035
1458,16.783178,256,352,1600,0,66,-1030
1459,16.794823,256,688,1632,-1,70,-1036
1460,16.806478,1536,512,2032,-1,65,-1035
1461,16.818175,-2048,672,-2000,-3,65,-1033
1462,16.829832,1024,624,1792,0,65,-1035
1463,16.84138,768,672,1968,2,66,-1033
1464,16.852941,256,448,1648,-3,64,-1025
1465,16.864503,768,1056,1232,-3,64,-1033
1466,16.876052,1024,944,2000,0,65,-1029
1467,16.887637,1792,368,1808,-4,64,-1028
1468,16.899221,1536,672,-1888,0,67,-1035
1469,16.910802,1536,992,1696,-1,68,-1033
1470,16.922365,768,688,1568,0,66,-1029
1471,16.934085,768,848,560,0,62,-1036
1472,16.945764,-768,672,1696,-6,66,-1032
1473,16.957417,1024,144,1728,-1,64,-1038
1474,16.969064,-2048,384,1712,1,63,-1030
1475,16.980712,1792,736,1808,-4,66,-1030
1476,16.992389,1536,656,-1584,0,61,-1032
1477,17.004063,1,6,7,-3,64,-1027
1478,17.015733,1536,1008,1600,1,64,-1029
1479,17.02743,1024,896,1792,-3,64,-1028
1480,17.039082,1024,912,1856,0,70,-1035
1481,17.05075,1024,496,1520,-2,66,-1028
1482,17.0624,1536,736,1168,-1,67,-1036
1483,17.074055,1024,640,2016,1,66,-1032
1484,17.085706,1536,480,-1936,0,65,-1029
1485,17.097387,-2048,464,1872,-4,66,-1037
1486,17.109048,1536,1312,1184,2,66,-1035
1487,17.120707,1536,512,1856,1,61,-1031
1488,17.132442,1024,496,1184,-2,64,-1034
1489,17.14411,-1280,912,1728,0,61,-1030
1490,17.155744,0,816,1552,4,61,-1036
1491,17.167303,1536,656,1776,-2,67,-1036
1492,17.178847,-2048,832,1440,-4,70,-1034
1493,17.190394,1024,832,1696,-3,65,-1037
1494,17.20197,4,8,9,0,64,-1035
1495,17.213521,256,576,1536,-3,63,-1034
1496,17.225091,256,688,1952,1,61,-1036
1497,17.236624,768,368,1888,-2,65,-1034
1498,17.24825,1536,256,1712,2,65,-1039
1499,17.259927,1024,96,1424,-1,63,-1035
1500,17.271581,1024,240,1920,0,67,-1032
1501,17.283258,256,368,1424,-2,61,-1029
1502,17.294907,2,5,10,-1,62,-1036
1503,17.306574,1024,1360,2032,0,66,-1029
1504,17.318248,1024,832,1984,0,68,-1033
1505,17.329901,256,624,1536,0,63,-1029
1506,17.34154,0,736,1856,-1,63,-1031
1507,17.353099,1536,432,1728,-4,65,-1037
1508,17.364613,256,704,1488,-4,59,-1025
1509,17.376133,1024,496,1488,0,58,-1031
1510,17.38765,4,7,8,0,66,-1023
1511,17.39919,1536,832,1808,-4,66,-1030
1512,17.410734,-2048,1136,1600,0,69,-1029
1513,17.422277,-2048,688,1952,-1,69,-1029
1514,17.433846,256,400,1392,0,66,-1029
1515,17.445414,1024,880,1440,1,68,-1037
1516,17.457065,-1280,560,-1872,1,67,-1036
1517,17.4687,256,864,1888,-1,66,-1034
1518,17.480352,1024,1136,1728,0,64,-1039
1519,17.492052,1536,864,1488,-1,64,-1031
1520,17.503679,256,928,1344,-3,65,-1040
1521,17.515323,3,7,6,1,62,-1032
1522,17.526994,1024,464,-1536,-2,65,-1031
1523,17.538688,-1536,752,1296,-1,69,-1029
1524,17.550338,1024,880,-2032,-1,64,-1036
1525,17.562014,1536,928,1648,-1,67,-1027
1526,17.573659,1792,528,7,0,65,-1040
1527,17.58533,256,640,1680,3,68,-1031
1528,17.596998,1536,960,-1936,4,64,-1038
1529,17.608687,1024,384,1248,-1,65,-1030
1530,17.620341,1792,768,1520,-2,65,-1030
1531,17.632013,1024,496,1696,-2,62,-1032
1532,17.643703,1536,528,1712,0,63,-1029
1533,17.655353,-2048,672,1856,-4,66,-1034
1534,17.667025,256,1200,1600,0,63,-1037
1535,17.678704,1024,592,1328,0,67,-1033
1536,17.690376,1536,624,1184,0,66,-1033
1537,17.702033,1536,768,-1888,-3,63,-1033
1538,17.713695,768,864,1680,0,67,-1032
1539,17.725352,256,352,1520,-1,62,-1036
1540,17.736993,0,480,-1600,1,66,-1030
1541,17.74868,0,656,2016,-1,66,-1032
1542,17.760348,256,528,1872,-5,65,-1033
1543,17.772011,1792,688,1824,-3,62,-1032
1544,17.783674,768,608,-2016,-5,67,-1037
1545,17.795324,1024,480,1984,-1,65,-1031
1546,17.806962,1024,800,-2000,-1,66,-1034
1547,17.818605,1536,240,1648,-1,68,-1031
1548,17.830274,0,912,1648,-1,63,-1037
1549,17.841918,1536,800,1728,0,65,-1033
1550,17.853576,1536,832,1616,0,62,-1034
1551,17.865263,256,896,1584,2,64,-1026
1552,17.876855,1536,784,1680,-2,67,-1040
1553,17.888376,1536,1008,1904,2,63,-1027
1554,17.899892,1536,1088,1632,-1,64,-1024
1555,17.911414,1536,704,1520,2,65,-1034
1556,17.922959,256,672,1552,2,61,-1023
1557,17.934505,1536,1248,1680,-6,60,-1037
1558,17.946088,768,560,1440,-4,65,-1033
1559,17.957641,256,1024,1776,1,64,-1031
1560,17.969321,768,576,1520,0,65,-1034
1561,17.980969,256,1008,1920,-1,61,-1032
1562,17.992635,1792,416,1600,-1,63,-1030
1563,18.004315,1024,864,1648,-3,62,-1027
1564,18.015939,1024,704,1968,0,69,-1033
1565,18.027593,1536,688,1808,-2,63,-1031
1566,18.039278,256,1280,1216,0,63,-1041
1567,18.05092,1024,864,-1888,-3,68,-1034
1568,18.062577,1792,768,1344,-1,64,-1038
1569,18.074252,1792,912,1728,-1,66,-1032
1570,18.085814,1024,368,1616,0,64,-1032
1571,18.097374,-256,784,1504,-3,68,-1035
1572,18.108943,1536,864,1424,2,64,-1033
1573,18.120503,-256,448,1856,1,65,-1025
1574,18.132052,256,1040,1664,-4,65,-1029
1575,18.143602,1024,528,1648,-1,62,-1030
1576,18.15516,2,6,9,-4,64,-1031
1577,18.166729,1536,800,1264,-1,67,-1032
1578,18.178401,768,928,1776,0,67,-1026
1579,18.190056,1792,784,1584,-2,68,-1034
1580,18.201715,1536,720,1904,0,60,-1039
1581,18.213382,-2048,560,1552,0,68,-1025
1582,18.225063,1536,288,1712,0,61,-1033
1583,18.236722,1024,816,1632,0,60,-1029
1584,18.248389,-1536,880,1760,-1,65,-1028
1585,18.260066,1792,416,1712,-1,66,-1035
1586,18.27175,1536,400,1696,0,64,-1037
1587,18.283422,1792,896,1360,-4,62,-1036
1588,18.295067,1024,832,1744,2,63,-1033
1589,18.306732,768,656,1456,0,65,-1029
1590,18.318389,1792,512,1888,-6,65,-1033
1591,18.33004,768,784,1696,1,68,-1028
1592,18.341692,1792,1040,1872,-4,62,-1036
1593,18.353361,1536,512,1712,-3,64,-1031
1594,18.365028,1792,896,1360,-1,66,-1033
1595,18.37671,1024,496,1152,-3,65,-1031
1596,18.388382,256,928,1888,-2,65,-1031
1597,18.400063,1024,976,-1680,-1,69,-1034
1598,18.411772,768,528,1824,0,59,-1039
1599,18.423424,768,592,1376,1,63,-1031
1600,18.435093,4,8,10,-2,62,-1036
1601,18.446759,1536,704,1952,0,65,-1028
1602,18.458414,1792,832,1264,-2,60,-1030
1603,18.47005,256,992,1552,1,61,-1033
1604,18.48178,2,8,10,0,66,-1022
1605,18.493438,1536,1232,1184,0,65,-1039
1606,18.505,1792,752,1872,-1,66,-1029
1607,18.516591,1024,224,1808,0,64,-1037
1608,18.528133,1024,432,1792,-3,64,-1033
1609,18.539652,1792,640,1760,-1,65,-1035
1610,18.551196,1536,720,-2032,-2,64,-1024
1611,18.562741,768,432,-2016,1,65,-1032
1612,18.574283,-2048,832,1952,-1,65,-1031
1613,18.588499,1536,784,1776,-2,66,-1035
1614,18.600107,1536,272,1840,-1,61,-1024
1615,18.611651,1024,640,1696,-1,66,-1034
1616,18.623191,1024,848,1648,-1,60,-1036
1617,18.634737,3,8,9,-1,64,-1037
1618,18.646277,1024,368,1552,1,61,-1028
1619,18.657822,1792,800,1328,1,58,-1034
1620,18.66937,0,672,1712,1,62,-1033
1621,18.680948,1024,688,1456,-1,65,-1030
1622,18.692514,1536,816,-1616,1,62,-1034
1623,18.704202,1536,1312,1712,-3,65,-1033
1624,18.715871,256,640,2016,1,69,-1037
1625,18.727549,-1280,432,-1872,-3,67,-1027
1626,18.739217,1024,704,2016,-1,70,-1030
1627,18.750913,1024,768,1504,-3,66,-1035
1628,18.76257,1024,1008,2000,0,63,-1032
1629,18.774235,1792,912,-2016,-3,65,-1033
1630,18.785889,256,720,-1680,0,65,-1040
1631,18.797559,1024,816,1392,0,67,-1026
1632,18.809236,1024,864,1536,0,66,-1028
1633,18.820833,-2048,1024,-1776,0,62,-1030
1634,18.832375,1024,800,1728,0,65,-1037
1635,18.843892,1536,672,1936,0,65,-1037
1636,18.855413,-2048,1152,1456,0,65,-1034
1637,18.86696,768,832,1744,-4,64,-1034
1638,18.878503,-2048,976,1824,-3,64,-1035
1639,18.890048,1536,1376,1600,-5,67,-1034
1640,18.901609,1792,688,1616,0,67,-1035
1641,18.913314,1792,800,1552,-3,66,-1027
1642,18.924988,-2048,496,1952,-5,62,-1037
1643,18.936668,0,624,1520,-2,65,-1035
1644,18.948322,1024,896,1760,0,65,-1033
1645,18.960004,768,176,1984,-2,64,-1036
1646,18.971672,1792,432,-2032,1,64,-1029
1647,18.983324,1536,1104,1744,0,65,-1029
1648,18.994967,0,816,1488,-2,64,-1030
1649,19.006653,1536,688,2016,0,64,-1025
1650,19.018311,1536,656,1568,-1,66,-1034
1651,19.029867,1024,672,1904,-1,67,-1029
1652,19.041413,1536,832,896,0,65,-1030
1653,19.052958,-2048,960,1776,1,59,-1035
1654,19.064522,1536,496,2032,-1,63,-1038
1655,19.076102,768,640,1488,0,63,-1032
1656,19.087643,1024,1056,1536,2,66,-1031
1657,19.099212,1536,1136,1824,-3,67,-1033
1658,19.110762,1536,736,1360,-2,64,-1035
1659,19.122389,1024,496,1536,1,63,-1032
1660,19.134034,1536,384,-1968,0,69,-1029
1661,19.145695,1024,912,1296,-4,67,-1033
1662,19.157373,1536,784,1904,0,66,-1036
1663,19.169032,1792,992,1248,-1,65,-1030
1664,19.180728,256,784,1968,0,63,-1038
1665,19.192429,-2048,576,2000,-2,63,-1030
1666,19.204095,1792,512,1568,-2,62,-1033
1667,19.215781,1024,832,1840,2,61,-1035
1668,19.227418,1792,864,1072,-1,62,-1030
1669,19.238972,2,5,7,-2,65,-1028
1670,19.250509,1024,384,1168,-2,67,-1035
1671,19.262082,1024,688,-1952,1,64,-1030
1672,19.273626,1536,464,1440,0,66,-1039
1673,19.285169,1536,944,720,-2,68,-1033
1674,19.29673,1536,816,1840,-2,63,-1038
1675,19.308341,1536,960,1392,-1,62,-1030
1676,19.319904,1792,720,-2016,1,65,-1040
1677,19.331543,256,560,1632,0,63,-1032
1678,19.343205,1024,320,1440,0,65,-1032
1679,19.354857,1024,864,1600,-3,62,-1030
1680,19.366529,1536,576,1712,-1,66,-1030
1681,19.378187,1792,480,-1920,-2,67,-1034
1682,19.389839,1792,112,1248,-4,66,-1035
1683,19.401513,1024,1184,2000,3,66,-1038
1684,19.413168,1024,640,1632,-1,64,-1037
1685,19.424846,1024,736,1520,-1,65,-1035
1686,19.436532,1024,1264,1712,-4,66,-1035
1687,19.448123,256,1120,1552,0,64,-1029
1688,19.459712,1536,848,1504,7,65,-1032
1689,19.471264,1024,656,-1904,0,61,-1031
1690,19.48282,1024,1152,-1904,0,63,-1031
1691,19.494364,1792,400,1536,1,65,-1033
1692,19.505948,1536,608,1792,-2,66,-1029
1693,19.517522,1536,560,1776,-5,64,-1033
1694,19.529121,1792,832,1536,1,70,-1038
1695,19.540965,1024,672,1440,-3,67,-1028
1696,19.55273,1536,576,1488,-2,65,-1034
1697,19.564393,1536,960,1696,-5,65,-1029
1698,19.576061,1024,944,1424,0,67,-1033
1699,19.587744,768,944,1184,0,62,-1022
1700,19.599415,1024,816,1808,0,64,-1037
1701,19.611063,768,992,1312,0,63,-1036
1702,19.622736,3,6,10,-1,67,-1037
1703,19.634409,1024,848,1760,-5,64,-1032
1704,19.64609,1024,1056,1584,-1,69,-1037
1705,19.657649,768,768,1376,0,66,-1034
1706,19.669208,1792,784,1872,2,65,-1029
1707,19.680757,1536,800,1392,0,68,-1032
1708,19.692311,768,640,1472,0,64,-1041
1709,19.703885,1024,928,1456,0,67,-1029
1710,19.715407,3,5,9,-3,63,-1038
1711,19.726951,1792,976,1504,-1,69,-1030
1712,19.738502,1536,736,1456,3,68,-1035
1713,19.750125,1536,592,1936,-1,63,-1037
1714,19.761769,768,288,1248,-3,63,-1040
1715,19.773448,768,336,1536,-1,60,-1030
1716,19.785123,1024,720,1952,-1,65,-1031
1717,19.796777,1536,864,1392,0,67,-1038
1718,19.808443,768,720,1728,1,61,-1029
1719,19.820144,256,608,-2000,0,63,-1033
1720,19.831804,1024,672,1232,-1,63,-1040
1721,19.843434,1536,608,1504,-4,66,-1032
1722,19.855112,1536,736,-1888,-2,66,-1037
1723,19.866714,1536,672,1344,-1,64,-1036
1724,19.878261,768,848,-1968,2,67,-1036
1725,19.88982,-1280,768,1072,-2,66,-1028
1726,19.901379,1536,992,1792,0,63,-1037
1727,19.91293,1536,272,1392,-3,66,-1030
1728,19.92452,768,560,1632,0,66,-1034
1729,19.9361,2,8,8,-3,65,-1025
1730,19.947666,256,48,1504,-5,69,-1033
1731,19.959281,1792,224,1424,-5,65,-1030
1732,19.970937,-1536,832,1600,0,65,-1032
1733,19.98258,1536,800,-2048,-4,66,-1039
1734,19.994254,1024,848,2016,-4,62,-1030
1735,20.005905,1792,544,1536,-3,65,-1035
1736,20.017563,1536,112,1856,-4,61,-1031
1737,20.029233,768,944,1616,-2,65,-1043
1738,20.040913,1024,224,1872,-1,66,-1031
1739,20.052591,256,976,1648,0,66,-1037
1740,20.06414,1536,448,1296,0,62,-1023
1741,20.075713,1024,976,1504,-1,63,-1034
1742,20.087274,1024,512,-1904,-3,63,-1029
1743,20.098837,1024,800,1424,0,64,-1029
1744,20.110385,1024,928,1584,-3,63,-1032
1745,20.12196,1536,928,1536,-3,63,-1032
1746,20.133502,1024,592,1552,0,63,-1027
1747,20.145039,1536,1424,1712,-2,61,-1036
1748,20.156624,4,8,6,-3,63,-1026
1749,20.16831,1024,800,1424,-1,64,-1033
1750,20.179937,768,944,1776,-5,62,-1033
1751,20.191613,256,1104,1472,-3,61,-1031
1752,20.20327,256,656,-1840,3,65,-1037
1753,20.214912,1024,736,1952,-1,68,-1037
1754,20.226564,1792,1312,1504,-1,64,-1032
1755,20.23821,1024,688,1584,-4,65,-1039
1756,20.249878,0,5,11,1,63,-1029
1757,20.261523,768,656,1760,-3,61,-1033
1758,20.273082,256,656,1696,-5,66,-1025
1759,20.284611,768,672,-1984,1,67,-1033
1760,20.296152,1024,560,1776,0,64,-1032
1761,20.307729,1536,400,1888,2,61,-1031
1762,20.319273,-2048,400,1472,-2,66,-1033
1763,20.330815,1536,368,1920,-2,64,-1030
1764,20.342357,256,896,1776,0,69,-1035
1765,20.353945,3,7,10,0,62,-1035
1766,20.36557,1792,592,1680,1,68,-1036
1767,20.377241,768,576,1536,2,64,-1029
1768,20.388948,1536,592,1552,-3,67,-1036
1769,20.400648,256,848,1952,-3,65,-1028
1770,20.412317,1024,960,1600,-3,62,-1033
1771,20.424005,768,1072,1456,2,63,-1044
1772,20.435676,1536,704,1536,-4,65,-1029
1773,20.447356,0,816,1296,2,64,-1030
1774,20.459029,1024,864,1376,-2,63,-1029
1775,20.470708,256,784,1376,-3,64,-1026
1776,20.482271,4,5,8,-1,63,-1037
1777,20.493837,256,960,1952,0,63,-1039
1778,20.505397,1536,832,-1904,-2,64,-1028
1779,20.516958,0,768,1936,1,66,-1037
1780,20.528513,256,864,-1472,-2,65,-1028
1781,20.540086,-2048,1024,1712,1,60,-1031
1782,20.551643,1536,1008,1536,-3,64,-1031
1783,20.563187,1536,576,1664,-3,65,-1033
1784,20.574877,2,6,10,0,65,-1030
1785,20.586533,1536,640,1504,-5,67,-1037
1786,20.598184,1024,816,1472,-6,62,-1035
1787,20.609853,1536,1024,1648,1,62,-1027
1788,20.621501,1536,288,1872,-1,66,-1030
1789,20.633164,1536,880,1648,-1,60,-1028
1790,20.644851,2,5,9,-2,66,-1034
1791,20.656514,-2048,128,1600,-4,64,-1030
1792,20.668204,1024,592,1904,1,65,-1031
1793,20.67978,1024,640,1776,-3,66,-1028
1794,20.691327,1792,1040,1392,-2,62,-1030
1795,20.702879,-2048,544,1872,-4,61,-1035
1796,20.714451,768,784,1584,-2,65,-1030
1797,20.725999,1792,368,1776,-1,62,-1032
1798,20.737579,-256,736,1744,-2,64,-1029
1799,20.74912,1024,656,1008,-4,63,-1035
1800,20.760701,768,1120,1424,0,63,-1039
1801,20.772278,1792,736,-1632,-5,62,-1035
1802,20.783936,1536,1072,1664,-1,62,-1036
1803,20.795607,-1280,960,1232,0,64,-1040
1804,20.807257,1024,544,1856,-4,67,-1025
1805,20.818908,-2048,384,1216,0,63,-1034
1806,20.830582,-256,720,1824,3,62,-1031
1807,20.842249,1024,960,1568,-2,66,-1030
1808,20.853895,-1536,496,1728,2,63,-1033
1809,20.865565,1024,800,1584,0,62,-1031
1810,20.877214,1536,800,1248,0,65,-1028
1811,20.888882,0,1040,1504,-4,61,-1038
1812,20.900575,256,512,1776,-2,64,-1030
1813,20.912192,1024,1200,1200,0,61,-1037
1814,20.92384,1024,1088,1808,-1,67,-1037
1815,20.935531,256,720,1216,-2,62,-1028
1816,20.947171,-1280,544,1728,-3,64,-1031
1817,20.958819,1024,1008,1232,-2,66,-1027
1818,20.970524,-1536,784,1664,0,64,-1035
1819,20.982166,1536,544,1968,-1,67,-1035
1820,20.993811,1024,272,1472,2,62,-1032
1821,21.005481,1024,528,1744,-3,62,-1040
1822,21.017131,1536,880,1840,-2,65,-1032
1823,21.028801,1792,960,1872,2,63,-1035
1824,21.040449,1792,368,1680,0,61,-1034
1825,21.052116,1792,1200,1776,-3,66,-1035
1826,21.063801,256,1504,1808,-7,68,-1029
1827,21.075484,1024,224,1856,1,64,-1037
1828,21.087125,1536,320,1680,0,61,-1033
1829,21.09868,768,608,1408,-3,65,-1034
1830,21.110227,1536,896,1440,-1,64,-1032
1831,21.12177,768,208,-1952,0,65,-1027
1832,21.133314,768,976,1184,1,61,-1037
1833,21.14486,256,576,1264,1,66,-1034
1834,21.156443,-2048,576,-2048,0,63,-1035
1835,21.16801,1792,704,-1936,-2,65,-1031
1836,21.179578,1536,1136,1520,1,64,-1036
1837,21.191128,1024,1056,1888,-2,66,-1032
1838,21.202687,1024,688,1808,-1,65,-1030
1839,21.214237,-2048,1040,1840,-1,63,-1031
1840,21.225836,1536,496,1808,2,67,-1027
1841,21.237382,2,9,7,-1,63,-1035
1842,21.248947,1024,928,1744,-2,61,-1031
1843,21.26051,1792,768,1728,0,62,-1032
1844,21.272089,-1536,672,1488,1,64,-1034
1845,21.283657,1536,688,1456,-5,67,-1037
1846,21.295317,1792,752,1664,4,65,-1032
1847,21.30698,1536,128,1616,1,65,-1037
1848,21.318638,-256,1040,1872,-1,64,-1034
1849,21.330286,1792,192,-1760,-2,64,-1031
1850,21.341938,1536,528,1584,0,62,-1039
1851,21.353606,1792,512,1568,2,65,-1033
1852,21.365259,256,480,1680,-2,62,-1034
1853,21.376974,256,560,1728,-3,65,-1029
1854,21.388643,1792,480,1568,-2,64,-1035
1855,21.400359,1792,976,2000,-2,67,-1031
1856,21.412006,1536,880,1488,-2,65,-1038
1857,21.423674,-2048,1088,1504,-3,66,-1028
1858,21.435343,1024,832,1520,0,66,-1034
1859,21.446998,1536,288,2000,-3,67,-1036
1860,21.458647,1536,736,-1936,0,69,-1038
1861,21.470297,1536,768,10,0,67,-1034
1862,21.481953,256,736,-1888,-2,66,-1032
1863,21.493627,768,704,1568,0,64,-1033
1864,21.505282,1024,224,1872,0,64,-1029
1865,21.516982,-1024,656,1616,-1,65,-1033
1866,21.528652,1024,784,1408,-2,65,-1034
1867,21.540338,1792,400,1936,0,65,-1033
1868,21.552013,1024,672,-2016,-1,64,-1033
1869,21.563689,768,800,1648,-1,62,-1039
1870,21.575337,1536,416,1760,0,62,-1032
1871,21.587014,256,608,1888,-1,63,-1032
1872,21.598759,768,720,1408,-1,64,-1032
1873,21.61046,1024,336,1392,0,63,-1029
1874,21.622084,3,6,8,0,63,-1035
1875,21.633639,-2048,592,1904,-1,64,-1038
1876,21.6452,0,1056,1552,-4,62,-1032
1877,21.656747,256,992,1856,-2,64,-1031
1878,21.668305,1792,544,1840,-2,68,-1034
1879,21.679885,4,7,9,0,62,-1029
1880,21.691411,-2048,1104,-1936,2,68,-1032
1881,21.702971,-2048,512,1712,0,66,-1035
1882,21.714682,-1536,464,1872,-2,65,-1034
1883,21.726372,1024,1056,1648,-1,62,-1033
1884,21.738015,768,640,-1968,-1,62,-1029
1885,21.749668,1536,672,-1952,0,61,-1032
1886,21.76134,768,976,-1920,0,64,-1028
1887,21.773027,1792,7,9,-2,62,-1030
1888,21.784719,1024,1152,1792,-3,67,-1036
1889,21.796384,256,480,1792,-2,66,-1030
1890,21.80809,256,640,1296,-2,66,-1034
1891,21.819772,256,1072,-1904,-3,64,-1035
1892,21.831332,1792,1024,1504,-3,66,-1036
1893,21.842878,-2048,448,-1952,-2,59,-1029
1894,21.854434,1792,704,1600,-2,64,-1032
1895,21.865978,256,768,1536,0,59,-1038
1896,21.87752,1536,736,-1552,-2,59,-1036
1897,21.88908,1536,704,1776,4,67,-1034
1898,21.900619,1024,640,1792,-3,64,-1033
1899,21.91221,1024,432,1952,-6,67,-1035
1900,21.923861,-2048,464,1472,-1,65,-1039
1901,21.935541,256,416,1824,-4,66,-1026
1902,21.947184,1024,1056,1696,-2,70,-1032
1903,21.958836,1024,512,1920,-2,61,-1033
1904,21.970505,-1536,672,1392,-1,64,-1034
1905,21.982151,1792,800,-2032,-3,66,-1029
1906,21.993793,1024,1008,1712,-3,65,-1033
1907,22.005458,-2048,624,1632,-6,64,-1030
1908,22.017125,1024,784,1808,-2,67,-1031
1909,22.02877,1536,464,1632,-3,67,-1029
1910,22.040334,-1280,800,-2032,0,67,-1035
1911,22.051896,1024,496,1648,-3,68,-1031
1912,22.063464,0,544,1616,3,67,-1026
1913,22.075052,1536,1136,1232,2,62,-1033
1914,22.086605,1536,608,1968,1,64,-1031
1915,22.098193,1792,656,1520,-1,66,-1037
1916,22.109731,1536,464,1264,-3,66,-1028
1917,22.121283,1024,464,8,-2,68,-1033
1918,22.13295,1792,288,1552,0,61,-1033
1919,22.14463,768,816,1664,-2,66,-1035
1920,22.156337,1024,336,-2048,-1,64,-1030
1921,22.167999,1536,720,1360,0,63,-1030
1922,22.17967,1024,544,1632,-4,64,-1028
1923,22.191341,1536,720,1536,0,67,-1035
1924,22.203001,1536,816,-2000,0,65,-1031
1925,22.214654,1024,688,1808,-1,63,-1035
1926,22.22632,2,6,9,-2,58,-1027
1927,22.237986,1792,480,1168,1,63,-1030
1928,22.249585,768,416,800,-2,69,-1034
1929,22.261141,1024,752,2016,0,68,-1033
1930,22.272698,-1536,208,1648,-2,65,-1034
1931,22.284261,1024,1248,1648,-2,71,-1032
1932,22.295838,1024,432,1408,-2,61,-1031
1933,22.307411,-2048,928,1664,-2,62,-1032
1934,22.318949,1536,576,1728,-1,63,-1037
1935,22.330495,1792,448,-2016,0,65,-1029
1936,22.342126,-2048,384,-2032,-1,66,-1035
1937,22.353769,1536,304,1872,-2,64,-1031
1938,22.365439,768,720,1440,-1,62,-1032
1939,22.37713,3,6,8,-1,63,-1028
1940,22.388836,768,1104,1360,0,65,-1031
1941,22.400506,1536,384,1792,0,66,-1038
1942,22.412182,1536,624,1200,5,67,-1033
1943,22.423875,1536,368,1520,0,66,-1027
1944,22.435555,256,576,1904,0,63,-1033
1945,22.447236,1024,592,1792,-4,65,-1029
1946,22.45888,1024,592,1488,1,65,-1027
1947,22.470529,1792,960,1520,-3,65,-1036
1948,22.482177,1536,816,1440,-2,65,-1032
1949,22.493846,768,976,1616,-3,66,-1032
1950,22.505494,256,256,1664,-5,64,-1030
1951,22.51716,1536,592,1520,-1,63,-1031
1952,22.528849,0,848,1760,-1,65,-1033
1953,22.540547,1792,912,1904,-1,66,-1033
1954,22.552192,1792,416,1664,3,68,-1039
1955,22.563859,256,1120,1824,-3,62,-1030
1956,22.575545,768,944,-1984,0,65,-1036
1957,22.587187,-256,928,1760,2,62,-1039
1958,22.598833,256,656,1744,-1,62,-1033
1959,22.610503,1024,592,-1952,-1,63,-1031
1960,22.622152,1024,736,1584,0,68,-1033
1961,22.633803,1536,752,1648,-1,67,-1034
1962,22.645509,1792,288,1360,1,67,-1031
1963,22.657174,256,704,-1984,2,62,-1024
1964,22.668838,1024,752,1536,2,63,-1031
1965,22.680505,1792,1136,1792,0,68,-1031
1966,22.692173,1024,704,1488,0,63,-1033
1967,22.703832,0,4,8,0,61,-1023
1968,22.715505,1536,848,1760,-2,62,-1040
1969,22.727151,1536,800,1600,-2,65,-1032
1970,22.7388,1024,864,1648,0,64,-1030
1971,22.750484,768,1056,1600,-1,62,-1034
1972,22.762135,1536,176,-2000,-3,62,-1034
1973,22.773702,1792,1136,1328,-2,66,-1038
1974,22.785249,768,560,1376,0,69,-1036
1975,22.796803,1,6,9,-4,65,-1038
1976,22.808358,1024,992,1216,0,65,-1036
1977,22.819892,256,912,2000,-3,62,-1032
1978,22.831408,1536,656,1648,0,63,-1039
1979,22.842952,1536,32,1536,2,64,-1031
1980,22.854507,1024,816,1776,-2,63,-1035
1981,22.866123,1536,1040,1808,-3,67,-1033
1982,22.877772,1536,1152,1616,-3,64,-1031
1983,22.88945,3,5,9,-4,63,-1034
1984,22.90111,1792,576,1776,3,66,-1032
1985,22.912768,-2048,560,1920,0,66,-1030
1986,22.924477,1024,1392,1712,2,64,-1034
1987,22.936129,-2048,1072,1040,0,66,-1031
1988,22.947802,-256,1184,-2032,3,61,-1028
1989,22.959503,1024,848,2032,-3,63,-1034
1990,22.971153,768,880,1984,-4,62,-1033
1991,22.982716,1024,848,1792,0,63,-1035
1992,22.994265,1024,1040,1792,0,62,-1031
1993,23.005819,-2048,928,1760,-3,63,-1031
1994,23.017381,768,384,1744,-5,60,-1033
1995,23.028944,1536,832,1728,-1,66,-1039
1996,23.040503,1024,784,880,0,65,-1026
1997,23.052074,1792,896,1392,-3,64,-1031
1998,23.063662,-2048,784,-1888,-4,62,-1038
1999,23.075288,1536,864,1616,-2,62,-1034
