sample,t_s,gyro_x,gyro_y,gyro_z,accel_x,accel_y,accel_z
0,1.3e-05,-1,0,1,1048,1,-1560
1,0.011239,1,2,0,1043,-1,-1558
2,0.02243,1,-1,1,1048,0,-1563
3,0.033616,1,-1,0,1044,0,-1559
4,0.044818,1,0,0,1046,0,-1562
5,0.056007,1,2,0,1047,0,-1559
6,0.067198,0,0,0,1051,-1,-1559
7,0.078385,0,0,0,1051,1,-1564
8,0.089567,0,0,2,1049,-2,-1561
9,0.100759,0,-1,2,1047,0,-1559
10,0.111949,-1,-1,1,1050,2,-1564
11,0.123132,0,-1,1,1050,0,-1561
12,0.134324,0,0,1,1045,0,-1562
13,0.145509,0,0,0,1048,0,-1559
14,0.156695,0,0,0,1048,0,-1563
15,0.167866,0,0,0,1050,0,-1559
16,0.179049,0,1,0,1045,1,-1559
17,0.19023,1,-1,1,1047,0,-1558
18,0.201412,1,0,0,1046,3,-1562
19,0.212601,0,0,1,1048,0,-1561
20,0.223791,0,0,0,1044,-3,-1559
21,0.234972,0,1,0,1046,0,-1558
22,0.246153,0,1,1,1048,0,-1558
23,0.257334,0,1,0,1046,2,-1563
24,0.268528,1,1,0,1051,-4,-1560
25,0.27968,1,0,0,1045,-2,-1556
26,0.290867,0,0,1,1047,1,-1557
27,0.302045,0,0,0,1046,-4,-1560
28,0.313227,1,1,0,1044,0,-1558
29,0.324418,1,1,0,1044,-2,-1559
30,0.335598,0,2,0,1047,0,-1559
31,0.346781,0,1,0,1045,0,-1555
32,0.357961,0,0,-1,1047,1,-1557
33,0.369147,0,1,-1,1050,-1,-1557
34,0.380344,0,1,0,1042,3,-1553
35,0.391525,0,1,1,1048,1,-1562
36,0.402709,1,0,0,1048,0,-1557
37,0.413893,1,1,0,1046,0,-1558
38,0.425076,1,2,0,1043,0,-1559
39,0.436234,0,0,1,1048,-1,-1561
40,0.447418,1,0,0,1043,-1,-1559
41,0.458601,1,1,0,1048,-2,-1559
42,0.469784,1,2,-1,1049,-6,-1559
43,0.480966,0,1,-1,1047,3,-1561
44,0.492158,0,1,0,1043,-2,-1551
45,0.503339,0,0,0,1050,1,-1562
46,0.51452,1,0,0,1049,-3,-1562
47,0.525701,0,0,0,1048,1,-1563
48,0.536883,1,-1,0,1045,-3,-1563
49,0.548053,1,0,-1,1048,0,-1564
50,0.559239,1,0,0,1043,-1,-1557
51,0.570423,0,1,0,1045,0,-1561
52,0.581609,0,0,0,1051,2,-1560
53,0.592803,0,0,0,1047,0,-1560
54,0.603991,0,0,0,1049,1,-1562
55,0.615184,0,0,0,1048,-1,-1555
56,0.626375,1,0,1,1045,-1,-1559
57,0.63756,0,1,0,1046,-1,-1565
58,0.648753,1,2,0,1046,-1,-1554
59,0.65994,0,1,0,1049,0,-1558
60,0.671126,0,1,0,1047,1,-1560
61,0.68231,0,1,1,1048,-3,-1555
62,0.693495,0,1,0,1049,0,-1561
63,0.704683,1,1,0,1049,2,-1561
64,0.715865,0,1,0,1044,-1,-1555
65,0.727052,1,1,1,1047,-1,-1556
66,0.738236,0,1,1,1050,0,-1560
67,0.749421,0,1,0,1044,3,-1559
68,0.760602,0,2,1,1050,-1,-1556
69,0.771792,0,1,0,1044,0,-1564
70,0.782976,1,1,-1,1047,-4,-1562
71,0.794163,0,1,1,1049,0,-1559
72,0.805347,1,2,0,1049,1,-1558
73,0.816534,1,1,0,1053,0,-1554
74,0.827681,0,1,1,1046,2,-1557
75,0.838874,0,1,1,1046,-2,-1556
76,0.850067,0,-1,1,1043,-3,-1558
77,0.861261,0,-1,0,1045,2,-1560
78,0.872419,0,0,1,1050,0,-1561
79,0.883604,0,2,1,1045,1,-1566
80,0.894786,0,0,0,1050,-1,-1567
81,0.90597,0,0,-1,1047,2,-1558
82,0.91716,0,0,0,1049,-1,-1554
83,0.928347,0,0,-1,1050,0,-1568
84,0.939531,0,0,0,1043,0,-1563
85,0.950714,0,0,-1,1047,0,-1557
86,0.961896,0,1,0,1045,1,-1555
87,0.97308,0,1,0,1044,-1,-1566
88,0.984246,0,0,0,1047,2,-1551
89,0.995431,0,0,0,1047,2,-1562
90,1.006629,0,0,0,1050,-1,-1558
91,1.017812,0,-2,-1,1048,0,-1562
92,1.029004,0,-1,0,1047,3,-1559
93,1.040204,0,0,0,1047,0,-1561
94,1.051386,0,2,1,1043,0,-1563
95,1.062572,1,1,0,1048,-1,-1562
96,1.073753,1,1,0,1047,0,-1563
97,1.084937,1,1,0,1049,-3,-1570
98,1.096123,1,1,0,1043,0,-1559
99,1.107307,1,1,0,1047,-2,-1566
100,1.118489,1,0,0,1047,-3,-1564
101,1.129674,1,0,0,1043,-1,-1565
102,1.140859,0,0,0,1048,-2,-1557
103,1.15205,0,0,0,1047,-2,-1559
104,1.163236,1,1,0,1049,-2,-1561
105,1.174423,1,1,0,1047,0,-1557
106,1.185609,0,1,0,1051,-3,-1563
107,1.196791,1,0,0,1045,0,-1557
108,1.207983,0,1,-1,1046,-4,-1553
109,1.219172,0,2,0,1049,0,-1561
110,1.230359,1,0,0,1045,0,-1558
111,1.241549,0,0,0,1049,1,-1557
112,1.252743,1,-1,0,1045,1,-1554
113,1.263932,1,-1,0,1049,-1,-1557
114,1.27512,0,-1,0,1046,0,-1555
115,1.286305,0,-1,1,1046,-5,-1565
116,1.297491,0,0,0,1045,1,-1561
117,1.308679,0,0,0,1046,0,-1566
118,1.319865,0,-1,-1,1047,-2,-1563
119,1.331057,1,0,0,1051,3,-1551
120,1.342241,1,1,0,1049,0,-1562
121,1.353425,0,-1,0,1047,0,-1561
122,1.364607,0,1,0,1050,0,-1565
123,1.375798,1,1,0,1047,-3,-1550
124,1.386989,1,1,1,1049,-4,-1560
125,1.398173,0,1,1,1044,1,-1561
126,1.40936,0,1,0,1050,-1,-1559
127,1.420544,0,1,1,1045,0,-1561
128,1.431734,0,1,1,1049,-2,-1558
129,1.442925,1,0,1,1046,3,-1562
130,1.454107,1,-1,1,1050,3,-1561
131,1.465295,0,0,0,1046,0,-1561
132,1.476485,-1,-1,0,1046,0,-1559
133,1.487681,0,-2,0,1049,-3,-1558
134,1.498875,1,2,0,1050,0,-1558
135,1.510066,1,1,0,1048,0,-1559
136,1.521251,0,0,0,1051,1,-1565
137,1.532418,0,0,0,1044,1,-1566
138,1.543605,0,-2,0,1048,1,-1554
139,1.554786,0,-2,-1,1052,-1,-1560
140,1.565972,0,-1,0,1046,-1,-1562
141,1.577153,0,-1,0,1046,0,-1555
142,1.588345,1,-2,0,1046,5,-1564
143,1.599526,0,-2,0,1050,0,-1562
144,1.610708,0,-1,-1,1048,-1,-1555
145,1.621889,0,-1,0,1044,-3,-1559
146,1.633072,1,0,1,1045,0,-1558
147,1.644237,0,0,1,1048,0,-1560
148,1.655424,0,0,0,1048,0,-1556
149,1.666608,0,1,0,1047,-6,-1560
150,1.6778,0,0,0,1046,1,-1563
151,1.688995,0,2,0,1044,1,-1563
152,1.70019,1,1,0,1046,0,-1561
153,1.711374,1,-1,0,1046,-3,-1560
154,1.722561,1,0,0,1048,0,-1562
155,1.733748,1,-1,1,1049,1,-1563
156,1.744932,0,-1,1,1049,-2,-1562
157,1.756127,1,-1,0,1046,2,-1559
158,1.767309,0,-1,0,1045,-1,-1562
159,1.778501,0,0,0,1046,0,-1563
160,1.78969,0,0,0,1047,-2,-1553
161,1.800889,1,1,0,1048,2,-1562
162,1.812141,1,-2,1,1044,-2,-1555
163,1.823378,0,0,1,1048,0,-1557
164,1.834566,-1,-1,0,1046,-1,-1557
165,1.84575,-1,-1,0,1048,0,-1561
166,1.856938,-1,-1,1,1045,0,-1557
167,1.868123,-1,-1,0,1048,1,-1566
168,1.879332,0,-2,0,1048,-3,-1565
169,1.890514,0,-1,0,1047,-3,-1562
170,1.901697,1,2,-1,1044,2,-1554
171,1.912878,0,1,-1,1046,-2,-1555
172,1.924054,0,0,0,1049,0,-1558
173,1.935247,1,0,-1,1047,0,-1564
174,1.94644,0,1,0,1051,0,-1559
175,1.957626,1,2,0,1049,-6,-1561
176,1.968826,1,2,0,1047,0,-1559
177,1.980015,0,-1,1,1051,-3,-1560
178,1.9912,0,-1,1,1045,2,-1559
179,2.002384,0,0,0,1045,0,-1555
180,2.013567,0,-1,0,1047,0,-1556
181,2.024755,0,-1,0,1046,-1,-1563
182,2.035943,0,-1,0,1044,0,-1563
183,2.047127,0,0,0,1046,-2,-1558
184,2.058309,0,0,0,1048,0,-1559
185,2.069494,0,-1,1,1045,0,-1559
186,2.080684,-1,-1,0,1047,0,-1559
187,2.091868,0,0,-1,1049,3,-1564
188,2.103059,0,0,0,1044,1,-1556
189,2.114245,0,0,0,1047,0,-1559
190,2.12543,0,0,-1,1045,0,-1555
191,2.13661,0,-1,0,1046,0,-1558
192,2.147799,-1,-1,1,1046,-1,-1557
193,2.15902,0,-1,0,1049,1,-1560
194,2.170301,1,-1,0,1051,-1,-1556
195,2.181491,1,0,-1,1045,-1,-1553
196,2.19269,0,-1,0,1046,3,-1563
197,2.203867,-1,0,-1,1048,-2,-1562
198,2.215057,0,0,0,1049,-2,-1563
199,2.226269,0,-1,0,1048,-1,-1555
200,2.237454,0,0,0,1046,0,-1564
201,2.248614,0,0,1,1045,0,-1557
202,2.259803,0,-1,0,1046,-2,-1559
203,2.270991,-1,0,1,1047,-3,-1560
204,2.282177,0,0,-1,1045,-1,-1563
205,2.293361,0,-1,0,1048,0,-1559
206,2.304554,0,1,-1,1050,0,-1559
207,2.315742,0,0,0,1048,0,-1557
208,2.326928,1,1,0,1048,-2,-1562
209,2.338112,0,2,1,1044,-3,-1557
210,2.349302,0,1,1,1048,0,-1561
211,2.36049,0,1,0,1044,0,-1553
212,2.371683,1,1,0,1046,1,-1563
213,2.382871,-1,0,0,1047,2,-1558
214,2.394052,0,-1,1,1047,0,-1563
215,2.40524,0,-1,1,1049,0,-1557
216,2.41644,1,-1,1,1045,-1,-1564
217,2.427624,0,0,0,1047,1,-1555
218,2.438821,0,1,0,1048,-1,-1552
219,2.450005,0,1,1,1053,0,-1556
220,2.461188,1,1,0,1047,0,-1553
221,2.472375,1,0,0,1046,0,-1557
222,2.483556,1,0,0,1047,-3,-1559
223,2.49474,0,2,-1,1046,-4,-1556
224,2.505926,1,1,-1,1044,-3,-1563
225,2.517114,1,1,0,1045,0,-1570
226,2.528317,1,0,0,1046,0,-1559
227,2.539499,1,0,0,1051,0,-1558
228,2.550684,-1,0,1,1044,0,-1558
229,2.561868,0,0,1,1051,1,-1567
230,2.573053,0,0,1,1046,-2,-1565
231,2.584252,0,0,0,1048,0,-1561
232,2.595434,0,-1,0,1046,-5,-1562
233,2.606618,0,-1,0,1046,0,-1562
234,2.617805,-1,-2,0,1045,0,-1563
235,2.628986,0,-1,0,1049,1,-1557
236,2.640212,0,-1,0,1047,-4,-1556
237,2.651405,0,-1,0,1052,0,-1558
238,2.662591,0,-1,-1,1046,0,-1561
239,2.673777,1,0,0,1048,-2,-1563
240,2.684963,1,0,-1,1047,-2,-1562
241,2.69617,0,0,0,1050,2,-1563
242,2.707363,0,-1,0,1048,0,-1561
243,2.718554,0,-1,0,1049,-5,-1556
244,2.729741,1,0,-1,1048,0,-1564
245,2.740927,0,-1,0,1051,-3,-1558
246,2.752123,-1,0,0,1046,1,-1568
247,2.763306,0,1,0,1046,-2,-1561
248,2.774499,0,1,0,1054,0,-1557
249,2.785685,0,0,1,1053,0,-1560
250,2.79687,0,0,0,1045,0,-1560
251,2.808055,0,1,0,1047,3,-1568
252,2.819237,1,1,1,1051,0,-1558
253,2.830427,1,1,1,1046,0,-1560
254,2.841612,0,-1,0,1049,-4,-1569
255,2.852806,0,-1,-1,1044,1,-1558
256,2.863989,0,-1,1,1049,-3,-1559
257,2.875175,-1,-1,0,1049,0,-1552
258,2.88636,-1,0,0,1047,2,-1556
259,2.897546,0,-2,0,1045,-2,-1562
260,2.908747,0,-1,0,1053,0,-1558
261,2.919933,0,0,-1,1047,-3,-1560
262,2.931116,1,1,0,1048,3,-1557
263,2.942308,0,1,-1,1045,-1,-1555
264,2.953493,0,1,1,1044,0,-1555
265,2.964686,0,1,0,1049,-1,-1561
266,2.975866,0,1,0,1047,-1,-1559
267,2.987057,0,2,1,1047,-2,-1560
268,2.998243,0,1,1,1043,0,-1566
269,3.009431,0,0,0,1045,-1,-1559
270,3.020613,1,2,0,1048,-1,-1557
271,3.0318,0,1,1,1046,0,-1558
272,3.04299,1,-1,0,1047,0,-1567
273,3.054174,0,0,0,1046,0,-1557
274,3.065356,0,0,1,1052,1,-1565
275,3.07655,1,1,0,1046,-1,-1557
276,3.087736,0,-1,0,1048,0,-1564
277,3.098923,0,-1,0,1049,0,-1558
278,3.110107,0,0,0,1053,2,-1556
279,3.121295,0,1,1,1047,2,-1557
280,3.132485,1,-1,-2,1050,-2,-1558
281,3.143679,0,0,0,1046,-3,-1561
282,3.154865,1,0,0,1046,-2,-1557
283,3.166046,0,0,0,1050,-1,-1559
284,3.177234,0,-1,0,1046,-1,-1560
285,3.18843,0,0,0,1047,1,-1564
286,3.199613,0,1,0,1048,-6,-1561
287,3.210804,0,-1,0,1047,0,-1562
288,3.221989,0,0,0,1043,0,-1564
289,3.233169,0,0,0,1045,0,-1555
290,3.244361,0,0,1,1048,0,-1559
291,3.255549,0,0,1,1045,0,-1561
292,3.266759,0,2,0,1049,0,-1564
293,3.277942,0,1,0,1048,0,-1557
294,3.289124,1,1,0,1042,-2,-1562
295,3.30032,1,2,0,1048,1,-1556
296,3.311506,1,1,0,1046,-2,-1560
297,3.32269,0,1,0,1047,-2,-1568
298,3.333874,1,0,0,1048,-3,-1559
299,3.345058,1,2,1,1045,2,-1564
300,3.356242,0,2,1,1044,-2,-1562
301,3.367427,1,2,0,1044,1,-1560
302,3.378618,1,1,0,1044,-4,-1558
303,3.3898,0,0,0,1048,0,-1561
304,3.400986,1,1,1,1047,2,-1559
305,3.412176,0,1,0,1049,1,-1560
306,3.423362,0,0,1,1044,-2,-1559
307,3.434551,0,0,0,1046,-2,-1561
308,3.445736,1,0,0,1045,0,-1559
309,3.456925,0,-1,0,1048,0,-1562
310,3.468113,0,0,1,1044,-2,-1559
311,3.479301,0,-2,1,1048,-2,-1560
312,3.490493,0,0,0,1046,0,-1558
313,3.50168,1,-1,0,1048,0,-1557
314,3.512866,0,0,-1,1046,-1,-1557
315,3.524056,0,1,0,1044,0,-1562
316,3.535243,1,1,0,1046,-1,-1563
317,3.54643,0,0,0,1046,-2,-1565
318,3.557615,0,1,0,1046,2,-1558
319,3.568799,1,2,0,1045,1,-1555
320,3.579988,1,2,0,1048,-3,-1565
321,3.591176,1,0,0,1049,3,-1561
322,3.602363,1,1,0,1048,4,-1566
323,3.613552,0,1,0,1047,2,-1554
324,3.62475,1,-2,0,1047,-2,-1561
325,3.635937,-1,-2,-1,1044,0,-1565
326,3.647121,0,-2,-1,1050,0,-1557
327,3.658315,0,-1,0,1049,-5,-1558
328,3.669498,1,1,0,1045,1,-1553
329,3.680684,1,1,-1,1044,0,-1558
330,3.691866,1,0,0,1046,-3,-1554
331,3.703051,0,0,0,1045,-1,-1560
332,3.714239,1,-1,-1,1046,-2,-1561
333,3.725425,0,0,-1,1044,0,-1559
334,3.736605,0,0,-1,1046,1,-1563
335,3.747801,0,-1,0,1046,0,-1558
336,3.758983,1,0,0,1051,-4,-1562
337,3.770169,0,1,-1,1048,1,-1555
338,3.781355,0,2,-1,1050,3,-1550
339,3.792543,1,2,0,1047,-2,-1561
340,3.803732,0,1,0,1051,-1,-1557
341,3.814917,0,0,0,1046,1,-1562
342,3.826103,0,0,0,1047,0,-1565
343,3.837292,0,1,0,1047,-2,-1558
344,3.848482,0,0,1,1045,1,-1558
345,3.85968,0,1,0,1046,-2,-1560
346,3.870867,0,0,1,1044,0,-1558
347,3.882052,1,0,-1,1046,-2,-1558
348,3.893234,0,-1,0,1047,0,-1559
349,3.904421,0,0,0,1047,0,-1557
350,3.915607,0,-1,1,1049,0,-1557
351,3.92679,1,0,0,1048,-2,-1560
352,3.937976,0,-1,0,1050,-1,-1560
353,3.949162,-1,-2,0,1047,0,-1560
354,3.960364,0,-1,0,1045,0,-1558
355,3.971991,1,0,0,1048,-1,-1564
356,3.983663,0,0,0,1047,3,-1560
357,3.995328,-1,1,1,1051,-1,-1562
358,4.006983,0,0,1,1048,0,-1558
359,4.01868,1,-1,0,1048,2,-1562
360,4.030331,0,0,0,1048,0,-1559
361,4.041986,0,0,0,1046,2,-1559
362,4.053656,0,0,1,1051,-4,-1557
363,4.065326,0,0,1,1046,0,-1559
364,4.077063,-1,0,0,1050,-1,-1562
365,4.088644,-1,0,1,1052,-3,-1553
366,4.100199,0,0,0,1046,5,-1565
367,4.111706,0,0,0,1048,1,-1561
368,4.123253,0,0,-1,1049,0,-1560
369,4.134798,1,0,1,1052,0,-1563
370,4.146343,0,-1,1,1048,-2,-1551
371,4.157888,0,0,0,1046,-3,-1567
372,4.169454,0,0,1,1045,0,-1564
373,4.181081,0,0,0,1046,-1,-1556
374,4.192796,0,0,0,1046,1,-1558
375,4.204481,0,0,0,1051,-2,-1567
376,4.216155,0,0,0,1046,0,-1560
377,4.227849,1,0,0,1050,0,-1558
378,4.239526,0,0,0,1053,3,-1558
379,4.251183,0,0,0,1047,0,-1561
380,4.26283,1,0,0,1050,0,-1560
381,4.274495,1,0,1,1046,0,-1553
382,4.286173,0,0,1,1046,0,-1558
383,4.297735,0,1,0,1044,0,-1558
384,4.309292,0,-1,0,1046,1,-1563
385,4.320878,0,0,0,1051,0,-1556
386,4.332444,0,0,0,1049,0,-1559
387,4.344023,1,0,1,1051,-4,-1556
388,4.355582,0,0,0,1042,-1,-1566
389,4.367137,1,0,0,1045,-1,-1559
390,4.378699,1,0,0,1049,-3,-1562
391,4.390336,0,0,1,1051,0,-1560
392,4.401994,0,0,0,1047,-5,-1554
393,4.413673,1,0,0,1046,-2,-1556
394,4.425324,1,0,-1,1049,0,-1560
395,4.437005,1,0,0,1053,-2,-1562
396,4.44868,0,0,-1,1047,0,-1557
397,4.460361,0,0,0,1050,0,-1556
398,4.471987,0,1,0,1050,-5,-1560
399,4.483671,0,0,1,1046,-3,-1562
400,4.495329,1,0,1,1050,-3,-1565
401,4.506897,1,0,0,1049,-4,-1559
402,4.518494,0,-1,0,1049,1,-1559
403,4.530046,0,0,0,1049,-1,-1563
404,4.541625,1,0,1,1047,1,-1565
405,4.553163,1,0,0,1046,1,-1562
406,4.564675,0,0,0,1050,-1,-1557
407,4.576197,0,0,0,1045,0,-1565
408,4.587727,0,0,0,1045,1,-1558
409,4.59935,0,0,0,1045,0,-1564
410,4.611009,0,0,0,1051,0,-1559
411,4.622686,0,0,0,1048,-2,-1564
412,4.634344,-1,0,0,1050,2,-1560
413,4.645992,0,0,0,1044,0,-1559
414,4.657642,1,-1,1,1047,0,-1555
415,4.669322,0,0,0,1045,-4,-1558
416,4.681006,1,0,0,1044,0,-1558
417,4.692695,0,0,0,1048,1,-1560
418,4.704349,0,0,0,1049,0,-1558
419,4.715956,0,1,0,1051,2,-1557
420,4.72751,0,1,0,1046,0,-1558
421,4.739092,1,1,0,1046,0,-1556
422,4.750646,0,-1,1,1049,0,-1560
423,4.76221,0,0,0,1045,-1,-1554
424,4.77376,0,-1,0,1049,2,-1560
425,4.785331,0,-1,0,1047,2,-1566
426,4.79692,0,0,1,1050,-1,-1558
427,4.808555,-1,1,0,1048,-3,-1557
428,4.820233,0,1,0,1043,-1,-1560
429,4.831898,1,0,0,1047,-1,-1554
430,4.843582,1,0,0,1050,0,-1562
431,4.855229,0,-1,0,1046,0,-1558
432,4.86691,0,0,0,1046,0,-1558
433,4.878567,1,1,0,1045,-1,-1566
434,4.890214,1,0,0,1046,0,-1557
435,4.901877,1,0,1,1048,0,-1565
436,4.913538,1,0,0,1048,-3,-1560
437,4.925123,0,1,0,1046,-2,-1556
438,4.936686,0,0,0,1047,3,-1553
439,4.948258,0,0,0,1048,1,-1564
440,4.959801,1,0,1,1045,-2,-1561
441,4.971354,0,0,1,1040,4,-1557
442,4.982902,1,0,0,1048,-1,-1559
443,4.994445,1,0,1,1046,2,-1565
444,5.006015,0,-1,0,1048,1,-1555
445,5.017726,0,0,0,1048,0,-1559
446,5.029385,0,0,1,1046,2,-1560
447,5.04106,0,0,1,1047,4,-1562
448,5.052732,0,0,1,1050,0,-1556
449,5.064419,0,0,0,1048,0,-1555
450,5.076097,0,0,0,1052,-3,-1562
451,5.08787,1,-1,1,1043,-2,-1558
452,5.099544,0,0,1,1045,2,-1560
453,5.1112,1,0,1,1049,-3,-1566
454,5.122888,1,0,0,1043,-1,-1564
455,5.134478,0,0,0,1047,-2,-1565
456,5.146023,0,0,0,1047,0,-1562
457,5.157587,0,0,0,1044,-1,-1556
458,5.169157,1,1,1,1046,0,-1562
459,5.180681,0,1,0,1047,2,-1561
460,5.192201,1,0,0,1048,-3,-1564
461,5.203716,0,0,0,1047,-2,-1563
462,5.215282,1,0,1,1047,1,-1563
463,5.226975,0,0,0,1052,0,-1557
464,5.238653,1,0,0,1046,-1,-1566
465,5.250306,1,-1,0,1046,-1,-1561
466,5.261959,0,0,0,1045,0,-1556
467,5.273629,0,0,0,1049,-3,-1560
468,5.285291,0,0,0,1048,0,-1561
469,5.29695,0,0,1,1049,0,-1555
470,5.308623,0,0,0,1046,0,-1567
471,5.320259,1,1,0,1048,-3,-1559
472,5.331919,0,0,0,1051,-4,-1557
473,5.343489,1,0,0,1049,-1,-1558
474,5.355049,0,1,0,1040,0,-1561
475,5.366623,0,0,0,1047,-1,-1563
476,5.378193,0,1,0,1046,0,-1562
477,5.389755,1,0,0,1048,1,-1556
478,5.401308,1,0,0,1049,1,-1557
479,5.412879,0,0,0,1048,1,-1556
480,5.424452,0,0,0,1048,0,-1567
481,5.436104,0,0,0,1046,0,-1561
482,5.447729,0,1,0,1050,0,-1563
483,5.459429,0,0,1,1046,1,-1563
484,5.471083,0,1,1,1047,0,-1554
485,5.482726,1,0,0,1051,0,-1563
486,5.494419,0,0,0,1047,-1,-1559
487,5.506076,1,0,0,1051,0,-1553
488,5.517728,0,0,0,1052,-2,-1560
489,5.529416,0,0,0,1044,-1,-1557
490,5.541073,0,0,0,1050,0,-1559
491,5.552667,0,0,0,1042,0,-1561
492,5.5642,1,1,0,1047,2,-1559
493,5.575713,0,1,0,1051,-1,-1569
494,5.587262,0,0,0,1049,-5,-1565
495,5.598846,0,-1,0,1049,0,-1563
496,5.610398,0,-1,0,1051,-1,-1562
497,5.621976,-1,0,1,1044,3,-1559
498,5.633533,1,0,0,1044,0,-1560
499,5.645184,0,0,1,1046,1,-1552
500,5.656904,0,0,0,1048,-5,-1562
501,5.668582,1,0,0,1050,3,-1562
502,5.680282,1,0,0,1048,0,-1563
503,5.691958,1,0,0,1045,1,-1555
504,5.703608,0,0,0,1048,-3,-1563
505,5.715299,0,0,0,1049,-2,-1557
506,5.726945,1,0,0,1049,-1,-1556
507,5.738613,1,0,0,1043,0,-1561
508,5.750285,1,0,0,1048,0,-1562
509,5.761865,1,0,1,1050,0,-1562
510,5.773415,0,0,1,1047,-4,-1552
511,5.785,0,0,0,1048,1,-1561
512,5.796573,0,0,1,1046,0,-1562
513,5.808153,1,0,0,1045,1,-1562
514,5.819716,1,0,0,1049,1,-1558
515,5.8313,-1,0,0,1050,0,-1557
516,5.842879,0,1,1,1051,0,-1559
517,5.854544,0,0,0,1046,0,-1560
518,5.866228,0,0,0,1048,-1,-1551
519,5.877901,0,0,-1,1047,-2,-1557
520,5.889558,0,0,0,1046,0,-1561
521,5.901237,1,0,0,1044,-1,-1561
522,5.912919,1,0,0,1046,-2,-1561
523,5.924574,0,0,1,1047,0,-1561
524,5.936281,0,0,0,1048,-2,-1565
525,5.947972,0,0,1,1049,0,-1553
526,5.959667,0,0,0,1048,0,-1565
527,5.971231,1,1,0,1048,0,-1560
528,5.982782,-1,-1,-1,1044,-4,-1558
529,5.994357,0,-1,0,1045,-1,-1560
530,6.005908,0,0,0,1051,2,-1555
531,6.017481,0,0,1,1049,-3,-1560
532,6.02905,0,0,0,1047,-2,-1565
533,6.040627,1,0,0,1046,1,-1558
534,6.052209,0,0,0,1050,-1,-1556
535,6.063849,1,0,0,1047,-2,-1560
536,6.075521,1,0,0,1046,0,-1562
537,6.087181,1,0,0,1045,0,-1559
538,6.098834,1,0,-1,1048,0,-1558
539,6.110507,0,0,0,1048,-1,-1554
540,6.122154,0,0,0,1046,2,-1561
541,6.133804,0,1,0,1047,-1,-1560
542,6.145457,0,0,0,1045,2,-1563
543,6.157173,0,0,0,1048,-3,-1557
544,6.168829,0,-1,0,1046,-1,-1561
545,6.18052,1,0,0,1045,-4,-1562
546,6.192172,0,0,0,1046,-1,-1562
547,6.203879,0,0,0,1047,0,-1561
548,6.215535,1,0,1,1049,-2,-1561
549,6.227185,0,1,0,1048,-4,-1559
550,6.238847,1,0,1,1045,0,-1558
551,6.250524,0,0,0,1047,-5,-1559
552,6.262205,0,0,0,1047,-2,-1562
553,6.273878,0,0,0,1044,-4,-1559
554,6.285541,1,0,0,1047,-1,-1559
555,6.297195,-1,0,0,1045,0,-1559
556,6.308868,0,0,0,1047,-1,-1557
557,6.320505,0,0,0,1047,-1,-1563
558,6.332174,0,0,0,1049,0,-1550
559,6.343837,0,0,0,1046,2,-1560
560,6.355486,0,1,0,1047,2,-1559
561,6.367187,0,0,0,1048,0,-1556
562,6.378838,0,1,0,1044,0,-1558
563,6.390485,0,0,0,1047,0,-1560
564,6.402161,0,0,0,1047,0,-1553
565,6.4138,0,0,-1,1046,1,-1562
566,6.425446,0,0,0,1047,-2,-1565
567,6.437145,1,0,0,1050,0,-1560
568,6.448803,0,0,-1,1048,-4,-1557
569,6.460478,0,0,0,1047,-4,-1560
570,6.472173,0,0,1,1048,-4,-1564
571,6.483848,0,0,0,1048,0,-1557
572,6.495416,0,-1,0,1044,1,-1554
573,6.506978,0,-1,0,1046,0,-1561
574,6.518537,0,0,0,1048,0,-1563
575,6.530112,1,0,0,1047,1,-1552
576,6.541668,1,-1,0,1044,0,-1561
577,6.553227,0,0,0,1046,0,-1559
578,6.564799,0,0,0,1045,-1,-1560
579,6.576395,0,0,0,1047,0,-1561
580,6.588044,0,0,0,1047,-4,-1556
581,6.599719,0,-1,0,1052,2,-1558
582,6.61139,0,0,0,1050,-1,-1563
583,6.623049,1,0,-1,1049,0,-1563
584,6.634703,0,0,0,1047,-1,-1561
585,6.64635,0,-1,0,1048,1,-1560
586,6.658,0,0,0,1051,-2,-1553
587,6.669668,0,0,0,1048,-6,-1560
588,6.681334,0,1,0,1050,-2,-1560
589,6.693017,0,0,0,1047,-3,-1559
590,6.704619,0,0,0,1045,-3,-1558
591,6.71619,0,0,1,1050,-1,-1564
592,6.727715,0,0,0,1047,0,-1560
593,6.739275,0,0,0,1051,1,-1564
594,6.750837,0,0,0,1047,-3,-1562
595,6.762384,0,0,0,1050,1,-1564
596,6.773963,0,-1,1,1052,0,-1559
597,6.785526,1,1,1,1048,0,-1556
598,6.797177,0,0,0,1048,0,-1561
599,6.808838,1,0,0,1046,1,-1560
600,6.820519,0,0,0,1048,0,-1557
601,6.832199,0,1,1,1046,0,-1561
602,6.843882,1,1,0,1050,3,-1563
603,6.855543,0,0,0,1049,-1,-1555
604,6.867194,1,0,0,1049,0,-1560
605,6.878856,0,0,1,1048,-3,-1562
606,6.890533,0,0,0,1051,0,-1562
607,6.902184,1,-1,0,1046,0,-1559
608,6.91383,0,0,0,1047,0,-1557
609,6.925484,0,0,0,1050,-4,-1562
610,6.937185,0,0,0,1046,-3,-1560
611,6.94889,0,0,0,1047,-2,-1554
612,6.960548,0,0,0,1049,-2,-1558
613,6.972221,0,-1,0,1045,-1,-1560
614,6.983918,1,0,0,1045,0,-1559
615,6.995596,0,0,0,1048,0,-1556
616,7.007245,1,0,0,1045,-3,-1555
617,7.018913,0,0,0,1044,-1,-1565
618,7.030559,0,0,0,1052,0,-1559
619,7.042206,0,0,0,1049,-3,-1562
620,7.053875,1,0,0,1052,2,-1556
621,7.065567,0,0,0,1046,0,-1558
622,7.077247,0,0,1,1046,-4,-1562
623,7.08892,0,0,0,1050,-1,-1561
624,7.100587,1,1,0,1048,-3,-1556
625,7.112277,0,0,0,1050,1,-1555
626,7.123862,0,0,0,1050,-2,-1563
627,7.135419,0,0,1,1049,-2,-1564
628,7.146985,0,0,0,1050,-2,-1563
629,7.15853,0,0,-1,1047,0,-1558
630,7.170075,0,0,0,1048,1,-1559
631,7.181627,1,-1,0,1049,0,-1564
632,7.19317,0,1,0,1047,3,-1558
633,7.204739,0,0,0,1045,-1,-1559
634,7.2164,0,1,0,1048,0,-1559
635,7.228061,1,0,0,1047,2,-1557
636,7.239728,0,0,1,1049,0,-1567
637,7.251373,0,0,0,1050,2,-1561
638,7.263032,0,0,1,1046,2,-1560
639,7.274685,0,-1,0,1049,2,-1562
640,7.286331,1,0,0,1050,0,-1562
641,7.297978,1,0,1,1047,0,-1562
642,7.309679,1,-1,1,1047,-1,-1559
643,7.321339,1,0,0,1050,0,-1563
644,7.332971,0,0,1,1048,-3,-1564
645,7.344526,0,1,0,1048,0,-1560
646,7.356126,1,1,0,1047,-1,-1564
647,7.367671,0,0,0,1049,-4,-1562
648,7.379218,0,-1,1,1047,-1,-1562
649,7.390761,0,0,0,1049,-4,-1557
650,7.402305,0,0,0,1049,-2,-1557
651,7.413858,-1,0,0,1048,-2,-1558
652,7.425511,1,0,0,1048,-2,-1554
653,7.437171,1,-1,0,1047,6,-1558
654,7.448834,0,-1,0,1050,-1,-1562
655,7.460511,0,-1,0,1048,0,-1558
656,7.472183,0,0,0,1048,-3,-1557
657,7.483862,0,0,0,1045,0,-1551
658,7.495517,0,0,0,1045,2,-1558
659,7.507168,0,0,0,1048,0,-1563
660,7.518836,1,0,0,1045,4,-1557
661,7.530487,0,0,0,1045,-3,-1558
662,7.542079,0,1,0,1048,0,-1560
663,7.553636,0,0,0,1046,-1,-1560
664,7.565221,0,0,0,1047,1,-1561
665,7.576824,0,1,0,1045,0,-1555
666,7.588382,0,1,1,1047,0,-1555
667,7.599966,0,0,0,1046,-1,-1560
668,7.611511,0,0,0,1047,2,-1557
669,7.623061,0,-1,0,1045,1,-1561
670,7.63473,1,-1,0,1046,-1,-1564
671,7.646386,1,0,0,1049,-1,-1562
672,7.658041,0,0,0,1049,0,-1558
673,7.669693,0,0,0,1044,-3,-1558
674,7.681367,0,0,0,1050,-2,-1563
675,7.693024,1,-1,1,1043,-2,-1556
676,7.704682,-1,0,0,1046,-5,-1557
677,7.716372,0,0,1,1044,-3,-1561
678,7.728066,0,1,0,1051,-4,-1559
679,7.739721,0,0,0,1049,1,-1563
680,7.751286,0,-1,0,1050,0,-1560
681,7.762858,0,0,0,1044,0,-1552
682,7.774402,0,0,0,1046,-3,-1558
683,7.785955,0,0,0,1046,-2,-1563
684,7.797513,0,0,0,1047,3,-1561
685,7.809105,0,0,0,1046,3,-1557
686,7.820693,0,0,0,1047,0,-1557
687,7.832271,0,0,1,1046,-2,-1555
688,7.84386,-1,0,0,1046,2,-1561
689,7.855453,0,0,0,1047,0,-1559
690,7.867004,0,0,0,1043,0,-1557
691,7.878571,0,0,1,1046,1,-1560
692,7.89011,0,0,0,1049,-5,-1556
693,7.901655,0,0,0,1048,-5,-1557
694,7.913204,1,0,0,1051,-1,-1560
695,7.924767,0,1,0,1048,-2,-1563
696,7.936445,0,0,0,1047,-2,-1551
697,7.948108,0,1,-1,1047,0,-1565
698,7.959778,1,0,0,1047,2,-1557
699,7.971427,0,0,1,1048,0,-1562
700,7.983078,1,0,0,1040,-1,-1557
701,7.994745,0,0,0,1047,0,-1562
702,8.006395,0,0,0,1046,1,-1562
703,8.018041,0,0,0,1047,-2,-1562
704,8.029692,0,-1,0,1045,3,-1565
705,8.041348,0,-1,0,1042,0,-1556
706,8.053053,0,0,0,1047,0,-1561
707,8.064618,0,1,0,1045,-5,-1555
708,8.076196,0,0,0,1048,-1,-1563
709,8.087784,0,0,1,1045,0,-1559
710,8.099353,1,0,0,1045,0,-1565
711,8.110902,1,0,-1,1049,-1,-1561
712,8.122478,0,0,1,1043,2,-1559
713,8.134023,1,-1,1,1046,-3,-1560
714,8.145588,0,0,0,1050,-1,-1562
715,8.157296,0,1,0,1047,0,-1558
716,8.168962,0,0,-1,1048,0,-1556
717,8.180661,0,1,0,1046,1,-1561
718,8.192322,1,0,0,1049,3,-1563
719,8.203987,0,0,-1,1052,0,-1561
720,8.215663,0,-1,0,1049,2,-1559
721,8.227321,0,-1,1,1050,1,-1562
722,8.238966,1,0,1,1047,1,-1557
723,8.25066,1,1,1,1046,3,-1555
724,8.262332,0,0,0,1045,-8,-1558
725,8.273886,0,0,0,1044,-1,-1558
726,8.285437,0,1,0,1044,-1,-1564
727,8.296993,0,0,0,1047,-2,-1560
728,8.308581,0,1,0,1047,-2,-1559
729,8.320149,0,1,0,1047,0,-1561
730,8.331723,0,0,0,1042,-1,-1552
731,8.343272,0,0,0,1050,0,-1560
732,8.354852,0,0,0,1047,-2,-1556
733,8.366526,0,1,0,1046,-2,-1550
734,8.378186,-1,0,0,1045,3,-1564
735,8.389846,0,0,0,1045,0,-1555
736,8.401502,0,0,-1,1050,2,-1559
737,8.413196,1,1,0,1041,0,-1560
738,8.424899,1,-1,1,1050,-3,-1560
739,8.436566,1,0,1,1046,0,-1560
740,8.448261,0,0,0,1050,1,-1564
741,8.459945,0,0,0,1045,0,-1558
742,8.471651,0,0,0,1045,-1,-1558
743,8.483212,0,0,1,1046,0,-1556
744,8.494762,0,0,0,1051,-4,-1558
745,8.506343,1,0,1,1045,0,-1557
746,8.517894,1,-1,0,1049,-2,-1559
747,8.529467,0,-1,0,1051,-2,-1557
748,8.541038,0,-1,-1,1045,1,-1564
749,8.552597,0,0,0,1047,2,-1557
750,8.564155,0,0,0,1046,0,-1557
751,8.575805,1,0,0,1048,-2,-1563
752,8.587459,0,0,0,1049,-1,-1555
753,8.599123,0,0,1,1042,0,-1564
754,8.610784,0,0,0,1049,2,-1552
755,8.622441,0,0,0,1044,-3,-1563
756,8.634086,0,0,1,1051,1,-1563
757,8.645731,0,0,1,1048,-1,-1561
758,8.657411,0,-1,0,1048,2,-1555
759,8.669082,1,0,0,1050,-4,-1562
760,8.68077,0,0,0,1045,0,-1566
761,8.692435,1,1,0,1051,-1,-1562
762,8.704109,0,-1,0,1047,2,-1565
763,8.715769,1,0,0,1047,-1,-1556
764,8.727423,0,0,0,1046,-3,-1559
765,8.739067,0,0,0,1048,0,-1558
766,8.750715,0,0,1,1047,0,-1564
767,8.762389,0,-1,1,1048,2,-1556
768,8.774065,0,0,0,1044,0,-1562
769,8.785757,0,0,0,1048,0,-1560
770,8.797418,1,0,0,1048,-1,-1559
771,8.809071,0,0,1,1048,-2,-1560
772,8.820773,0,0,0,1048,0,-1559
773,8.832446,0,0,0,1048,-1,-1557
774,8.844127,0,0,0,1043,-1,-1565
775,8.855789,0,0,1,1047,4,-1557
776,8.867444,0,0,0,1051,0,-1561
777,8.879116,-1,0,0,1043,-3,-1559
778,8.890728,0,-1,0,1049,2,-1559
779,8.902281,0,0,0,1047,0,-1562
780,8.913843,0,0,0,1046,-5,-1564
781,8.925388,1,0,0,1048,-3,-1550
782,8.936927,0,-1,0,1047,0,-1556
783,8.948487,0,0,1,1047,1,-1559
784,8.960035,-1,1,-1,1048,-1,-1560
785,8.971582,0,0,0,1047,0,-1557
786,8.983154,0,0,1,1047,0,-1560
787,8.994785,1,0,-1,1050,-3,-1561
788,9.006447,0,0,0,1049,0,-1554
789,9.018112,1,0,-1,1044,-1,-1561
790,9.029773,0,0,-1,1050,1,-1560
791,9.041426,1,0,1,1044,0,-1555
792,9.053096,0,0,1,1048,-3,-1562
793,9.064757,1,1,0,1051,3,-1565
794,9.076446,0,0,0,1049,-1,-1560
795,9.088172,1,0,0,1044,-1,-1556
796,9.099865,0,0,0,1050,0,-1554
797,9.111555,0,0,0,1049,-2,-1561
798,9.1232,0,0,1,1047,0,-1565
799,9.134882,-1,0,0,1045,0,-1553
800,9.146535,0,0,0,1046,3,-1554
801,9.15821,0,0,0,1047,-1,-1563
802,9.169863,1,0,0,1052,0,-1562
803,9.181547,0,0,0,1046,2,-1553
804,9.193199,0,0,0,1045,0,-1557
805,9.204911,0,0,1,1050,-1,-1560
806,9.21647,0,0,1,1048,-2,-1562
807,9.228025,0,0,0,1050,-3,-1556
808,9.239572,0,0,1,1047,-1,-1561
809,9.251122,0,0,0,1045,0,-1558
810,9.262666,0,0,-1,1049,-2,-1564
811,9.274216,0,0,0,1042,-1,-1560
812,9.285769,1,1,0,1044,3,-1563
813,9.29735,1,0,1,1046,0,-1564
814,9.309042,0,1,0,1048,-1,-1564
815,9.320779,1,0,0,1048,0,-1564
816,9.332432,0,0,0,1047,-1,-1553
817,9.344125,0,1,0,1045,0,-1561
818,9.355862,0,0,0,1043,0,-1558
819,9.36754,0,0,0,1051,1,-1559
820,9.379202,1,0,0,1047,0,-1563
821,9.390888,1,0,0,1050,0,-1562
822,9.402561,1,0,0,1045,-1,-1559
823,9.414241,0,1,0,1045,0,-1561
824,9.425829,1,0,1,1049,-2,-1561
825,9.437377,0,1,0,1046,-1,-1560
826,9.448929,0,-1,0,1046,2,-1557
827,9.460488,0,-1,0,1049,-2,-1559
828,9.472038,0,0,0,1046,5,-1561
829,9.483589,0,0,0,1046,-1,-1562
830,9.495147,0,0,0,1049,0,-1556
831,9.50674,0,0,0,1044,-1,-1563
832,9.518382,0,0,1,1047,0,-1562
833,9.530072,0,-1,0,1044,0,-1558
834,9.541714,0,1,1,1050,3,-1560
835,9.553391,0,0,0,1047,1,-1557
836,9.565031,0,-1,0,1050,1,-1554
837,9.576696,0,0,0,1046,0,-1559
838,9.588391,0,0,0,1048,0,-1560
839,9.600054,0,1,0,1045,0,-1559
840,9.611737,0,0,0,1047,0,-1556
841,9.623393,1,0,0,1050,0,-1559
842,9.634956,0,0,0,1047,-2,-1560
843,9.646512,-1,0,0,1050,2,-1556
844,9.658067,0,1,0,1045,0,-1557
845,9.669637,0,0,0,1060,-2,-1553
846,9.681223,0,0,0,1048,1,-1559
847,9.692825,0,1,0,1048,4,-1557
848,9.70438,0,0,1,1046,-2,-1559
849,9.715962,0,1,0,1046,-3,-1566
850,9.727589,-1,0,0,1046,0,-1558
851,9.739249,0,0,0,1042,0,-1555
852,9.750904,0,0,0,1052,0,-1562
853,9.762561,0,1,0,1048,0,-1559
854,9.774209,0,0,0,1048,5,-1556
855,9.785861,0,0,0,1047,2,-1558
856,9.797553,0,1,0,1048,1,-1555
857,9.809246,1,1,0,1050,0,-1561
858,9.820919,0,0,0,1046,-3,-1560
859,9.832466,0,1,0,1045,0,-1561
860,9.844022,0,1,0,1048,0,-1560
861,9.855576,1,0,1,1046,1,-1555
862,9.867127,1,0,1,1046,0,-1560
863,9.87871,0,0,0,1048,0,-1559
864,9.890255,0,1,0,1049,0,-1568
865,9.901836,1,0,0,1052,0,-1558
866,9.913382,0,0,0,1048,0,-1565
867,9.924939,1,0,0,1046,-2,-1559
868,9.936568,0,0,0,1048,-2,-1555
869,9.948274,0,0,0,1049,1,-1564
870,9.959972,0,0,-1,1046,0,-1555
871,9.971649,0,0,0,1047,0,-1554
872,9.983301,1,0,0,1045,-2,-1561
873,9.99496,0,1,0,1045,6,-1554
874,10.006618,0,0,0,1050,-2,-1560
875,10.018266,0,0,0,1048,-3,-1556
876,10.029936,1,-1,0,1045,-1,-1562
877,10.041619,0,0,0,1046,-1,-1559
878,10.05319,0,0,1,1048,2,-1560
879,10.064751,1,-1,0,1047,0,-1553
880,10.076335,0,-2,0,1049,0,-1562
881,10.087886,1,0,0,1046,-3,-1566
882,10.099454,1,0,0,1046,0,-1565
883,10.110994,1,0,0,1043,1,-1561
884,10.122537,0,0,1,1045,-3,-1564
885,10.13413,0,0,1,1048,-1,-1556
886,10.145764,0,0,1,1048,0,-1562
887,10.157422,0,0,0,1048,0,-1564
888,10.169098,0,0,0,1047,0,-1563
889,10.180761,1,0,0,1051,0,-1560
890,10.192455,0,0,1,1046,0,-1561
891,10.20413,0,0,0,1045,4,-1563
892,10.215784,1,0,0,1046,-2,-1558
893,10.227432,0,0,0,1046,5,-1554
894,10.239106,0,0,0,1048,0,-1555
895,10.250758,1,1,0,1046,-2,-1564
896,10.26234,1,1,0,1044,-1,-1558
897,10.273955,0,0,0,1049,-1,-1561
898,10.285511,0,0,0,1046,1,-1563
899,10.297087,1,-1,0,1047,-1,-1558
900,10.308661,0,0,0,1047,3,-1562
901,10.320222,0,0,1,1046,-4,-1557
902,10.331775,0,0,0,1046,-2,-1557
903,10.343333,0,0,1,1047,-1,-1563
904,10.354997,0,-1,0,1045,-2,-1562
905,10.366654,0,0,0,1047,0,-1560
906,10.378315,0,0,1,1044,-2,-1562
907,10.389993,0,-1,1,1045,0,-1558
908,10.401655,0,0,0,1049,-6,-1559
909,10.41331,0,0,1,1043,0,-1554
910,10.42502,0,0,0,1045,-3,-1555
911,10.436673,0,0,0,1045,-1,-1563
912,10.448366,0,0,0,1049,-1,-1558
913,10.459941,0,0,0,1050,-2,-1555
914,10.471493,0,0,0,1050,0,-1563
915,10.483061,0,0,1,1046,-2,-1561
916,10.494621,1,0,0,1048,-5,-1563
917,10.506225,0,0,-1,1045,-1,-1558
918,10.517794,0,0,-1,1047,2,-1558
919,10.529342,1,0,-1,1048,5,-1561
920,10.540921,0,0,0,1047,-5,-1559
921,10.552491,0,-1,-1,1047,0,-1556
922,10.564152,0,0,0,1043,-4,-1568
923,10.575808,0,0,0,1044,0,-1558
924,10.587486,0,1,0,1049,-1,-1560
925,10.599133,0,-1,-1,1048,0,-1562
926,10.610788,0,0,1,1047,0,-1562
927,10.622451,0,0,0,1048,-5,-1559
928,10.634155,0,0,0,1049,-1,-1559
929,10.645842,0,0,0,1049,0,-1559
930,10.657509,1,0,-1,1048,-2,-1561
931,10.669081,0,0,0,1050,-1,-1559
932,10.680716,0,0,1,1048,-3,-1555
933,10.6923,0,0,-1,1048,0,-1556
934,10.703872,0,-1,-1,1044,1,-1562
935,10.715462,0,0,-1,1049,0,-1561
936,10.727018,0,0,0,1049,-2,-1561
937,10.738587,0,0,1,1044,-2,-1562
938,10.75019,0,1,0,1049,0,-1564
939,10.761816,0,0,-1,1045,-3,-1563
940,10.773496,0,0,0,1050,-3,-1555
941,10.78515,1,0,0,1047,0,-1562
942,10.796813,1,1,1,1047,-1,-1558
943,10.808498,0,0,0,1046,0,-1559
944,10.82015,0,0,0,1042,-1,-1558
945,10.831801,0,0,-1,1048,-5,-1561
946,10.843477,0,0,0,1045,-1,-1557
947,10.855131,1,0,-1,1044,0,-1563
948,10.866778,0,1,0,1048,1,-1552
949,10.878432,0,-1,0,1044,-1,-1551
950,10.890072,1,0,0,1048,-2,-1560
951,10.901734,0,0,0,1050,0,-1559
952,10.913386,1,1,1,1048,-1,-1561
953,10.925016,1,-1,0,1048,-1,-1562
954,10.936677,0,0,0,1045,0,-1563
955,10.948362,0,0,0,1048,0,-1553
956,10.960004,1,0,1,1046,-2,-1558
957,10.971658,1,0,0,1046,-2,-1559
958,10.983299,0,-1,1,1046,2,-1560
959,10.994944,0,0,-1,1050,1,-1557
960,11.006637,0,0,0,1043,-2,-1563
961,11.018286,0,0,1,1046,-1,-1560
962,11.029935,0,0,0,1047,-1,-1563
963,11.041641,0,0,0,1052,0,-1561
964,11.05331,0,1,0,1048,-2,-1554
965,11.064989,1,1,0,1045,-1,-1560
966,11.076563,0,0,0,1045,0,-1556
967,11.088113,1,0,0,1049,-2,-1557
968,11.099657,0,0,0,1046,0,-1556
969,11.111204,0,0,0,1047,-1,-1562
970,11.122773,0,0,1,1043,0,-1561
971,11.13433,0,0,0,1046,0,-1552
972,11.145882,1,0,0,1048,-1,-1560
973,11.157461,0,0,0,1050,2,-1559
974,11.169083,0,0,0,1043,0,-1562
975,11.180734,0,0,0,1048,-5,-1554
976,11.192395,0,1,1,1046,0,-1563
977,11.204055,1,1,0,1046,0,-1563
978,11.215751,0,1,0,1052,0,-1557
979,11.227397,1,0,0,1048,-1,-1562
980,11.239051,0,0,0,1049,-2,-1562
981,11.250745,0,0,0,1048,-1,-1558
982,11.262387,1,-1,0,1042,1,-1560
983,11.27405,0,0,0,1048,0,-1561
984,11.28571,0,0,0,1049,0,-1559
985,11.297274,1,1,1,1052,2,-1557
986,11.308834,1,0,1,1046,-2,-1560
987,11.320383,0,0,1,1047,-1,-1558
988,11.331949,0,0,0,1050,-5,-1564
989,11.3435,0,0,0,1046,3,-1563
990,11.355067,1,1,-1,1047,0,-1553
991,11.366625,0,0,0,1052,0,-1556
992,11.378239,0,-1,0,1046,0,-1549
993,11.389877,0,-1,1,1047,0,-1561
994,11.401545,0,-1,0,1050,-3,-1556
995,11.413233,0,0,0,1049,-3,-1560
996,11.42492,0,-1,1,1047,1,-1559
997,11.43661,0,0,0,1047,-2,-1555
998,11.448244,1,0,0,1047,2,-1561
999,11.4599,0,0,0,1048,0,-1562
1000,11.471553,0,0,0,1047,-1,-1555
1001,11.483241,0,0,0,1050,-3,-1557
1002,11.494908,1,1,0,1049,-6,-1560
1003,11.50648,0,0,0,1051,-3,-1565
1004,11.518065,0,1,0,1047,0,-1567
1005,11.529616,0,0,1,1050,3,-1559
1006,11.541194,0,0,0,1046,2,-1558
1007,11.55274,0,0,0,1045,3,-1559
1008,11.564284,0,0,0,1045,0,-1556
1009,11.575846,1,0,1,1050,-2,-1559
1010,11.587401,0,0,0,1047,-4,-1561
1011,11.599063,0,0,1,1047,-1,-1562
1012,11.610741,0,1,0,1049,-3,-1554
1013,11.622394,1,0,-1,1048,-3,-1565
1014,11.634052,1,-1,1,1044,-1,-1562
1015,11.645716,1,-1,0,1049,-2,-1554
1016,11.657379,0,0,0,1044,-2,-1558
1017,11.669016,0,0,-1,1044,-3,-1558
1018,11.680671,1,0,0,1048,0,-1563
1019,11.692376,1,0,0,1048,1,-1555
1020,11.704027,0,0,0,1043,0,-1550
1021,11.715589,1,0,0,1046,1,-1560
1022,11.727199,0,0,1,1048,-2,-1565
1023,11.738758,1,0,1,1048,0,-1560
1024,11.750344,0,0,1,1045,-3,-1564
1025,11.761892,0,0,0,1048,1,-1561
1026,11.773446,0,1,0,1045,-1,-1558
1027,11.785003,0,1,0,1048,0,-1557
1028,11.796599,0,0,0,1045,1,-1561
1029,11.808245,0,0,0,1047,0,-1561
1030,11.819906,0,0,0,1049,-2,-1555
1031,11.831574,0,0,-1,1047,1,-1563
1032,11.843236,1,0,0,1048,-4,-1561
1033,11.854894,0,0,1,1051,0,-1560
1034,11.866554,1,0,0,1048,-3,-1565
1035,11.878204,1,0,1,1050,-1,-1564
1036,11.889858,0,1,-1,1045,-3,-1562
1037,11.901541,0,0,0,1050,-6,-1556
1038,11.913197,0,1,0,1047,-1,-1563
1039,11.924886,0,0,-1,1046,-3,-1567
1040,11.936553,1,-1,0,1046,0,-1557
1041,11.948258,0,0,0,1047,-1,-1567
1042,11.959914,1,0,0,1048,-1,-1558
1043,11.971573,0,0,0,1049,0,-1559
1044,11.983268,0,0,1,1051,-4,-1557
1045,11.994915,0,0,0,1045,-2,-1561
1046,12.00666,0,0,0,1045,-5,-1561
1047,12.018343,0,1,0,1050,-5,-1561
1048,12.029902,1,0,-1,1045,-1,-1555
1049,12.041454,0,0,0,1047,2,-1555
1050,12.053009,0,0,0,1045,-2,-1557
1051,12.064577,0,0,1,1046,1,-1560
1052,12.076215,1,0,0,1045,0,-1559
1053,12.087787,1,0,0,1046,0,-1565
1054,12.099332,0,0,0,1046,0,-1560
1055,12.11091,1,1,0,1047,-4,-1562
1056,12.122533,0,0,0,1045,-1,-1558
1057,12.134185,0,1,1,1051,0,-1558
1058,12.145835,0,0,0,1048,0,-1561
1059,12.157518,0,0,0,1050,-2,-1557
1060,12.169183,0,0,0,1048,-1,-1563
1061,12.180883,0,0,0,1047,2,-1557
1062,12.192544,0,0,0,1047,0,-1564
1063,12.204229,1,0,0,1047,0,-1561
1064,12.215907,0,0,0,1050,-1,-1559
1065,12.227577,0,0,1,1047,0,-1559
1066,12.239141,1,1,1,1049,1,-1566
1067,12.250692,1,0,0,1047,-3,-1560
1068,12.262238,0,0,0,1049,-1,-1557
1069,12.273781,0,0,0,1044,-2,-1565
1070,12.285328,0,1,0,1047,-3,-1566
1071,12.296949,0,0,0,1050,-1,-1561
1072,12.308505,0,0,0,1045,-2,-1561
1073,12.320093,0,0,1,1046,0,-1563
1074,12.331739,0,-1,1,1049,0,-1559
1075,12.343389,0,0,0,1045,4,-1566
1076,12.355046,0,0,0,1048,-3,-1552
1077,12.366744,1,1,1,1048,-2,-1563
1078,12.378386,0,-1,0,1048,0,-1558
1079,12.390028,1,-1,0,1046,0,-1558
1080,12.401734,1,-1,1,1046,0,-1563
1081,12.413521,0,0,0,1045,-2,-1561
1082,12.425195,0,0,0,1047,0,-1554
1083,12.436905,1,-1,0,1044,2,-1564
1084,12.44845,0,-1,1,1048,0,-1554
1085,12.460005,1,0,1,1046,-1,-1558
1086,12.47156,1,-1,1,1045,0,-1560
1087,12.483142,1,-1,1,1046,0,-1559
1088,12.494696,0,0,0,1050,-1,-1562
1089,12.506261,0,-1,1,1048,-1,-1557
1090,12.517825,0,0,0,1046,0,-1558
1091,12.52938,1,0,0,1047,0,-1557
1092,12.541034,0,0,0,1049,0,-1557
1093,12.552709,0,0,1,1047,0,-1558
1094,12.564364,1,0,0,1051,0,-1561
1095,12.575992,0,1,0,1050,2,-1557
1096,12.587645,0,0,0,1047,0,-1562
1097,12.59929,1,0,0,1049,-2,-1560
1098,12.610937,1,-1,1,1048,1,-1559
1099,12.62261,0,0,0,1048,1,-1556
1100,12.634274,0,0,1,1047,0,-1559
1101,12.645928,0,0,0,1046,2,-1560
1102,12.657638,0,1,1,1050,-1,-1560
1103,12.669283,0,1,0,1049,1,-1561
1104,12.680936,1,0,0,1048,0,-1562
1105,12.692617,0,1,0,1047,0,-1559
1106,12.704245,0,0,0,1049,0,-1559
1107,12.715905,1,0,0,1047,0,-1561
1108,12.727547,0,-1,0,1045,-2,-1561
1109,12.739206,1,0,1,1048,2,-1562
1110,12.750873,1,1,1,1045,0,-1561
1111,12.762442,1,0,0,1048,3,-1565
1112,12.774001,0,-1,1,1050,-2,-1558
1113,12.785549,0,-1,0,1050,-2,-1559
1114,12.797108,0,1,0,1052,0,-1556
1115,12.808702,0,0,0,1046,4,-1553
1116,12.820263,0,0,0,1050,-1,-1557
1117,12.83184,0,0,0,1041,-2,-1560
1118,12.843404,0,0,0,1049,1,-1561
1119,12.855101,0,0,0,1045,0,-1563
1120,12.866769,0,0,0,1048,1,-1558
1121,12.878429,1,0,0,1043,-2,-1565
1122,12.890103,0,0,0,1047,-1,-1564
1123,12.901758,0,0,0,1047,0,-1561
1124,12.913439,1,-1,0,1046,0,-1552
1125,12.92513,0,0,0,1049,-1,-1561
1126,12.936765,0,0,1,1044,1,-1556
1127,12.948447,0,0,0,1045,0,-1557
1128,12.960145,0,0,0,1047,0,-1563
1129,12.971715,0,0,1,1047,-2,-1557
1130,12.983273,0,0,0,1048,0,-1555
1131,12.994827,1,0,1,1040,-1,-1557
1132,13.006369,0,0,0,1049,0,-1564
1133,13.017912,0,0,0,1046,-3,-1561
1134,13.029456,0,0,0,1046,0,-1556
1135,13.041063,0,0,0,1049,2,-1559
1136,13.052632,0,1,0,1049,-2,-1561
1137,13.06425,1,0,0,1046,-1,-1562
1138,13.075913,1,0,0,1048,-2,-1556
1139,13.087556,0,-1,0,1045,-1,-1556
1140,13.099205,0,0,0,1046,-1,-1564
1141,13.11087,1,-1,0,1047,0,-1557
1142,13.122511,0,-1,-1,1045,-2,-1566
1143,13.13416,0,-1,0,1049,-5,-1560
1144,13.145833,0,0,0,1046,-2,-1563
1145,13.157502,1,0,0,1048,-1,-1567
1146,13.169157,0,0,0,1045,0,-1561
1147,13.180832,0,0,0,1044,0,-1560
1148,13.192499,0,0,0,1045,-2,-1558
1149,13.204164,0,0,0,1048,1,-1559
1150,13.215855,0,0,0,1046,0,-1553
1151,13.227538,0,1,0,1047,-1,-1561
1152,13.239189,1,-1,1,1045,-3,-1562
1153,13.250861,0,0,0,1047,2,-1555
1154,13.262517,0,0,0,1046,0,-1560
1155,13.274205,1,1,0,1046,-3,-1561
1156,13.285821,0,1,0,1048,-5,-1560
1157,13.297376,0,0,0,1048,3,-1563
1158,13.308929,-1,0,0,1050,-2,-1561
1159,13.320486,0,0,0,1047,-2,-1560
1160,13.332033,1,0,0,1049,-3,-1556
1161,13.343581,1,0,0,1046,-2,-1567
1162,13.355185,0,0,0,1045,0,-1558
1163,13.36675,0,0,0,1047,0,-1556
1164,13.378365,1,0,-1,1061,0,-1555
1165,13.390021,1,-1,1,1047,4,-1557
1166,13.401658,1,0,1,1047,0,-1553
1167,13.41331,0,0,0,1048,2,-1557
1168,13.425013,0,-1,0,1044,-6,-1561
1169,13.436665,0,0,0,1047,-3,-1557
1170,13.448334,1,0,1,1049,-1,-1551
1171,13.459999,0,0,0,1042,-1,-1558
1172,13.471664,0,0,0,1049,0,-1557
1173,13.483319,0,0,0,1048,-2,-1557
1174,13.494879,0,1,1,1047,0,-1564
1175,13.506435,0,0,0,1046,1,-1559
1176,13.51799,0,0,0,1049,0,-1563
1177,13.529556,0,0,0,1046,-3,-1561
1178,13.541106,1,0,1,1046,-1,-1560
1179,13.552685,1,0,0,1044,2,-1554
1180,13.564204,0,0,0,1048,-1,-1561
1181,13.575729,0,0,0,1047,-1,-1553
1182,13.587364,1,1,0,1046,1,-1561
1183,13.599036,1,0,1,1045,0,-1557
1184,13.610681,0,0,0,1051,0,-1564
1185,13.62235,1,0,0,1050,1,-1559
1186,13.633997,0,0,1,1048,0,-1555
1187,13.645648,0,0,1,1045,2,-1554
1188,13.657327,0,0,-1,1046,0,-1559
1189,13.669009,0,0,0,1046,2,-1561
1190,13.680681,0,0,0,1047,0,-1558
1191,13.692354,0,0,0,1044,-2,-1561
1192,13.70395,1,0,0,1043,-1,-1563
1193,13.715526,0,1,0,1046,-1,-1565
1194,13.727087,0,0,1,1048,1,-1561
1195,13.73869,0,0,1,1048,0,-1554
1196,13.750243,0,1,1,1045,0,-1560
1197,13.761803,0,0,1,1045,-1,-1564
1198,13.773345,0,1,1,1049,-3,-1555
1199,13.784941,0,1,-1,1051,-2,-1561
1200,13.796596,0,0,1,1048,-1,-1566
1201,13.808312,0,0,0,1044,0,-1561
1202,13.820192,0,1,0,1043,0,-1559
1203,13.8319,0,-1,0,1046,0,-1568
1204,13.843559,0,0,0,1046,0,-1555
1205,13.855223,0,0,0,1047,0,-1566
1206,13.866926,1,-1,1,1049,-1,-1555
1207,13.87861,0,-1,0,1043,0,-1552
1208,13.89026,1,0,0,1049,-4,-1554
1209,13.901868,0,1,0,1046,0,-1563
1210,13.913437,0,0,1,1045,0,-1562
1211,13.924991,0,0,0,1046,3,-1561
1212,13.936572,0,0,0,1047,0,-1558
1213,13.948127,0,1,0,1044,0,-1555
1214,13.959704,-1,0,0,1047,-2,-1565
1215,13.971294,0,0,0,1049,0,-1561
1216,13.982844,1,0,0,1046,0,-1560
1217,13.994395,0,0,1,1048,-2,-1563
1218,14.006066,0,0,0,1046,0,-1565
1219,14.017742,0,0,1,1046,-1,-1559
1220,14.029397,0,0,0,1048,-2,-1560
1221,14.041014,0,0,0,1046,-1,-1560
1222,14.05267,1,0,1,1048,-1,-1560
1223,14.064369,0,0,1,1047,0,-1561
1224,14.075994,0,0,0,1046,-2,-1560
1225,14.087648,0,0,0,1043,-2,-1564
1226,14.099333,1,1,0,1048,2,-1564
1227,14.111009,0,0,0,1048,0,-1558
1228,14.122591,1,0,1,1047,0,-1559
1229,14.134197,0,0,0,1049,0,-1557
1230,14.145776,0,0,0,1047,-3,-1560
1231,14.157324,0,0,0,1046,-1,-1564
1232,14.168898,0,-1,0,1043,-4,-1553
1233,14.180447,1,0,0,1046,-1,-1558
1234,14.192,-1,0,0,1047,-3,-1557
1235,14.203564,0,-1,0,1046,0,-1564
1236,14.215263,1,0,0,1049,-4,-1560
1237,14.226988,1,0,0,1048,-4,-1556
1238,14.238645,0,0,0,1047,-3,-1559
1239,14.250316,0,0,0,1046,0,-1558
1240,14.261978,0,0,0,1047,0,-1560
1241,14.273635,0,-1,0,1046,-1,-1561
1242,14.285284,1,-1,1,1047,1,-1564
1243,14.296959,0,0,1,1048,-1,-1564
1244,14.308641,0,0,0,1049,-1,-1567
1245,14.320326,0,0,1,1049,-1,-1557
1246,14.331992,1,1,1,1049,-1,-1566
1247,14.343641,0,1,-1,1046,0,-1562
1248,14.355303,0,0,0,1045,-4,-1557
1249,14.366969,0,0,0,1049,2,-1561
1250,14.378618,0,0,0,1047,-1,-1564
1251,14.390293,0,0,0,1048,1,-1557
1252,14.401957,1,1,0,1046,0,-1564
1253,14.41365,1,1,0,1047,0,-1557
1254,14.425315,0,0,1,1049,0,-1557
1255,14.437003,1,0,1,1048,0,-1559
1256,14.448665,0,0,0,1047,0,-1552
1257,14.460359,0,-1,0,1048,0,-1561
1258,14.471988,0,1,1,1043,0,-1559
1259,14.483634,1,0,0,1048,2,-1558
1260,14.495275,1,-1,1,1045,0,-1557
1261,14.506921,0,0,0,1050,0,-1560
1262,14.518587,0,0,0,1046,0,-1560
1263,14.530136,0,0,-1,1047,1,-1554
1264,14.541683,0,0,0,1049,-1,-1562
1265,14.553243,0,1,0,1051,2,-1560
1266,14.56481,1,1,0,1047,0,-1560
1267,14.576363,1,0,0,1046,1,-1565
1268,14.587945,0,0,1,1045,4,-1554
1269,14.599498,1,0,0,1048,-1,-1558
1270,14.611047,1,0,0,1046,-4,-1561
1271,14.622597,0,0,0,1048,0,-1567
1272,14.634249,0,0,1,1047,-4,-1562
1273,14.645897,1,0,1,1044,1,-1558
1274,14.657569,0,1,-1,1046,0,-1552
1275,14.669245,1,1,0,1049,1,-1558
1276,14.680909,1,0,0,1049,-2,-1560
1277,14.692645,1,0,1,1050,-2,-1565
1278,14.704348,0,0,0,1049,4,-1563
1279,14.716004,0,0,0,1045,1,-1566
1280,14.727728,0,1,0,1052,-2,-1563
1281,14.739291,0,0,1,1048,-4,-1554
1282,14.750853,0,0,0,1048,-3,-1563
1283,14.762462,0,0,0,1048,-4,-1559
1284,14.774041,-1,0,0,1048,0,-1559
1285,14.785583,0,-1,1,1053,0,-1560
1286,14.797164,-1,0,1,1044,-2,-1557
1287,14.808687,-1,1,0,1048,-7,-1557
1288,14.820218,0,0,0,1049,0,-1558
1289,14.831878,0,0,0,1046,2,-1562
1290,14.843529,-1,0,0,1045,1,-1556
1291,14.855183,0,1,1,1047,-3,-1560
1292,14.866853,0,-1,0,1046,-1,-1563
1293,14.878502,0,0,1,1049,2,-1558
1294,14.890153,0,1,0,1049,-1,-1561
1295,14.90182,0,1,0,1043,-2,-1557
1296,14.913481,0,1,1,1047,-1,-1557
1297,14.925164,0,0,0,1046,0,-1555
1298,14.936828,0,-1,0,1048,-1,-1556
1299,14.948395,0,1,0,1048,2,-1559
1300,14.959963,0,0,0,1049,0,-1562
1301,14.97154,0,0,0,1042,0,-1547
1302,14.983088,0,0,0,1047,-3,-1554
1303,14.994632,0,0,1,1045,-1,-1557
1304,15.006183,1,-1,0,1053,-3,-1562
1305,15.01775,0,0,0,1043,0,-1556
1306,15.02932,1,0,0,1046,0,-1556
1307,15.040975,0,0,0,1046,2,-1562
1308,15.052647,1,0,0,1049,-2,-1557
1309,15.064313,0,0,0,1047,-2,-1554
1310,15.075991,0,0,0,1049,-2,-1552
1311,15.087664,0,0,0,1047,-1,-1564
1312,15.099415,0,0,0,1046,0,-1567
1313,15.111103,0,1,-1,1050,0,-1559
1314,15.122755,1,1,0,1048,-5,-1559
1315,15.134467,1,0,0,1045,0,-1556
1316,15.146176,1,0,0,1052,0,-1554
1317,15.157743,1,1,1,1049,-3,-1559
1318,15.1693,0,0,0,1050,-1,-1558
1319,15.180856,0,0,0,1048,-1,-1559
1320,15.192464,0,0,0,1049,2,-1560
1321,15.204031,0,0,0,1048,-3,-1562
1322,15.215579,1,0,1,1051,-1,-1557
1323,15.227125,0,0,0,1045,3,-1562
1324,15.238691,0,0,0,1048,0,-1559
1325,15.25043,0,1,0,1049,1,-1561
1326,15.262087,1,1,0,1045,5,-1558
1327,15.273736,1,0,0,1045,0,-1556
1328,15.285383,0,1,0,1052,-1,-1559
1329,15.297014,0,0,0,1046,-1,-1560
1330,15.308664,0,-1,0,1046,-1,-1558
1331,15.320367,1,0,0,1048,2,-1556
1332,15.33199,0,1,0,1050,-2,-1558
1333,15.343653,0,1,-1,1047,0,-1556
1334,15.355338,0,0,0,1047,-1,-1558
1335,15.366921,1,0,-1,1048,0,-1557
1336,15.378463,0,0,-1,1048,-3,-1559
1337,15.390002,1,0,0,1050,2,-1562
1338,15.401548,0,0,-1,1053,-3,-1560
1339,15.413099,0,0,0,1046,0,-1564
1340,15.424675,0,0,1,1048,0,-1558
1341,15.436243,0,-1,0,1046,0,-1564
1342,15.447852,0,0,0,1048,0,-1560
1343,15.459473,0,0,0,1048,0,-1556
1344,15.471127,0,-1,1,1046,-2,-1562
1345,15.482771,0,0,0,1047,4,-1554
1346,15.494437,0,0,0,1045,0,-1563
1347,15.506181,0,0,0,1047,-1,-1556
1348,15.517847,1,0,1,1045,0,-1562
1349,15.529508,0,0,0,1049,0,-1562
1350,15.54118,0,-1,0,1043,1,-1558
1351,15.552853,0,0,0,1045,1,-1557
1352,15.56455,1,0,1,1048,-4,-1560
1353,15.576114,1,0,0,1046,-2,-1554
1354,15.587701,0,1,0,1049,0,-1550
1355,15.599263,0,0,0,1043,2,-1555
1356,15.610815,0,0,1,1044,-3,-1564
1357,15.622361,1,0,0,1046,-2,-1563
1358,15.633908,0,0,1,1048,0,-1563
1359,15.645458,1,0,0,1046,-2,-1562
1360,15.657049,0,1,0,1044,1,-1558
1361,15.668701,0,1,1,1049,0,-1555
1362,15.680371,1,1,0,1045,0,-1558
1363,15.692032,1,1,0,1047,0,-1559
1364,15.703742,0,0,0,1045,3,-1555
1365,15.715473,0,0,0,1047,-4,-1557
1366,15.727143,0,1,0,1048,0,-1555
1367,15.738814,1,-1,-1,1049,-3,-1560
1368,15.750469,1,0,0,1047,2,-1559
1369,15.762135,0,0,0,1047,1,-1561
1370,15.773856,0,0,0,1045,-1,-1563
1371,15.785424,0,0,0,1049,-1,-1552
1372,15.796977,0,0,1,1049,1,-1558
1373,15.808601,0,0,1,1048,0,-1557
1374,15.820187,0,0,0,1047,1,-1558
1375,15.831783,0,0,1,1044,-2,-1559
1376,15.843337,1,-1,1,1050,-4,-1558
1377,15.854915,0,0,0,1050,0,-1559
1378,15.866478,0,0,0,1051,3,-1559
1379,15.878166,0,1,0,1046,-1,-1565
1380,15.889841,0,0,0,1043,0,-1562
1381,15.901503,0,0,0,1044,0,-1562
1382,15.913256,0,0,0,1046,-1,-1560
1383,15.924948,0,-1,0,1047,-3,-1561
1384,15.93663,0,-1,0,1047,-2,-1560
1385,15.948314,1,0,1,1047,0,-1560
1386,15.959989,0,0,0,1047,-1,-1566
1387,15.971649,1,1,1,1049,3,-1565
1388,15.983379,0,0,0,1046,0,-1559
1389,15.994937,0,0,0,1048,-6,-1564
1390,16.006485,1,0,0,1049,0,-1557
1391,16.018048,1,-1,0,1046,4,-1561
1392,16.029632,1,0,1,1046,-3,-1559
1393,16.041178,1,0,1,1049,1,-1559
1394,16.05273,1,0,0,1048,1,-1562
1395,16.064291,0,0,0,1046,3,-1558
1396,16.075857,0,0,0,1048,0,-1565
1397,16.087514,0,0,0,1048,1,-1557
1398,16.099172,1,0,1,1049,1,-1560
1399,16.110851,0,0,0,1045,0,-1562
1400,16.12251,1,0,0,1048,2,-1560
1401,16.134162,1,0,1,1048,-3,-1559
1402,16.14581,0,1,-1,1044,-1,-1562
1403,16.157492,0,0,-1,1053,1,-1560
1404,16.169153,1,1,0,1045,0,-1560
1405,16.180886,0,0,0,1047,2,-1560
1406,16.192547,1,0,0,1049,2,-1559
1407,16.204133,0,0,1,1044,-3,-1561
1408,16.215711,0,0,0,1049,1,-1560
1409,16.227274,0,0,0,1048,0,-1554
1410,16.238822,1,0,0,1047,-1,-1554
1411,16.250391,0,1,0,1046,-3,-1559
1412,16.261965,0,0,0,1047,-1,-1555
1413,16.273623,1,0,1,1046,0,-1556
1414,16.285186,1,1,0,1045,-2,-1564
1415,16.296831,1,-1,0,1047,-3,-1559
1416,16.3085,1,1,1,1049,0,-1565
1417,16.320156,0,1,0,1047,3,-1561
1418,16.331857,1,0,0,1051,2,-1562
1419,16.343507,1,1,0,1050,0,-1564
1420,16.355157,0,1,1,1051,-2,-1560
1421,16.366831,1,0,0,1047,-2,-1561
1422,16.378476,0,0,1,1050,-1,-1559
1423,16.390136,0,-1,1,1048,-1,-1557
1424,16.401825,0,0,0,1048,0,-1562
1425,16.413396,0,0,0,1047,-1,-1560
1426,16.424932,-1,0,0,1045,-2,-1566
1427,16.43649,0,0,0,1045,0,-1562
1428,16.448052,0,0,1,1044,0,-1556
1429,16.459639,0,0,0,1045,2,-1561
1430,16.471191,0,0,0,1045,-1,-1561
1431,16.482757,0,0,-1,1045,-1,-1564
1432,16.494322,0,1,0,1049,2,-1566
1433,16.505948,0,0,0,1047,-5,-1565
1434,16.51764,0,0,2,1045,-4,-1556
1435,16.529317,0,0,1,1052,4,-1562
1436,16.541001,0,-1,0,1051,-1,-1557
1437,16.552719,0,-1,0,1044,0,-1554
1438,16.564383,1,0,0,1048,0,-1561
1439,16.576057,0,0,0,1049,0,-1557
1440,16.587728,0,0,-1,1047,4,-1561
1441,16.599388,0,0,0,1047,-3,-1561
1442,16.611078,0,-1,0,1046,-1,-1561
1443,16.62271,0,0,0,1046,-2,-1563
1444,16.634276,0,1,0,1050,0,-1555
1445,16.645827,0,0,0,1048,-2,-1556
1446,16.657382,0,0,1,1047,0,-1558
1447,16.668921,1,0,1,1042,0,-1563
1448,16.68051,0,0,0,1049,-1,-1557
1449,16.692085,0,-1,1,1047,-1,-1564
1450,16.703666,0,0,0,1048,-2,-1557
1451,16.715287,-1,0,0,1048,0,-1563
1452,16.726956,-1,0,0,1047,1,-1564
1453,16.738608,0,1,1,1049,0,-1561
1454,16.750262,0,1,0,1047,0,-1556
1455,16.761938,0,0,0,1047,1,-1561
1456,16.77364,0,1,0,1046,0,-1559
1457,16.785302,0,1,-1,1047,0,-1561
1458,16.796976,0,1,0,1050,1,-1559
1459,16.808648,0,0,1,1050,0,-1563
1460,16.820314,1,0,1,1045,0,-1561
1461,16.831885,0,0,1,1048,-1,-1556
1462,16.84344,0,0,1,1046,2,-1563
1463,16.855019,0,1,1,1044,0,-1555
1464,16.866566,0,0,0,1047,0,-1557
1465,16.878134,1,1,0,1045,-2,-1557
1466,16.889674,0,0,1,1048,0,-1557
1467,16.901219,1,0,-1,1046,-1,-1556
1468,16.912841,0,1,1,1048,-3,-1563
1469,16.924583,1,0,1,1046,-1,-1562
1470,16.93639,0,0,0,1046,3,-1562
1471,16.948126,1,0,1,1046,-1,-1562
1472,16.959805,0,0,0,1048,-1,-1563
1473,16.97147,0,0,0,1045,0,-1560
1474,16.983157,1,-1,0,1044,0,-1557
1475,16.994833,1,0,0,1047,3,-1564
1476,17.006479,0,0,0,1049,0,-1559
1477,17.018148,0,0,0,1047,-2,-1556
1478,17.029848,0,0,0,1044,-3,-1558
1479,17.041402,1,0,0,1047,2,-1561
1480,17.052931,0,0,1,1049,-1,-1560
1481,17.064525,0,1,0,1045,2,-1558
1482,17.07609,0,0,1,1049,0,-1561
1483,17.087652,0,-1,0,1047,0,-1567
1484,17.099194,0,-1,0,1049,4,-1556
1485,17.110742,0,0,0,1046,0,-1556
1486,17.122309,0,0,1,1045,-2,-1561
1487,17.133934,1,0,0,1046,-2,-1555
1488,17.145631,0,-1,0,1049,0,-1558
1489,17.157304,1,0,0,1046,-1,-1561
1490,17.168992,1,0,0,1049,-3,-1556
1491,17.180664,1,0,0,1047,-1,-1559
1492,17.192362,1,1,0,1050,-2,-1559
1493,17.203986,0,0,0,1051,0,-1564
1494,17.215632,1,0,0,1046,0,-1559
1495,17.227313,1,0,0,1046,2,-1562
1496,17.238973,0,0,0,1047,4,-1556
1497,17.250536,0,0,0,1048,0,-1568
1498,17.26211,0,0,0,1046,2,-1558
1499,17.273671,1,0,0,1046,-3,-1554
1500,17.285229,1,0,0,1054,2,-1555
1501,17.296936,1,0,0,1047,4,-1566
1502,17.308514,0,0,-1,1050,1,-1558
1503,17.320082,0,0,0,1049,0,-1565
1504,17.331648,0,0,0,1048,3,-1562
1505,17.34328,1,0,0,1047,-1,-1566
1506,17.354968,1,0,0,1051,-2,-1561
1507,17.366629,0,0,0,1051,0,-1560
1508,17.37829,0,0,0,1047,-2,-1563
1509,17.389948,0,1,1,1047,-1,-1558
1510,17.401635,0,0,0,1048,0,-1564
1511,17.413282,0,0,0,1050,0,-1556
1512,17.424951,0,1,0,1046,1,-1564
1513,17.436645,0,0,0,1043,0,-1561
1514,17.448324,0,0,1,1047,-1,-1561
1515,17.459909,0,0,1,1047,0,-1560
1516,17.471465,0,0,1,1045,-5,-1561
1517,17.483031,0,0,1,1048,-3,-1564
1518,17.494572,0,0,0,1051,1,-1563
1519,17.506115,0,0,0,1050,0,-1560
1520,17.517669,0,0,0,1049,-3,-1556
1521,17.529236,-1,0,-1,1050,0,-1555
1522,17.540821,-1,1,0,1046,-2,-1558
1523,17.552486,1,-1,0,1047,-2,-1554
1524,17.564154,0,0,0,1046,-3,-1556
1525,17.575839,0,0,0,1047,-3,-1562
1526,17.587493,0,0,0,1048,1,-1557
1527,17.599141,0,-1,-1,1046,0,-1561
1528,17.610818,0,0,0,1049,0,-1564
1529,17.622473,0,0,0,1049,0,-1561
1530,17.634121,0,0,1,1047,-1,-1561
1531,17.645781,0,1,0,1045,0,-1562
1532,17.657439,0,1,0,1044,0,-1560
1533,17.669051,0,0,0,1044,-1,-1565
1534,17.680645,1,0,0,1049,-1,-1556
1535,17.692203,0,0,0,1046,-1,-1562
1536,17.70376,0,0,0,1047,0,-1559
1537,17.715308,1,0,0,1048,1,-1564
1538,17.726877,1,-1,1,1048,1,-1566
1539,17.738423,0,0,1,1046,0,-1561
1540,17.750027,0,-1,1,1047,0,-1562
1541,17.761768,-1,-1,0,1048,0,-1561
1542,17.773435,1,-1,0,1046,2,-1557
1543,17.785095,1,0,-1,1051,1,-1557
1544,17.796768,0,0,0,1047,0,-1561
1545,17.808482,0,0,1,1047,-4,-1558
1546,17.820172,0,0,0,1045,-2,-1562
1547,17.83185,0,0,0,1047,-4,-1560
1548,17.8435,1,0,0,1049,-1,-1560
1549,17.855188,1,1,0,1047,4,-1557
1550,17.866877,0,1,0,1046,0,-1555
1551,17.878445,0,1,0,1047,0,-1560
1552,17.890021,0,0,0,1050,0,-1557
1553,17.901563,0,0,0,1047,-1,-1563
1554,17.913112,0,0,0,1047,-4,-1558
1555,17.924678,0,0,0,1046,3,-1560
1556,17.9362,0,0,0,1049,0,-1558
1557,17.947717,0,0,0,1043,0,-1561
1558,17.959278,0,1,1,1047,1,-1559
1559,17.970993,0,0,0,1046,0,-1565
1560,17.982666,1,0,0,1042,0,-1554
1561,17.994344,0,0,0,1050,0,-1558
1562,18.005988,0,0,0,1047,-3,-1557
1563,18.017637,1,0,1,1048,-2,-1560
1564,18.029312,0,0,-1,1049,0,-1562
1565,18.041032,-1,0,0,1048,0,-1562
1566,18.052694,0,-2,0,1049,1,-1568
1567,18.064384,0,1,0,1050,0,-1553
1568,18.076069,1,1,0,1046,0,-1560
1569,18.087729,0,0,0,1048,-3,-1557
1570,18.099397,0,1,0,1044,0,-1561
1571,18.11107,0,-1,0,1044,0,-1556
1572,18.122712,0,1,1,1048,-4,-1557
1573,18.134358,0,-1,0,1048,0,-1567
1574,18.146019,0,-1,0,1048,-1,-1560
1575,18.157681,0,0,0,1045,2,-1564
1576,18.169367,0,0,0,1046,-1,-1560
1577,18.183233,1,1,1,1048,-4,-1561
1578,18.19492,0,0,1,1044,0,-1567
1579,18.206583,0,0,1,1046,-2,-1557
1580,18.218225,0,0,0,1047,-1,-1560
1581,18.229868,0,1,0,1048,0,-1556
1582,18.241532,0,-1,-1,1048,1,-1558
1583,18.253197,0,0,0,1046,0,-1559
1584,18.264873,0,0,1,1047,0,-1561
1585,18.276676,0,0,1,1048,-1,-1558
1586,18.288347,0,1,0,1050,0,-1561
1587,18.299899,0,0,0,1046,-4,-1555
1588,18.311438,1,0,0,1045,1,-1558
1589,18.32301,1,0,0,1048,1,-1558
1590,18.33457,1,0,0,1049,-1,-1556
1591,18.346163,0,0,0,1048,0,-1560
1592,18.357723,0,1,0,1048,-4,-1557
1593,18.369273,0,0,1,1050,0,-1563
1594,18.380828,1,0,0,1047,-2,-1556
1595,18.392384,0,0,0,1048,3,-1559
1596,18.403955,0,0,0,1045,0,-1558
1597,18.415544,0,0,1,1047,-3,-1558
1598,18.427146,0,0,0,1047,0,-1560
1599,18.438698,0,0,0,1046,-1,-1560
1600,18.450271,1,-1,1,1046,2,-1557
1601,18.461812,0,1,0,1048,-1,-1559
1602,18.473375,0,0,0,1044,-2,-1561
1603,18.484934,1,0,0,1047,-4,-1554
1604,18.496611,1,0,0,1044,-2,-1557
1605,18.508247,1,0,0,1050,1,-1559
1606,18.519921,1,0,0,1047,0,-1565
1607,18.531575,0,1,0,1048,-4,-1561
1608,18.543218,0,1,0,1048,-2,-1561
1609,18.55487,0,0,0,1049,-1,-1559
1610,18.566524,1,0,0,1048,-3,-1566
1611,18.578196,0,0,0,1046,0,-1559
1612,18.589836,0,0,0,1046,-2,-1558
1613,18.601403,0,0,0,1047,0,-1563
1614,18.61294,0,0,0,1049,-4,-1558
1615,18.624523,0,0,0,1046,0,-1560
1616,18.636083,0,-1,1,1047,-1,-1558
1617,18.647629,0,0,0,1045,-4,-1560
1618,18.659177,0,0,0,1046,0,-1559
1619,18.670738,0,0,0,1045,-2,-1559
1620,18.682341,1,0,0,1050,2,-1558
1621,18.693979,0,1,0,1047,0,-1553
1622,18.705666,0,0,0,1045,3,-1556
1623,18.71733,0,0,1,1047,0,-1562
1624,18.729033,0,1,1,1047,2,-1561
1625,18.740701,1,0,0,1046,0,-1558
1626,18.752373,0,1,0,1044,-1,-1552
1627,18.764071,0,1,0,1045,-2,-1563
1628,18.775786,-1,-1,0,1047,0,-1569
1629,18.787522,0,0,0,1047,0,-1555
1630,18.799218,0,0,1,1045,-2,-1556
1631,18.810781,0,0,1,1047,0,-1560
1632,18.822334,1,0,-1,1049,-1,-1554
1633,18.833886,1,0,0,1044,0,-1557
1634,18.84546,1,0,1,1051,1,-1563
1635,18.85704,1,0,1,1047,0,-1562
1636,18.868629,0,0,0,1049,1,-1561
1637,18.880192,0,0,0,1045,-2,-1561
1638,18.891732,0,1,0,1045,0,-1558
1639,18.903384,0,0,0,1046,0,-1566
1640,18.915064,0,0,0,1050,1,-1556
1641,18.92672,0,0,0,1046,0,-1555
1642,18.938395,0,1,0,1048,0,-1559
1643,18.950049,0,0,1,1046,-2,-1561
1644,18.961702,0,1,0,1049,-1,-1561
1645,18.973357,-1,1,0,1047,-1,-1559
1646,18.985083,0,0,0,1046,0,-1562
1647,18.996785,1,1,0,1042,-1,-1559
1648,19.008492,0,0,0,1049,2,-1554
1649,19.020084,1,0,0,1047,-2,-1562
1650,19.031645,1,1,1,1045,0,-1559
1651,19.04319,1,0,1,1049,-1,-1559
1652,19.054749,1,0,0,1048,4,-1555
1653,19.066296,1,0,0,1046,1,-1558
1654,19.077841,1,0,0,1051,-2,-1563
1655,19.089396,0,0,0,1047,-1,-1553
1656,19.10094,0,0,0,1053,1,-1557
1657,19.112576,0,0,0,1046,3,-1566
1658,19.124246,0,0,0,1049,0,-1560
1659,19.135905,0,0,0,1049,-2,-1561
1660,19.14761,0,0,0,1046,2,-1565
1661,19.159263,0,0,0,1050,-6,-1565
1662,19.17092,0,0,1,1044,0,-1560
1663,19.182575,1,0,0,1049,-2,-1557
1664,19.194218,0,0,0,1047,0,-1557
1665,19.205879,1,0,0,1047,2,-1559
1666,19.217626,1,1,-1,1048,-4,-1560
1667,19.229193,0,0,0,1045,0,-1558
1668,19.240758,0,1,0,1049,0,-1558
1669,19.252324,0,0,0,1047,-1,-1559
1670,19.263896,0,0,0,1048,0,-1554
1671,19.275445,0,0,0,1047,-3,-1561
1672,19.287012,0,1,0,1047,0,-1552
1673,19.298546,0,0,0,1050,-1,-1557
1674,19.310093,0,0,0,1044,3,-1560
1675,19.321715,0,1,-1,1048,3,-1558
1676,19.333363,1,0,0,1047,-1,-1559
1677,19.345146,1,0,0,1049,0,-1563
1678,19.35682,0,0,0,1045,-1,-1557
1679,19.368505,0,0,0,1047,0,-1564
1680,19.38019,0,1,0,1048,-2,-1560
1681,19.391871,0,1,0,1052,-2,-1563
1682,19.403528,0,1,0,1046,-3,-1554
1683,19.415225,0,0,-1,1048,-4,-1561
1684,19.42688,0,0,0,1049,5,-1563
1685,19.438559,0,1,0,1044,-1,-1556
1686,19.450212,0,1,0,1046,-1,-1557
1687,19.461861,0,0,1,1050,-3,-1557
1688,19.473531,1,0,0,1046,0,-1561
1689,19.485212,1,0,0,1048,0,-1564
1690,19.496901,0,1,0,1046,2,-1558
1691,19.50856,0,0,0,1049,0,-1556
1692,19.520301,1,0,1,1048,-3,-1566
1693,19.531977,0,0,0,1047,-1,-1563
1694,19.543624,0,0,0,1047,-2,-1554
1695,19.555295,0,0,0,1047,1,-1561
1696,19.566944,0,0,0,1049,-2,-1552
1697,19.578592,0,0,0,1041,-3,-1556
1698,19.590269,0,1,1,1047,-3,-1557
1699,19.601927,0,0,1,1049,-2,-1562
1700,19.613579,0,0,1,1045,1,-1560
1701,19.625284,0,-1,0,1050,-1,-1557
1702,19.636948,0,0,0,1047,0,-1564
1703,19.64862,0,0,1,1050,0,-1554
1704,19.66024,0,0,0,1047,0,-1563
1705,19.671891,0,0,1,1047,-1,-1561
1706,19.683561,0,1,0,1049,0,-1561
1707,19.695203,1,0,1,1048,2,-1566
1708,19.706847,0,0,0,1048,2,-1562
1709,19.718506,0,0,0,1049,0,-1563
1710,19.7302,0,0,0,1050,0,-1562
1711,19.741851,0,0,0,1046,-1,-1560
1712,19.753509,0,-1,1,1042,-2,-1564
1713,19.765175,0,0,0,1043,0,-1558
1714,19.776831,0,0,0,1050,-2,-1552
1715,19.78852,0,0,0,1046,2,-1559
1716,19.800184,0,-1,0,1048,1,-1561
1717,19.811881,0,0,1,1047,-2,-1559
1718,19.82362,0,0,0,1048,-1,-1561
1719,19.835321,1,1,0,1047,2,-1559
1720,19.84705,1,0,1,1047,0,-1561
1721,19.858626,1,1,0,1045,1,-1558
1722,19.870183,1,1,0,1045,2,-1564
1723,19.881762,1,0,1,1049,0,-1564
1724,19.893353,0,1,0,1050,2,-1558
1725,19.90492,0,-1,0,1044,-4,-1563
1726,19.916443,0,0,0,1048,0,-1564
1727,19.92796,0,0,-1,1045,-2,-1558
1728,19.939522,0,0,0,1048,0,-1556
1729,19.951179,0,0,0,1049,0,-1562
1730,19.962852,1,0,0,1048,-2,-1563
1731,19.974532,-1,0,-1,1050,-4,-1560
1732,19.986199,0,0,0,1043,1,-1559
1733,19.997838,0,0,0,1049,0,-1558
1734,20.009487,0,-1,0,1049,-1,-1562
1735,20.021178,1,0,0,1047,2,-1555
1736,20.032822,0,0,0,1045,-2,-1558
1737,20.044513,0,1,0,1049,0,-1560
1738,20.056197,1,0,0,1050,1,-1561
1739,20.067773,1,0,0,1046,-1,-1560
1740,20.079356,0,1,1,1045,-3,-1562
1741,20.090903,0,0,1,1049,-1,-1563
1742,20.10245,1,0,0,1049,0,-1557
1743,20.114013,0,0,0,1047,-2,-1559
1744,20.125572,0,0,0,1044,0,-1564
1745,20.137142,1,0,0,1047,3,-1563
1746,20.148692,-1,1,0,1050,2,-1556
1747,20.160327,0,1,0,1043,0,-1560
1748,20.171991,0,1,0,1045,0,-1563
1749,20.183643,0,-1,0,1049,0,-1561
1750,20.195318,0,0,0,1051,-5,-1564
1751,20.206967,0,0,0,1048,1,-1569
1752,20.218611,0,-1,1,1046,-1,-1556
1753,20.230286,0,0,1,1043,-1,-1557
1754,20.241938,1,-1,0,1044,0,-1558
1755,20.253631,1,0,1,1046,-3,-1563
1756,20.265317,1,1,0,1043,0,-1561
1757,20.276876,1,0,0,1046,-5,-1563
1758,20.288447,0,0,0,1046,0,-1560
1759,20.300017,0,0,0,1049,-1,-1563
1760,20.311605,0,0,0,1051,-2,-1557
1761,20.323158,0,0,0,1043,-3,-1563
1762,20.334748,0,0,0,1047,1,-1557
1763,20.346292,0,0,1,1045,-3,-1560
1764,20.357827,0,0,1,1049,0,-1562
1765,20.369681,0,0,0,1048,-2,-1563
1766,20.381345,0,0,0,1050,0,-1560
1767,20.393042,0,0,0,1049,-4,-1563
1768,20.404715,0,0,0,1049,-2,-1557
1769,20.416374,0,0,0,1041,0,-1558
1770,20.428055,0,-1,1,1048,-1,-1563
1771,20.439722,0,0,0,1048,0,-1560
1772,20.451369,0,0,1,1045,-5,-1560
1773,20.463056,0,0,0,1046,1,-1553
1774,20.47471,1,0,-1,1045,0,-1564
1775,20.486274,1,0,1,1046,0,-1558
1776,20.497856,0,0,0,1049,0,-1557
1777,20.509409,1,0,0,1046,0,-1557
1778,20.520999,0,1,0,1044,3,-1561
1779,20.532557,0,0,0,1049,1,-1560
1780,20.544116,1,1,-1,1047,-2,-1560
1781,20.555657,1,0,0,1046,-2,-1565
1782,20.567229,0,0,0,1049,0,-1564
1783,20.578856,0,0,0,1048,-3,-1562
1784,20.59054,0,-1,0,1045,-1,-1565
1785,20.602197,0,0,0,1048,0,-1566
1786,20.613842,0,1,0,1043,1,-1558
1787,20.625511,1,0,0,1048,0,-1562
1788,20.637195,1,0,0,1049,0,-1557
1789,20.648897,0,0,0,1049,1,-1555
1790,20.660553,0,0,1,1047,0,-1562
1791,20.672239,1,0,1,1047,-2,-1562
1792,20.683926,1,0,0,1045,0,-1559
1793,20.695505,0,0,0,1050,-1,-1562
1794,20.707078,1,0,0,1046,1,-1558
1795,20.718634,0,0,0,1050,0,-1564
1796,20.730179,0,0,0,1046,1,-1560
1797,20.741722,0,0,0,1050,-4,-1554
1798,20.753272,0,0,0,1045,-2,-1561
1799,20.764827,0,-1,0,1044,-1,-1554
1800,20.776401,0,0,-1,1045,-3,-1557
1801,20.7881,-1,1,0,1048,-2,-1561
1802,20.799785,-1,-1,0,1044,0,-1562
1803,20.811434,0,0,-1,1048,-2,-1556
1804,20.823088,0,0,-1,1049,0,-1562
1805,20.834752,0,-1,0,1047,-3,-1560
1806,20.84642,0,0,0,1043,1,-1557
1807,20.858076,1,0,1,1045,0,-1560
1808,20.869725,0,0,-1,1051,0,-1569
1809,20.881417,0,-1,-1,1045,0,-1561
1810,20.893087,1,0,0,1044,0,-1559
1811,20.904772,0,0,0,1046,-2,-1561
1812,20.91643,0,0,0,1041,1,-1560
1813,20.92811,1,-1,0,1048,0,-1564
1814,20.939782,1,0,1,1051,1,-1557
1815,20.951441,0,0,1,1049,2,-1560
1816,20.963098,1,0,0,1045,-2,-1558
1817,20.974746,1,0,0,1045,-5,-1557
1818,20.986407,0,-1,0,1049,-1,-1559
1819,20.997984,0,0,0,1049,-1,-1564
1820,21.009552,0,0,0,1048,1,-1563
1821,21.021109,0,1,1,1044,0,-1565
1822,21.032677,0,1,1,1049,-1,-1558
1823,21.044197,0,0,0,1048,0,-1566
1824,21.055716,1,0,1,1045,1,-1556
1825,21.067262,0,0,0,1045,-2,-1557
1826,21.078827,0,0,0,1045,-1,-1561
1827,21.090391,0,0,0,1048,3,-1560
1828,21.102012,0,0,0,1045,0,-1560
1829,21.113674,1,1,-1,1046,1,-1556
1830,21.125325,0,0,0,1043,0,-1561
1831,21.137002,0,0,0,1045,-5,-1561
1832,21.148678,1,0,0,1046,2,-1561
1833,21.160356,0,0,0,1044,-3,-1556
1834,21.171984,0,0,1,1049,-1,-1556
1835,21.183631,1,0,-1,1049,1,-1553
1836,21.195311,0,1,0,1050,0,-1556
1837,21.206966,0,0,0,1045,0,-1561
1838,21.218521,1,1,0,1044,-1,-1566
1839,21.230067,0,0,1,1051,2,-1563
1840,21.241623,0,0,0,1048,-1,-1557
1841,21.253179,0,1,0,1051,0,-1562
1842,21.264748,0,0,0,1049,-1,-1558
1843,21.276327,1,1,0,1048,0,-1561
1844,21.287886,0,0,0,1052,0,-1561
1845,21.299451,0,0,1,1048,0,-1563
1846,21.311069,0,0,0,1048,0,-1564
1847,21.322734,0,0,0,1050,0,-1565
1848,21.334391,0,0,0,1048,3,-1562
1849,21.346055,0,0,0,1051,-1,-1555
1850,21.357716,0,-1,0,1049,-5,-1558
1851,21.369364,1,0,0,1046,0,-1563
1852,21.381082,1,-1,0,1047,-2,-1558
1853,21.392855,0,-1,0,1047,0,-1561
1854,21.404539,1,-1,0,1046,-1,-1561
1855,21.416212,0,1,0,1046,-4,-1556
1856,21.42778,1,0,0,1049,1,-1560
1857,21.439395,1,1,0,1046,-3,-1557
1858,21.450959,1,-1,0,1048,-2,-1562
1859,21.462508,1,-1,1,1046,-1,-1557
1860,21.474053,0,0,0,1049,0,-1564
1861,21.485617,0,1,0,1051,-5,-1563
1862,21.497164,0,0,0,1045,-2,-1561
1863,21.508694,0,0,1,1045,-1,-1556
1864,21.52032,0,0,0,1049,-2,-1558
1865,21.532007,-1,0,1,1047,0,-1557
1866,21.543714,0,0,0,1051,-3,-1559
1867,21.555361,1,-1,0,1049,0,-1557
1868,21.567037,1,1,0,1050,-4,-1565
1869,21.578691,0,0,0,1046,-2,-1559
1870,21.590336,0,1,0,1048,0,-1563
1871,21.601999,0,0,0,1045,-4,-1559
1872,21.613682,1,0,0,1048,0,-1560
1873,21.625342,0,-1,0,1049,-2,-1560
1874,21.636935,1,0,0,1047,-1,-1560
1875,21.648647,0,0,1,1045,3,-1565
1876,21.660232,1,0,0,1045,0,-1557
1877,21.671781,0,0,0,1044,1,-1561
1878,21.683367,0,0,0,1045,2,-1558
1879,21.694911,0,0,0,1046,-3,-1556
1880,21.706454,1,0,0,1051,0,-1567
1881,21.718008,-1,0,0,1050,2,-1558
1882,21.729652,0,1,0,1044,-3,-1560
1883,21.741344,0,-1,1,1044,-2,-1558
1884,21.753037,0,0,0,1048,-1,-1560
1885,21.764684,0,0,0,1046,-3,-1561
1886,21.776362,0,0,1,1047,2,-1559
1887,21.788049,0,0,0,1051,0,-1560
1888,21.799718,0,0,0,1050,-1,-1557
1889,21.811428,0,0,-1,1046,-1,-1561
1890,21.823112,0,0,0,1046,0,-1557
1891,21.834808,1,0,0,1047,1,-1559
1892,21.846378,1,0,0,1044,-1,-1564
1893,21.857937,0,0,-1,1045,-1,-1561
1894,21.869494,0,0,1,1044,0,-1561
1895,21.881077,0,0,0,1049,0,-1562
1896,21.892672,1,0,0,1045,-2,-1554
1897,21.90424,1,0,0,1046,-2,-1563
1898,21.9158,0,0,1,1046,-1,-1565
1899,21.927384,0,0,1,1049,1,-1556
1900,21.939042,0,0,0,1050,0,-1562
1901,21.950708,0,0,0,1044,-1,-1556
1902,21.962367,1,1,0,1051,2,-1557
1903,21.97404,1,1,-1,1043,-1,-1562
1904,21.985702,1,0,0,1048,-1,-1556
1905,21.99735,0,0,0,1045,2,-1564
1906,22.009046,0,1,-1,1049,-2,-1558
1907,22.020746,1,0,0,1048,0,-1560
1908,22.032423,0,0,0,1048,-3,-1563
1909,22.044104,0,0,0,1049,1,-1568
1910,22.05574,0,0,0,1051,0,-1557
1911,22.06735,0,1,0,1048,-1,-1557
1912,22.078902,0,0,0,1049,0,-1559
1913,22.090494,0,0,-1,1048,-3,-1560
1914,22.102042,0,0,-1,1043,0,-1565
1915,22.113624,0,0,0,1048,0,-1563
1916,22.125192,0,0,0,1047,-2,-1561
1917,22.13675,1,1,0,1046,-1,-1560
1918,22.148433,1,-1,0,1049,0,-1560
1919,22.160118,1,0,1,1048,0,-1563
1920,22.17178,1,1,0,1053,0,-1562
1921,22.183469,0,0,0,1048,-2,-1563
1922,22.195119,0,1,0,1048,-2,-1563
1923,22.206795,1,-1,0,1050,2,-1562
1924,22.21845,0,0,0,1043,-2,-1562
1925,22.23009,0,0,1,1050,-1,-1556
1926,22.241757,0,0,1,1046,1,-1558
1927,22.253441,0,0,0,1050,2,-1558
1928,22.264999,0,0,1,1047,-1,-1556
1929,22.276563,0,0,1,1050,0,-1555
1930,22.288121,0,-1,0,1046,-3,-1553
1931,22.299665,1,1,0,1044,-1,-1559
1932,22.311225,1,0,0,1048,0,-1561
1933,22.322776,1,0,0,1045,0,-1562
1934,22.334373,1,0,1,1043,0,-1559
1935,22.345935,1,0,0,1044,0,-1559
1936,22.357554,0,0,0,1045,-1,-1565
1937,22.369217,0,0,0,1048,-2,-1558
1938,22.380902,0,0,1,1046,0,-1564
1939,22.392566,1,0,0,1050,-1,-1563
1940,22.404261,0,0,0,1049,1,-1565
1941,22.415976,1,0,0,1050,-2,-1556
1942,22.427654,1,0,1,1048,0,-1559
1943,22.439314,0,1,0,1046,-2,-1555
1944,22.450962,1,-1,0,1050,0,-1560
1945,22.462521,0,0,0,1044,-1,-1568
1946,22.474063,0,0,0,1049,2,-1562
1947,22.485645,1,-1,1,1043,1,-1562
1948,22.497224,1,0,1,1048,0,-1558
1949,22.508796,1,1,0,1047,1,-1556
1950,22.520369,1,0,0,1045,3,-1561
1951,22.531945,0,1,0,1045,0,-1559
1952,22.543494,0,1,0,1045,-1,-1557
1953,22.555069,0,1,1,1047,-1,-1560
1954,22.566691,1,0,0,1046,-1,-1560
1955,22.578345,0,0,1,1042,-2,-1560
1956,22.590027,0,0,0,1046,3,-1561
1957,22.601673,1,0,0,1050,1,-1557
1958,22.613319,0,0,0,1044,-2,-1561
1959,22.625015,0,-1,0,1049,1,-1562
1960,22.636713,0,1,0,1043,0,-1557
1961,22.648553,0,0,0,1051,-2,-1562
1962,22.660278,0,0,0,1046,0,-1557
1963,22.672004,0,0,0,1048,1,-1557
1964,22.683602,0,0,0,1048,1,-1559
1965,22.69515,0,1,0,1045,2,-1562
1966,22.70671,0,1,0,1044,-1,-1555
1967,22.718262,0,0,0,1044,-4,-1563
1968,22.729808,0,-1,0,1044,0,-1562
1969,22.741354,0,1,0,1052,-2,-1557
1970,22.752931,0,1,0,1046,2,-1558
1971,22.764504,0,1,0,1051,-2,-1566
1972,22.776164,0,1,0,1046,0,-1560
1973,22.78786,0,1,1,1045,0,-1561
1974,22.799506,0,0,0,1048,0,-1556
1975,22.811164,1,0,0,1046,0,-1558
1976,22.822815,0,0,0,1048,-4,-1561
1977,22.834462,0,0,-1,1045,0,-1559
1978,22.84611,0,0,0,1047,2,-1561
1979,22.857819,0,1,1,1047,0,-1559
1980,22.869475,0,-1,0,1047,-2,-1556
1981,22.881168,0,0,1,1050,2,-1556
1982,22.892745,0,0,1,1044,1,-1558
1983,22.904313,0,0,0,1047,1,-1561
1984,22.915871,0,0,1,1047,-2,-1558
1985,22.927446,0,0,0,1048,0,-1563
1986,22.938992,0,1,0,1047,1,-1571
1987,22.950526,0,0,0,1049,0,-1561
1988,22.962074,1,0,-1,1048,2,-1554
1989,22.973635,0,0,0,1045,2,-1558
1990,22.985276,0,-1,1,1051,0,-1558
1991,22.996936,1,0,1,1044,-2,-1566
1992,23.008638,0,0,0,1046,5,-1565
1993,23.020304,0,0,0,1046,0,-1557
1994,23.032005,0,0,0,1045,0,-1558
1995,23.043664,0,-1,1,1045,2,-1562
1996,23.055323,0,0,1,1048,-3,-1556
1997,23.067005,1,0,0,1046,0,-1563
1998,23.078678,0,0,0,1048,0,-1564
1999,23.090352,0,0,-1,1046,1,-1557
