sample,t_s,gyro_x,gyro_y,gyro_z,accel_x,accel_y,accel_z
0,1.1e-05,2,4,9,13,24,-1032
1,0.011452,0,9,8,15,25,-1032
2,0.022677,1,8,9,12,26,-1033
3,0.033873,2,6,10,17,26,-1031
4,0.045061,2,5,9,12,24,-1033
5,0.056257,2,4,9,10,25,-1032
6,0.067457,3,7,9,12,25,-1039
7,0.078651,3,7,9,13,26,-1035
8,0.089839,1,5,10,16,31,-1029
9,0.101029,2,5,9,16,25,-1029
10,0.112215,2,5,8,13,29,-1031
11,0.123404,2,6,10,16,25,-1032
12,0.134596,2,5,9,15,28,-1035
13,0.145786,2,6,9,14,26,-1033
14,0.156973,3,7,9,14,29,-1025
15,0.168164,3,7,9,12,25,-1032
16,0.179352,3,7,9,14,26,-1024
17,0.190527,2,6,9,14,28,-1034
18,0.201716,2,7,9,14,29,-1028
19,0.212903,2,7,9,13,30,-1031
20,0.224088,3,6,9,14,28,-1034
21,0.235276,2,7,9,16,24,-1037
22,0.246464,2,6,9,12,26,-1035
23,0.257673,2,6,8,15,24,-1034
24,0.268864,2,5,8,15,28,-1033
25,0.280048,1,6,8,15,27,-1037
26,0.291234,2,7,9,12,27,-1033
27,0.302425,2,7,9,14,29,-1040
28,0.313609,3,7,9,18,27,-1027
29,0.324806,3,6,9,11,23,-1036
30,0.335994,2,6,9,15,25,-1032
31,0.347178,2,6,9,15,25,-1028
32,0.358339,2,5,9,14,24,-1037
33,0.369525,2,5,8,16,27,-1032
34,0.380709,2,6,8,16,28,-1035
35,0.391893,2,6,9,12,26,-1033
36,0.403089,2,5,9,16,28,-1027
37,0.41428,2,8,9,14,23,-1036
38,0.425469,2,7,10,13,26,-1031
39,0.436656,2,7,9,15,24,-1031
40,0.447841,2,7,9,14,27,-1035
41,0.45903,2,6,9,13,26,-1025
42,0.470221,2,5,9,16,28,-1031
43,0.48141,1,5,9,16,21,-1034
44,0.492596,2,5,9,15,30,-1033
45,0.50378,2,6,10,14,27,-1037
46,0.514967,2,5,9,14,30,-1033
47,0.526154,2,5,9,15,24,-1035
48,0.537337,2,5,9,15,22,-1030
49,0.54852,2,5,9,14,26,-1035
50,0.559722,2,6,9,14,29,-1031
51,0.570921,2,6,10,14,25,-1036
52,0.582112,2,6,10,13,27,-1032
53,0.593298,2,6,9,16,27,-1039
54,0.604485,2,6,8,15,28,-1033
55,0.615671,2,6,9,13,24,-1031
56,0.62686,2,6,8,18,25,-1033
57,0.638048,2,6,9,15,25,-1037
58,0.649236,2,7,8,14,28,-1029
59,0.660419,2,6,8,13,28,-1029
60,0.671606,3,6,8,16,28,-1038
61,0.682795,3,6,8,12,26,-1037
62,0.69397,2,7,10,20,26,-1035
63,0.705156,2,5,9,14,24,-1035
64,0.71634,3,5,9,15,29,-1034
65,0.72753,3,6,8,15,25,-1030
66,0.738709,2,6,8,17,23,-1033
67,0.749901,2,5,10,12,27,-1027
68,0.761104,2,6,9,13,24,-1031
69,0.77229,2,6,10,14,25,-1034
70,0.783482,2,5,10,11,26,-1034
71,0.794676,2,5,10,13,28,-1040
72,0.805861,2,5,9,16,28,-1029
73,0.817048,2,5,10,11,24,-1026
74,0.828233,2,5,9,14,26,-1033
75,0.839419,3,5,9,14,28,-1031
76,0.850609,2,5,9,15,25,-1039
77,0.861787,2,6,8,13,27,-1040
78,0.872974,2,7,9,14,24,-1035
79,0.884158,2,5,8,12,26,-1039
80,0.895343,2,5,8,13,28,-1036
81,0.906525,3,4,9,15,27,-1033
82,0.917707,2,6,8,12,26,-1031
83,0.928889,2,6,9,14,28,-1035
84,0.940071,2,5,9,12,26,-1035
85,0.951252,2,7,9,15,26,-1037
86,0.962453,2,6,9,14,27,-1039
87,0.973656,2,6,9,18,25,-1035
88,0.984849,2,6,10,16,25,-1031
89,0.996035,3,6,10,17,27,-1035
90,1.007223,2,5,9,13,25,-1036
91,1.01842,2,5,10,13,28,-1039
92,1.029604,2,6,9,12,27,-1034
93,1.040805,2,6,8,16,21,-1036
94,1.051993,3,8,9,15,30,-1039
95,1.06318,3,8,10,15,26,-1036
96,1.074343,2,7,9,14,24,-1034
97,1.085537,2,6,10,12,26,-1034
98,1.096725,2,7,9,17,29,-1033
99,1.107913,3,7,8,17,27,-1030
100,1.119113,3,8,8,17,25,-1033
101,1.1303,2,6,10,13,28,-1031
102,1.141485,2,6,9,11,26,-1036
103,1.152673,2,5,10,12,31,-1034
104,1.163857,2,5,9,16,26,-1035
105,1.175044,2,6,9,14,24,-1032
106,1.18623,1,6,9,13,29,-1029
107,1.197416,2,6,9,17,26,-1037
108,1.208602,1,4,9,15,27,-1033
109,1.21979,2,4,9,11,19,-1029
110,1.230981,2,5,9,16,29,-1033
111,1.24216,2,6,9,12,25,-1026
112,1.253348,3,5,9,10,25,-1035
113,1.264539,3,5,9,16,27,-1034
114,1.275726,3,6,8,17,26,-1035
115,1.28692,2,7,9,14,21,-1031
116,1.298107,3,7,9,12,28,-1031
117,1.309299,3,7,9,15,24,-1034
118,1.320492,2,6,10,12,26,-1032
119,1.331677,3,6,9,12,23,-1036
120,1.34286,3,6,9,15,23,-1034
121,1.354049,3,6,9,17,24,-1028
122,1.365235,3,5,9,17,26,-1034
123,1.376418,2,5,10,14,26,-1036
124,1.387604,2,5,9,14,26,-1034
125,1.398792,2,6,8,16,26,-1037
126,1.409969,2,5,9,14,25,-1037
127,1.421156,2,6,10,13,25,-1034
128,1.43234,3,6,9,12,25,-1035
129,1.443528,2,6,9,13,26,-1034
130,1.454731,2,6,9,14,29,-1038
131,1.465916,2,7,9,11,25,-1028
132,1.477115,2,6,9,14,29,-1036
133,1.488301,2,6,10,12,26,-1031
134,1.499487,3,7,9,15,27,-1037
135,1.510674,3,7,9,14,24,-1044
136,1.52186,2,6,9,18,27,-1032
137,1.533046,1,6,8,13,24,-1027
138,1.54423,2,6,9,16,28,-1034
139,1.555419,2,6,10,15,25,-1035
140,1.566608,3,6,10,17,27,-1033
141,1.577786,2,5,10,14,27,-1038
142,1.588974,2,5,10,13,21,-1037
143,1.600168,2,5,9,15,26,-1031
144,1.611353,3,5,9,11,26,-1041
145,1.622527,3,6,9,15,27,-1032
146,1.633712,2,6,10,11,26,-1028
147,1.644901,3,6,10,11,26,-1035
148,1.656088,3,6,10,13,30,-1039
149,1.66728,3,6,9,14,27,-1036
150,1.67848,2,6,9,13,30,-1039
151,1.689666,2,6,9,15,29,-1032
152,1.70085,2,7,9,14,25,-1028
153,1.712036,2,7,9,16,23,-1031
154,1.72322,3,7,9,12,26,-1032
155,1.734419,3,7,10,15,24,-1035
156,1.745604,2,6,9,13,26,-1035
157,1.756798,2,6,10,12,28,-1034
158,1.767983,2,6,9,12,26,-1037
159,1.779168,2,6,9,14,29,-1036
160,1.79035,2,5,10,15,28,-1039
161,1.801537,2,5,8,16,24,-1030
162,1.812725,2,5,9,12,33,-1027
163,1.823913,2,6,8,12,25,-1036
164,1.83511,3,5,9,12,29,-1029
165,1.846296,2,7,8,11,30,-1030
166,1.857481,3,8,8,16,24,-1035
167,1.868667,4,7,9,16,24,-1034
168,1.879851,2,8,9,15,25,-1033
169,1.891037,2,7,9,15,29,-1035
170,1.902223,2,8,9,14,29,-1030
171,1.913409,2,7,9,14,23,-1033
172,1.924595,3,7,9,14,24,-1034
173,1.935782,3,6,9,17,28,-1037
174,1.946968,2,8,9,12,31,-1031
175,1.958158,2,7,9,9,25,-1030
176,1.969344,2,7,9,18,25,-1034
177,1.980533,2,7,9,12,28,-1041
178,1.991722,3,6,8,13,29,-1032
179,2.002913,2,5,10,13,26,-1035
180,2.014099,2,5,9,19,25,-1028
181,2.0253,2,5,9,16,22,-1037
182,2.036553,2,6,9,16,25,-1034
183,2.04784,2,7,9,15,28,-1041
184,2.059038,2,6,9,16,22,-1027
185,2.07023,3,7,9,11,27,-1031
186,2.081422,2,6,9,13,27,-1034
187,2.092611,2,7,8,18,27,-1036
188,2.103804,2,6,9,16,24,-1031
189,2.114993,2,5,9,14,27,-1034
190,2.126158,2,7,9,15,26,-1032
191,2.137347,3,7,9,12,22,-1034
192,2.148544,2,5,9,13,28,-1036
193,2.159731,1,5,9,14,24,-1032
194,2.170924,2,5,9,16,23,-1033
195,2.182115,2,7,8,17,24,-1033
196,2.193325,2,8,9,14,27,-1029
197,2.204512,2,7,9,18,26,-1038
198,2.215698,2,4,8,10,28,-1032
199,2.226913,2,6,9,15,26,-1029
200,2.238102,2,4,9,8,25,-1036
201,2.249293,2,5,10,13,23,-1032
202,2.260489,2,5,10,12,26,-1028
203,2.271674,4,8,9,13,29,-1030
204,2.282858,3,8,8,15,24,-1033
205,2.294045,2,7,9,17,24,-1039
206,2.305228,2,7,9,13,28,-1029
207,2.316411,3,7,9,15,29,-1035
208,2.327596,2,6,9,15,25,-1036
209,2.338783,3,7,8,14,27,-1032
210,2.34997,3,7,9,15,26,-1034
211,2.361157,2,6,9,17,24,-1032
212,2.372344,3,7,8,14,28,-1040
213,2.383527,3,7,8,16,25,-1034
214,2.394724,2,6,9,17,23,-1036
215,2.405912,2,7,10,16,23,-1035
216,2.417094,2,6,10,13,24,-1036
217,2.428279,2,6,10,13,29,-1029
218,2.439463,3,5,9,15,23,-1038
219,2.450655,2,6,9,14,24,-1035
220,2.461845,2,6,9,15,23,-1030
221,2.47303,2,7,9,15,28,-1034
222,2.484218,1,5,9,15,27,-1037
223,2.495402,2,5,9,12,29,-1037
224,2.506593,3,6,9,14,23,-1033
225,2.517783,3,7,9,13,25,-1037
226,2.528969,2,6,9,10,27,-1034
227,2.540156,2,6,9,16,27,-1031
228,2.55135,2,7,9,12,27,-1035
229,2.562533,2,7,9,15,24,-1038
230,2.573716,3,7,9,13,31,-1030
231,2.584902,3,6,9,15,26,-1035
232,2.596093,3,7,9,14,28,-1033
233,2.607277,2,7,10,12,23,-1032
234,2.618474,2,6,10,20,24,-1038
235,2.629661,3,5,10,13,25,-1038
236,2.640845,2,4,9,14,27,-1033
237,2.65203,2,4,9,15,28,-1033
238,2.663212,2,4,9,15,27,-1028
239,2.674399,2,5,10,16,25,-1036
240,2.685588,3,5,9,15,27,-1037
241,2.696774,2,4,10,19,25,-1030
242,2.70796,2,4,10,10,25,-1035
243,2.719146,2,5,9,14,29,-1036
244,2.73034,3,5,9,15,26,-1031
245,2.741528,3,6,9,11,27,-1037
246,2.752715,2,7,9,11,25,-1033
247,2.763901,2,6,9,16,25,-1037
248,2.775088,2,7,9,12,24,-1037
249,2.786281,2,7,8,16,23,-1036
250,2.797472,3,6,9,11,28,-1032
251,2.808659,1,5,9,15,27,-1033
252,2.819843,2,5,9,13,26,-1042
253,2.831029,2,6,9,16,28,-1033
254,2.842223,2,6,9,16,29,-1038
255,2.853411,2,6,9,12,28,-1034
256,2.864598,2,5,9,18,24,-1032
257,2.875787,3,6,9,11,22,-1036
258,2.886975,2,7,10,17,26,-1038
259,2.898154,2,7,9,16,25,-1033
260,2.90936,3,6,8,19,27,-1039
261,2.920548,3,7,10,15,28,-1036
262,2.931734,2,5,10,12,26,-1032
263,2.942919,1,5,10,17,26,-1034
264,2.954105,2,6,9,15,29,-1036
265,2.965289,2,5,10,9,22,-1031
266,2.97648,2,6,10,13,28,-1040
267,2.987664,2,4,10,13,24,-1034
268,2.998854,1,4,9,12,25,-1038
269,3.010043,1,4,9,14,23,-1031
270,3.021228,2,5,9,13,27,-1036
271,3.032423,3,7,8,13,25,-1030
272,3.043607,3,6,8,15,24,-1037
273,3.054793,2,6,9,12,23,-1032
274,3.06597,3,6,8,14,28,-1035
275,3.077153,3,5,8,13,24,-1034
276,3.088342,2,5,8,14,28,-1038
277,3.099529,3,6,9,13,31,-1031
278,3.110715,3,5,8,13,27,-1033
279,3.121904,2,6,10,15,27,-1031
280,3.133091,2,7,9,17,24,-1036
281,3.144276,3,7,9,17,22,-1032
282,3.155468,2,6,9,15,27,-1033
283,3.166657,2,6,9,17,27,-1033
284,3.177843,2,7,10,12,23,-1037
285,3.18903,2,7,10,14,27,-1037
286,3.200214,2,7,9,10,28,-1025
287,3.211401,2,7,9,15,27,-1038
288,3.22259,3,7,9,15,27,-1037
289,3.233785,1,5,9,11,28,-1032
290,3.244972,2,5,9,13,23,-1031
291,3.256168,2,6,9,18,27,-1035
292,3.267353,2,5,9,16,22,-1038
293,3.27853,2,5,9,15,25,-1025
294,3.289715,2,5,9,15,27,-1029
295,3.300906,3,5,8,14,26,-1030
296,3.31209,3,5,9,14,29,-1032
297,3.323279,3,7,9,14,26,-1033
298,3.334468,3,8,9,15,26,-1031
299,3.345652,3,8,9,13,27,-1037
300,3.356839,3,7,8,11,25,-1032
301,3.368022,3,7,9,15,27,-1032
302,3.379208,3,7,9,11,26,-1036
303,3.390405,3,7,8,12,23,-1031
304,3.401587,3,7,9,15,30,-1039
305,3.41278,1,7,10,16,23,-1035
306,3.423969,2,6,9,10,27,-1035
307,3.435153,2,5,9,17,31,-1037
308,3.446348,1,4,10,15,25,-1033
309,3.457546,2,5,9,14,22,-1038
310,3.468733,2,6,9,20,27,-1031
311,3.479922,2,7,9,17,26,-1034
312,3.491114,2,6,9,12,24,-1027
313,3.502303,2,5,9,14,31,-1029
314,3.513522,2,6,10,14,28,-1034
315,3.524711,2,6,9,13,28,-1031
316,3.535899,2,6,10,16,22,-1033
317,3.547086,2,5,8,16,30,-1036
318,3.558275,2,6,8,12,26,-1039
319,3.569464,2,6,9,14,23,-1038
320,3.580653,3,6,9,13,26,-1034
321,3.591838,2,7,9,14,26,-1032
322,3.603025,3,7,8,14,27,-1028
323,3.614222,3,8,9,11,22,-1037
324,3.625407,3,7,9,17,27,-1037
325,3.636595,3,7,9,11,26,-1037
326,3.647788,1,7,9,12,30,-1032
327,3.658976,2,5,9,14,27,-1041
328,3.670156,3,4,9,18,29,-1035
329,3.681341,2,4,9,17,26,-1039
330,3.692532,2,4,9,16,26,-1037
331,3.703717,1,5,9,10,24,-1037
332,3.714907,3,5,9,13,29,-1040
333,3.726097,2,6,9,12,31,-1033
334,3.737282,3,7,9,16,25,-1037
335,3.748472,3,6,8,15,24,-1041
336,3.759657,3,8,9,17,29,-1034
337,3.770845,3,7,9,13,23,-1032
338,3.782031,3,8,9,12,26,-1035
339,3.793214,2,7,9,11,27,-1034
340,3.8044,2,7,9,14,23,-1031
341,3.815581,3,7,9,13,25,-1036
342,3.826769,3,6,10,16,28,-1036
343,3.837969,2,7,8,17,29,-1037
344,3.849152,2,6,10,12,25,-1031
345,3.86034,3,7,9,11,23,-1034
346,3.871523,2,6,9,17,26,-1031
347,3.882712,3,6,10,16,29,-1035
348,3.893904,2,6,9,15,24,-1034
349,3.905088,3,5,9,14,27,-1036
350,3.916272,3,6,9,17,25,-1037
351,3.927461,2,4,9,11,24,-1034
352,3.93865,2,4,10,14,23,-1031
353,3.949839,2,6,9,13,28,-1038
354,3.961027,2,5,9,15,26,-1032
355,3.972224,2,7,9,14,27,-1039
356,3.983417,2,6,9,15,24,-1034
357,3.994604,1,5,10,12,28,-1035
358,4.005784,1,6,9,12,21,-1035
359,4.016968,2,6,9,12,20,-1036
360,4.028153,2,6,11,20,25,-1040
361,4.039341,3,6,10,14,24,-1029
362,4.050527,3,7,9,15,27,-1032
363,4.06171,2,6,9,12,27,-1031
364,4.0729,3,6,9,15,26,-1032
365,4.084081,2,5,10,12,25,-1032
366,4.09527,2,6,10,12,26,-1033
367,4.106462,1,5,9,13,25,-1038
368,4.117645,2,5,9,17,28,-1038
369,4.128836,2,6,9,12,26,-1034
370,4.140015,2,4,9,11,26,-1032
371,4.151206,3,5,9,16,27,-1028
372,4.162403,2,6,8,15,26,-1033
373,4.173586,3,6,9,11,25,-1034
374,4.184779,1,7,9,11,25,-1031
375,4.195964,2,8,9,17,24,-1034
376,4.207149,2,7,8,12,29,-1033
377,4.218344,2,6,8,15,28,-1035
378,4.229529,3,6,10,14,27,-1030
379,4.240715,2,6,10,16,27,-1033
380,4.251899,2,6,9,16,25,-1041
381,4.263083,2,6,9,11,29,-1036
382,4.274276,2,6,9,16,26,-1033
383,4.285463,2,6,8,8,25,-1027
384,4.296647,2,6,9,10,22,-1032
385,4.307838,2,4,9,12,28,-1036
386,4.319022,2,5,10,12,26,-1025
387,4.330222,2,6,9,17,29,-1039
388,4.341408,3,5,9,10,28,-1034
389,4.352593,3,7,9,14,28,-1041
390,4.363774,3,7,9,15,32,-1028
391,4.374966,4,8,9,17,26,-1040
392,4.386157,3,6,9,16,29,-1028
393,4.39734,2,6,9,12,28,-1034
394,4.408532,3,7,9,17,26,-1038
395,4.419715,2,6,10,15,27,-1035
396,4.430905,2,6,10,13,23,-1034
397,4.44209,3,6,10,15,25,-1038
398,4.453287,2,5,10,16,26,-1028
399,4.464472,2,5,9,11,28,-1029
400,4.475655,2,5,8,17,23,-1033
401,4.486845,2,5,9,13,24,-1031
402,4.498032,2,5,9,14,25,-1032
403,4.509217,2,6,8,11,28,-1036
404,4.520425,2,5,8,14,26,-1030
405,4.532106,3,6,9,15,21,-1036
406,4.543759,3,6,9,12,29,-1039
407,4.555424,2,6,9,10,26,-1038
408,4.567111,2,7,9,11,24,-1033
409,4.578768,2,6,9,10,25,-1027
410,4.590431,3,6,8,11,27,-1035
411,4.60209,2,6,9,15,26,-1041
412,4.613738,2,7,9,13,25,-1033
413,4.625389,2,6,9,17,27,-1033
414,4.636943,2,6,9,14,24,-1029
415,4.648523,2,5,8,16,31,-1037
416,4.660074,2,6,8,15,31,-1035
417,4.67167,2,6,9,13,27,-1036
418,4.68322,3,6,8,12,25,-1038
419,4.694819,3,6,9,10,26,-1034
420,4.706377,2,6,9,15,26,-1036
421,4.71795,2,6,10,17,21,-1028
422,4.729562,2,6,9,18,25,-1035
423,4.741135,3,6,9,12,26,-1028
424,4.75269,2,6,9,10,29,-1032
425,4.764235,2,6,9,15,27,-1033
426,4.775783,2,6,9,16,23,-1042
427,4.787336,1,6,9,14,25,-1036
428,4.798924,2,6,9,13,25,-1036
429,4.810496,2,7,10,15,29,-1028
430,4.822065,3,6,10,15,25,-1037
431,4.833684,2,6,9,19,27,-1034
432,4.845341,2,6,9,16,29,-1032
433,4.857023,2,6,8,15,28,-1031
434,4.868685,2,6,10,16,30,-1036
435,4.880345,3,6,10,14,25,-1038
436,4.891994,2,6,9,13,27,-1029
437,4.903632,2,5,8,17,24,-1035
438,4.915282,2,6,9,16,27,-1031
439,4.926948,2,7,9,11,25,-1036
440,4.938617,2,7,9,17,23,-1030
441,4.95035,1,6,9,12,27,-1033
442,4.962011,2,6,9,14,26,-1040
443,4.973674,3,6,8,12,26,-1030
444,4.985333,3,6,8,13,28,-1028
445,4.996982,3,6,9,15,25,-1029
446,5.008624,2,6,9,11,30,-1038
447,5.020278,2,6,8,17,27,-1034
448,5.031918,2,6,9,12,26,-1035
449,5.043599,2,6,9,16,22,-1043
450,5.055253,2,5,10,13,30,-1037
451,5.066922,3,6,10,14,27,-1028
452,5.078599,2,6,9,14,22,-1035
453,5.090257,2,6,9,12,28,-1034
454,5.101903,2,6,9,12,26,-1029
455,5.113545,4,6,8,13,30,-1028
456,5.125216,3,6,9,12,26,-1032
457,5.136864,3,6,9,15,26,-1039
458,5.148539,2,6,9,12,26,-1034
459,5.160213,2,6,10,14,29,-1032
460,5.171861,2,6,8,16,24,-1030
461,5.18351,2,6,9,14,25,-1037
462,5.195159,2,7,9,17,25,-1036
463,5.206841,1,6,10,11,28,-1031
464,5.2185,2,6,8,13,26,-1032
465,5.230148,3,6,9,11,26,-1032
466,5.241814,2,7,9,13,26,-1040
467,5.253485,2,6,9,14,24,-1035
468,5.265141,2,6,10,16,24,-1031
469,5.276701,2,6,9,15,26,-1033
470,5.288247,3,6,9,17,28,-1031
471,5.299796,2,6,9,13,28,-1040
472,5.31136,2,6,9,19,27,-1030
473,5.322922,3,6,8,17,29,-1035
474,5.33448,2,6,9,16,27,-1030
475,5.346059,2,6,9,16,25,-1033
476,5.357613,2,6,9,10,26,-1037
477,5.369242,1,6,9,14,26,-1038
478,5.380892,2,6,9,13,25,-1031
479,5.392547,2,6,8,14,23,-1032
480,5.404217,2,6,9,16,23,-1035
481,5.415863,2,6,9,16,24,-1031
482,5.42751,2,6,9,14,28,-1036
483,5.439216,1,7,9,15,26,-1034
484,5.450867,2,6,9,15,25,-1034
485,5.462557,2,6,9,15,24,-1031
486,5.474211,2,6,9,12,28,-1033
487,5.485777,3,6,9,14,24,-1035
488,5.497329,2,6,9,17,27,-1032
489,5.508908,3,6,9,17,24,-1027
490,5.520459,3,7,9,14,25,-1033
491,5.532029,3,6,9,16,25,-1034
492,5.543572,2,6,9,14,29,-1029
493,5.55515,2,5,10,13,27,-1030
494,5.566715,2,6,10,8,22,-1028
495,5.578364,2,6,8,14,23,-1029
496,5.59002,2,5,9,11,22,-1033
497,5.601688,2,6,9,12,24,-1032
498,5.613343,2,6,9,13,27,-1034
499,5.624989,2,6,10,13,32,-1035
500,5.636632,2,5,9,16,22,-1033
501,5.648293,3,7,10,18,25,-1027
502,5.659941,2,6,8,14,29,-1032
503,5.67161,2,6,9,13,29,-1033
504,5.683322,2,6,10,15,26,-1032
505,5.694922,2,6,9,11,27,-1043
506,5.706479,2,6,10,16,25,-1030
507,5.718053,2,6,9,17,28,-1042
508,5.72963,2,6,9,10,28,-1025
509,5.741177,2,6,10,14,27,-1037
510,5.752736,2,6,9,13,25,-1036
511,5.764287,2,6,9,14,26,-1039
512,5.775847,2,6,9,15,25,-1035
513,5.787487,2,6,9,11,27,-1034
514,5.799129,2,6,9,12,27,-1033
515,5.810822,2,6,9,12,27,-1035
516,5.822497,2,6,8,17,28,-1036
517,5.834168,2,6,9,16,31,-1033
518,5.845835,2,5,9,16,26,-1033
519,5.857495,3,6,9,12,26,-1036
520,5.86915,2,6,9,19,26,-1027
521,5.880816,3,6,8,13,27,-1035
522,5.892508,2,6,9,14,24,-1037
523,5.904073,2,7,9,17,28,-1034
524,5.915694,3,6,9,11,27,-1034
525,5.927296,2,6,9,14,29,-1036
526,5.938987,2,6,9,10,26,-1032
527,5.950551,2,6,9,13,24,-1037
528,5.962112,2,6,9,14,27,-1030
529,5.973666,2,6,10,14,27,-1032
530,5.985226,2,6,9,14,27,-1028
531,5.996882,2,6,9,18,22,-1031
532,6.008575,2,6,9,17,28,-1034
533,6.020229,2,5,9,17,28,-1030
534,6.03189,2,6,9,9,28,-1033
535,6.043609,2,6,9,16,26,-1031
536,6.055272,2,6,9,17,25,-1032
537,6.066958,2,6,9,12,27,-1037
538,6.07861,2,6,9,14,25,-1036
539,6.090281,2,6,9,16,26,-1029
540,6.101979,2,6,9,17,24,-1036
541,6.113534,2,6,8,12,22,-1037
542,6.125095,2,6,9,14,28,-1036
543,6.136659,1,7,9,13,25,-1037
544,6.148209,2,7,8,15,23,-1039
545,6.159778,2,7,9,17,24,-1026
546,6.171358,2,6,9,13,26,-1032
547,6.182929,3,6,9,10,25,-1032
548,6.194491,2,7,9,15,26,-1028
549,6.206095,2,6,9,11,28,-1037
550,6.217752,2,6,9,15,30,-1036
551,6.229401,2,5,8,14,25,-1034
552,6.241065,2,5,9,16,28,-1037
553,6.252725,2,5,9,15,28,-1031
554,6.26439,2,6,9,16,27,-1030
555,6.276043,2,7,9,14,24,-1044
556,6.287745,2,6,9,15,32,-1037
557,6.299405,2,5,10,14,30,-1037
558,6.311096,2,5,9,18,26,-1033
559,6.322677,3,6,9,17,27,-1033
560,6.334228,2,6,9,10,22,-1032
561,6.345799,2,6,9,11,29,-1035
562,6.357365,3,5,9,12,26,-1030
563,6.368912,2,6,8,14,24,-1025
564,6.380484,2,6,8,14,29,-1027
565,6.39204,3,7,9,15,24,-1033
566,6.403603,2,6,9,15,29,-1035
567,6.415232,2,6,9,13,25,-1034
568,6.426896,2,6,9,16,26,-1040
569,6.438582,2,6,9,13,24,-1033
570,6.450241,2,7,9,13,25,-1029
571,6.461901,2,6,10,15,28,-1034
572,6.473592,2,6,9,18,27,-1033
573,6.485235,2,6,9,14,26,-1028
574,6.496883,2,6,9,17,25,-1044
575,6.508582,1,6,9,19,25,-1034
576,6.52024,2,7,8,17,25,-1034
577,6.531805,2,6,9,16,24,-1033
578,6.543415,3,6,9,13,22,-1031
579,6.554977,2,7,10,17,27,-1035
580,6.566547,2,7,9,16,27,-1038
581,6.578066,2,7,9,15,23,-1035
582,6.589625,2,6,9,13,26,-1033
583,6.601177,2,7,9,11,32,-1029
584,6.612739,2,6,9,15,26,-1034
585,6.62436,2,7,9,17,27,-1038
586,6.636015,2,6,9,12,27,-1034
587,6.647693,2,6,9,14,25,-1035
588,6.659373,2,6,9,12,24,-1034
589,6.671029,1,7,8,17,27,-1029
590,6.682724,2,7,9,17,26,-1036
591,6.694351,2,6,9,16,28,-1030
592,6.706009,2,7,8,13,27,-1036
593,6.717716,2,6,9,14,28,-1027
594,6.729379,2,5,9,15,25,-1036
595,6.740926,2,6,9,13,26,-1032
596,6.752469,2,6,9,15,29,-1037
597,6.764011,2,6,9,15,28,-1028
598,6.775561,3,6,9,16,27,-1032
599,6.787126,3,6,10,16,24,-1030
600,6.798687,2,5,9,16,24,-1036
601,6.810286,2,5,9,16,24,-1023
602,6.821833,2,7,9,15,24,-1029
603,6.833466,3,6,9,13,27,-1038
604,6.845125,2,6,9,13,30,-1036
605,6.856778,2,6,9,13,22,-1034
606,6.868444,3,7,9,13,23,-1033
607,6.880095,3,6,10,15,29,-1031
608,6.89175,3,6,9,15,22,-1036
609,6.903416,2,6,9,16,27,-1039
610,6.915126,2,6,9,12,28,-1040
611,6.926816,2,6,10,13,23,-1036
612,6.93847,2,6,9,16,27,-1032
613,6.950057,2,6,9,14,26,-1035
614,6.961627,3,6,10,13,24,-1037
615,6.973175,2,7,9,13,25,-1036
616,6.984721,3,6,8,14,29,-1030
617,6.996271,2,6,9,14,28,-1034
618,7.007823,2,6,10,17,26,-1036
619,7.019389,3,5,9,13,24,-1035
620,7.030963,3,6,9,17,27,-1031
621,7.042658,2,7,9,11,25,-1036
622,7.054352,2,6,9,15,24,-1034
623,7.066001,2,7,9,12,25,-1032
624,7.077654,3,6,9,17,27,-1036
625,7.089337,3,6,9,15,29,-1033
626,7.100979,3,6,9,18,25,-1032
627,7.112628,3,7,8,18,24,-1033
628,7.124294,2,6,8,15,24,-1029
629,7.135969,2,7,10,13,27,-1030
630,7.147616,2,6,9,12,29,-1029
631,7.159183,3,6,9,16,26,-1040
632,7.170738,2,6,9,15,30,-1033
633,7.182296,2,6,9,11,29,-1032
634,7.193877,1,6,8,17,23,-1035
635,7.20542,2,6,9,18,23,-1031
636,7.216976,2,6,9,14,30,-1030
637,7.228527,3,7,10,14,24,-1037
638,7.240097,2,7,9,12,27,-1035
639,7.251721,2,6,9,15,25,-1039
640,7.263372,2,6,8,15,26,-1036
641,7.275049,2,7,9,18,26,-1036
642,7.286759,2,7,8,13,25,-1032
643,7.298466,2,6,9,11,28,-1033
644,7.310092,2,6,9,14,31,-1026
645,7.321747,2,6,10,12,31,-1033
646,7.333415,2,6,9,14,24,-1032
647,7.345088,2,6,9,14,26,-1035
648,7.356738,2,6,8,15,28,-1039
649,7.368304,3,7,10,13,28,-1032
650,7.379893,2,6,9,13,26,-1034
651,7.391439,2,6,9,13,24,-1030
652,7.403013,2,6,9,12,23,-1031
653,7.414547,2,6,9,16,25,-1032
654,7.426119,3,6,9,15,27,-1032
655,7.437665,3,6,9,16,30,-1030
656,7.449283,3,6,8,14,23,-1039
657,7.460969,3,6,8,15,26,-1030
658,7.472631,3,6,8,12,27,-1027
659,7.484311,3,7,9,13,28,-1040
660,7.495968,2,6,9,16,29,-1028
661,7.507619,2,5,9,14,32,-1033
662,7.519301,2,6,9,13,30,-1041
663,7.530985,2,6,9,18,25,-1028
664,7.542604,2,6,10,13,24,-1024
665,7.554293,2,7,9,16,28,-1036
666,7.565974,2,6,9,11,27,-1034
667,7.577533,2,7,10,14,25,-1036
668,7.58908,3,7,8,15,25,-1028
669,7.600644,2,6,10,18,23,-1032
670,7.612188,2,5,9,13,22,-1031
671,7.62374,2,6,9,19,25,-1040
672,7.635283,2,5,9,14,24,-1036
673,7.64687,3,6,9,13,27,-1034
674,7.658465,2,6,10,16,23,-1030
675,7.670091,3,6,9,15,25,-1039
676,7.681747,3,6,9,14,24,-1036
677,7.693391,3,6,9,16,27,-1033
678,7.705052,2,5,10,18,28,-1032
679,7.716708,2,5,10,12,27,-1039
680,7.728353,2,6,9,17,27,-1029
681,7.740033,2,6,9,15,29,-1036
682,7.751732,2,7,10,17,22,-1035
683,7.763412,3,6,9,16,23,-1039
684,7.77507,3,7,9,14,25,-1035
685,7.786666,3,6,9,16,24,-1036
686,7.798257,3,6,9,19,28,-1030
687,7.80982,3,6,10,16,25,-1039
688,7.821395,3,6,9,10,28,-1033
689,7.832934,2,6,10,13,23,-1031
690,7.844477,2,6,10,12,27,-1038
691,7.856023,2,6,9,14,28,-1024
692,7.867582,3,6,10,16,26,-1035
693,7.87924,3,6,9,17,22,-1031
694,7.890932,2,6,9,17,24,-1036
695,7.902612,2,6,9,15,27,-1034
696,7.914343,2,6,9,12,23,-1033
697,7.926016,2,6,9,15,26,-1038
698,7.93768,2,6,9,13,24,-1042
699,7.949339,2,6,9,15,29,-1031
700,7.960997,2,6,10,14,26,-1034
701,7.972693,2,7,10,18,24,-1036
702,7.984352,3,7,9,10,27,-1033
703,7.995909,2,6,8,16,30,-1033
704,8.007481,2,6,9,15,24,-1031
705,8.019031,2,5,9,14,30,-1036
706,8.030572,3,6,9,12,25,-1039
707,8.042197,2,6,9,14,24,-1033
708,8.053913,2,5,9,15,29,-1036
709,8.06547,2,6,9,17,25,-1029
710,8.077073,3,6,9,16,28,-1028
711,8.088652,2,6,9,17,26,-1032
712,8.10023,2,7,10,13,25,-1030
713,8.11179,2,6,10,11,26,-1036
714,8.123351,3,6,9,17,32,-1032
715,8.134915,2,6,9,11,26,-1035
716,8.146462,2,6,9,15,28,-1034
717,8.158011,2,6,10,14,26,-1029
718,8.16956,3,5,9,12,23,-1035
719,8.181138,3,6,9,16,25,-1036
720,8.192828,2,6,9,13,27,-1036
721,8.204482,2,6,9,15,23,-1045
722,8.216132,2,5,8,11,26,-1036
723,8.227806,2,7,10,12,22,-1032
724,8.239451,1,6,9,14,26,-1034
725,8.25114,2,7,9,13,28,-1038
726,8.262796,2,7,9,16,25,-1029
727,8.274473,3,6,9,15,24,-1030
728,8.286158,3,5,9,11,25,-1034
729,8.297826,3,6,9,16,26,-1038
730,8.309391,2,5,9,15,28,-1037
731,8.320947,3,6,9,16,26,-1028
732,8.332498,2,6,10,15,25,-1036
733,8.344053,2,5,9,13,28,-1035
734,8.355634,2,6,8,13,25,-1035
735,8.367189,1,6,9,16,28,-1033
736,8.378773,2,5,9,15,27,-1038
737,8.39032,3,5,9,14,27,-1031
738,8.402023,2,6,9,16,31,-1037
739,8.4137,2,6,9,18,27,-1032
740,8.425354,2,6,10,15,24,-1034
741,8.437014,3,6,9,15,25,-1033
742,8.44867,2,6,9,15,24,-1033
743,8.460327,2,6,9,11,28,-1029
744,8.471982,2,7,9,15,29,-1037
745,8.483625,1,5,9,19,27,-1040
746,8.495291,3,6,9,11,26,-1033
747,8.506963,2,6,8,12,25,-1032
748,8.518548,2,7,9,12,22,-1030
749,8.530136,2,7,9,14,23,-1041
750,8.541675,3,5,9,16,22,-1034
751,8.553217,3,6,9,14,26,-1033
752,8.564765,2,7,9,13,23,-1034
753,8.576319,2,6,9,13,25,-1035
754,8.587865,2,6,9,14,25,-1038
755,8.599423,2,6,10,15,28,-1033
756,8.611112,2,6,9,13,28,-1037
757,8.622802,3,6,9,17,24,-1035
758,8.634479,2,6,8,13,29,-1030
759,8.646158,2,6,9,13,29,-1034
760,8.657833,2,6,10,15,29,-1039
761,8.669644,2,6,8,11,24,-1035
762,8.681311,2,6,9,13,26,-1037
763,8.692963,1,6,8,16,25,-1036
764,8.704632,3,6,8,15,27,-1032
765,8.716302,2,6,9,17,27,-1033
766,8.727963,2,5,9,15,24,-1035
767,8.739607,2,7,9,14,23,-1039
768,8.751284,2,6,9,17,27,-1036
769,8.762975,3,6,9,15,22,-1035
770,8.774634,3,6,8,9,26,-1035
771,8.786335,2,6,9,12,27,-1032
772,8.797975,3,6,9,12,26,-1030
773,8.809641,2,6,9,17,26,-1034
774,8.821316,2,6,9,15,27,-1035
775,8.832886,2,6,10,11,23,-1032
776,8.844432,2,5,8,13,28,-1028
777,8.855974,3,6,10,17,26,-1033
778,8.867512,2,5,9,18,27,-1027
779,8.879027,3,6,9,15,27,-1034
780,8.890596,2,6,9,16,29,-1037
781,8.902183,2,6,10,13,25,-1035
782,8.913747,2,6,9,14,26,-1036
783,8.925444,3,6,9,16,26,-1031
784,8.937108,3,6,9,13,27,-1033
785,8.948761,2,6,9,16,26,-1031
786,8.960436,2,6,10,11,26,-1035
787,8.972078,3,7,10,16,27,-1041
788,8.983744,2,6,9,20,26,-1034
789,8.995416,2,6,9,14,26,-1037
790,9.007098,3,6,9,15,29,-1030
791,9.018793,2,6,10,16,23,-1032
792,9.030455,2,6,8,10,26,-1034
793,9.042025,2,5,9,14,27,-1032
794,9.053609,2,6,9,14,26,-1034
795,9.065159,2,6,10,17,26,-1038
796,9.076727,2,6,10,13,25,-1041
797,9.088273,2,6,9,19,25,-1033
798,9.099818,2,7,10,17,25,-1035
799,9.11137,3,6,10,15,27,-1031
800,9.122935,2,6,9,10,23,-1035
801,9.134626,2,6,9,12,29,-1031
802,9.146291,2,6,9,17,30,-1029
803,9.15796,2,6,9,15,28,-1032
804,9.169604,2,7,9,17,32,-1035
805,9.18125,3,6,9,14,29,-1031
806,9.192921,2,6,10,16,25,-1034
807,9.204572,2,6,9,17,26,-1037
808,9.216223,2,6,9,11,28,-1030
809,9.227885,3,6,9,12,24,-1039
810,9.239527,2,6,8,16,25,-1034
811,9.251117,3,6,9,14,26,-1040
812,9.262668,2,6,9,15,27,-1035
813,9.274221,2,7,9,13,26,-1032
814,9.285768,3,6,9,17,23,-1033
815,9.297331,3,6,9,13,29,-1031
816,9.308889,1,5,9,12,26,-1034
817,9.320442,2,5,9,13,24,-1032
818,9.332016,3,5,9,12,27,-1035
819,9.343638,2,6,9,12,27,-1038
820,9.355306,2,6,9,14,29,-1034
821,9.36698,3,6,8,14,25,-1030
822,9.378602,2,6,8,15,25,-1029
823,9.390277,3,6,9,14,25,-1034
824,9.401966,2,7,9,18,27,-1026
825,9.41363,2,6,9,18,26,-1031
826,9.425297,1,6,9,11,27,-1030
827,9.436965,2,6,9,13,22,-1037
828,9.448629,2,6,9,10,24,-1030
829,9.460193,2,6,8,13,26,-1035
830,9.471762,2,5,9,19,24,-1040
831,9.483306,2,6,9,13,28,-1034
832,9.494887,2,6,9,15,27,-1034
833,9.506465,2,5,9,14,29,-1032
834,9.518042,2,6,9,16,23,-1030
835,9.529595,3,6,9,13,26,-1036
836,9.541157,3,5,9,16,24,-1034
837,9.552778,2,6,8,14,25,-1037
838,9.564429,2,6,8,14,27,-1036
839,9.576073,2,6,9,15,21,-1036
840,9.587727,3,6,9,14,26,-1032
841,9.599374,2,6,9,13,24,-1032
842,9.61104,2,7,10,16,19,-1034
843,9.622725,2,6,9,14,27,-1033
844,9.634349,3,6,9,15,22,-1037
845,9.646011,2,7,10,16,28,-1033
846,9.657666,2,7,9,13,25,-1037
847,9.669258,2,5,9,14,24,-1035
848,9.680806,2,6,10,13,28,-1031
849,9.692353,2,6,9,11,28,-1033
850,9.703904,2,6,9,14,26,-1030
851,9.715451,2,6,9,13,26,-1025
852,9.727022,3,6,9,15,29,-1031
853,9.738614,3,5,9,17,26,-1034
854,9.750198,3,6,9,12,26,-1030
855,9.761833,2,5,10,12,27,-1035
856,9.773487,2,6,9,12,27,-1030
857,9.785174,1,6,8,18,24,-1032
858,9.796824,2,7,9,15,25,-1034
859,9.808482,2,6,9,11,26,-1032
860,9.820149,2,6,10,17,30,-1034
861,9.831814,2,6,10,11,25,-1030
862,9.843468,2,7,10,15,25,-1038
863,9.855155,2,6,9,13,29,-1039
864,9.866832,2,6,9,12,28,-1031
865,9.87846,2,6,10,15,27,-1036
866,9.890064,2,6,10,15,26,-1035
867,9.901631,2,6,9,14,24,-1041
868,9.913175,2,6,9,17,26,-1030
869,9.924738,3,6,9,13,21,-1034
870,9.9363,2,6,9,14,25,-1035
871,9.947851,2,5,9,16,24,-1037
872,9.959418,3,6,9,10,24,-1038
873,9.971058,2,6,9,17,25,-1035
874,9.982742,3,6,8,13,28,-1036
875,9.994415,2,7,9,12,24,-1033
876,10.006083,2,6,9,12,22,-1032
877,10.017749,2,7,9,10,28,-1032
878,10.029427,2,6,10,13,27,-1033
879,10.041106,3,6,9,15,26,-1032
880,10.052762,3,6,10,12,23,-1033
881,10.064445,2,6,10,16,27,-1037
882,10.076132,2,6,9,15,29,-1030
883,10.087698,3,7,9,18,28,-1035
884,10.099274,2,6,9,14,25,-1034
885,10.110788,2,6,8,14,27,-1037
886,10.122307,2,7,8,16,27,-1034
887,10.133821,2,6,9,15,27,-1035
888,10.145369,2,6,9,13,29,-1036
889,10.156913,2,6,9,13,26,-1030
890,10.16847,2,6,9,14,28,-1035
891,10.180094,2,6,9,12,24,-1037
892,10.191744,2,6,9,15,27,-1031
893,10.203414,3,6,9,18,25,-1035
894,10.215097,2,6,9,11,28,-1035
895,10.226754,2,6,9,13,26,-1034
896,10.23845,3,6,9,17,23,-1033
897,10.250123,3,6,9,14,22,-1036
898,10.261774,2,6,9,13,23,-1036
899,10.273455,2,6,9,14,26,-1033
900,10.285105,2,6,9,13,30,-1033
901,10.296659,3,6,9,16,25,-1032
902,10.308202,2,5,9,11,23,-1035
903,10.319748,2,5,8,15,25,-1039
904,10.331299,2,6,9,13,25,-1033
905,10.342873,2,7,9,17,22,-1034
906,10.354435,2,6,10,13,27,-1036
907,10.366005,2,6,9,17,25,-1032
908,10.377582,4,6,9,11,28,-1036
909,10.389276,3,6,9,13,26,-1032
910,10.40094,2,6,8,17,24,-1032
911,10.412598,3,5,9,14,26,-1034
912,10.424249,2,6,9,14,26,-1036
913,10.43593,2,6,10,14,31,-1036
914,10.447593,2,6,8,16,29,-1035
915,10.459272,2,6,9,11,28,-1034
916,10.470937,3,6,9,15,24,-1029
917,10.482632,2,6,9,12,27,-1036
918,10.494293,2,6,9,17,30,-1036
919,10.50588,3,6,9,16,27,-1035
920,10.517432,2,6,9,13,28,-1032
921,10.528999,3,7,9,16,27,-1036
922,10.540542,2,6,9,13,25,-1036
923,10.552117,2,6,9,15,22,-1027
924,10.563659,3,6,9,15,23,-1040
925,10.575237,2,6,9,16,23,-1031
926,10.586794,2,6,8,14,23,-1032
927,10.598425,3,6,10,17,29,-1033
928,10.610085,3,6,9,17,27,-1030
929,10.621756,2,6,9,14,24,-1035
930,10.633424,2,7,9,13,29,-1038
931,10.645066,2,7,9,14,24,-1034
932,10.65671,2,6,9,12,25,-1038
933,10.668366,2,7,9,14,26,-1036
934,10.680028,2,6,9,15,28,-1033
935,10.691693,2,5,9,12,27,-1032
936,10.703385,2,6,9,19,28,-1037
937,10.715007,2,5,9,18,30,-1035
938,10.726553,3,6,9,13,31,-1034
939,10.73813,2,6,9,12,25,-1035
940,10.749676,2,6,9,15,27,-1032
941,10.76123,3,6,9,17,25,-1034
942,10.77278,3,7,9,16,26,-1029
943,10.784327,2,7,10,12,27,-1040
944,10.795881,3,6,9,13,25,-1032
945,10.807662,2,6,9,17,27,-1036
946,10.819327,2,6,9,19,24,-1034
947,10.830999,3,6,9,19,28,-1036
948,10.842667,2,6,9,15,27,-1034
949,10.854338,2,5,9,16,21,-1033
950,10.865975,2,6,9,15,22,-1030
951,10.877676,2,6,9,14,30,-1037
952,10.889329,2,6,9,16,27,-1033
953,10.90098,2,6,9,14,28,-1034
954,10.912642,2,6,9,11,27,-1029
955,10.924237,1,7,8,14,26,-1034
956,10.935794,2,6,8,17,26,-1029
957,10.94737,3,6,10,16,24,-1034
958,10.958919,3,6,9,13,24,-1033
959,10.97048,2,7,9,15,28,-1029
960,10.982052,3,6,10,15,25,-1036
961,10.993628,3,6,9,13,29,-1034
962,11.005233,2,5,9,13,25,-1033
963,11.016858,3,5,9,16,27,-1030
964,11.028541,2,6,9,12,27,-1038
965,11.040196,2,6,8,13,28,-1034
966,11.051849,3,6,9,15,25,-1034
967,11.063492,3,6,9,15,22,-1037
968,11.075143,2,6,9,16,24,-1028
969,11.086815,3,6,8,14,27,-1038
970,11.098495,3,5,9,13,26,-1039
971,11.11017,3,6,9,13,24,-1035
972,11.121837,2,6,10,14,25,-1027
973,11.133401,2,6,10,14,30,-1034
974,11.144945,2,6,9,16,27,-1030
975,11.156494,2,6,10,14,24,-1030
976,11.168047,3,6,9,14,25,-1033
977,11.179617,2,5,10,12,28,-1030
978,11.191171,2,7,9,17,20,-1036
979,11.202749,2,6,9,19,23,-1025
980,11.214318,3,6,9,14,27,-1036
981,11.225963,3,6,9,17,25,-1033
982,11.237611,2,6,9,11,29,-1026
983,11.249255,2,5,9,13,30,-1038
984,11.260917,1,7,9,12,25,-1034
985,11.272558,2,6,9,14,20,-1032
986,11.284206,2,6,9,16,24,-1033
987,11.295866,2,7,10,15,27,-1029
988,11.307536,2,7,9,18,23,-1034
989,11.319206,2,6,9,12,26,-1039
990,11.330858,3,6,9,13,26,-1028
991,11.342516,2,6,9,15,22,-1045
992,11.354208,2,7,10,14,19,-1036
993,11.365858,2,7,9,15,28,-1038
994,11.377524,3,6,10,12,23,-1037
995,11.389178,2,6,10,14,29,-1022
996,11.400816,3,7,9,12,29,-1035
997,11.412463,3,6,10,14,26,-1034
998,11.424167,2,6,9,12,26,-1028
999,11.435813,2,6,10,17,24,-1029
1000,11.447458,3,7,10,15,24,-1036
1001,11.459137,2,6,8,16,25,-1031
1002,11.470788,2,6,9,17,28,-1037
1003,11.482469,2,6,9,13,25,-1034
1004,11.494152,2,6,9,15,28,-1035
1005,11.50582,3,6,10,15,26,-1030
1006,11.517466,3,6,9,14,23,-1040
1007,11.529157,2,6,10,15,23,-1028
1008,11.5408,2,6,9,15,28,-1031
1009,11.552447,2,7,9,13,25,-1035
1010,11.564095,2,7,10,15,30,-1037
1011,11.575745,2,6,9,15,22,-1035
1012,11.587418,2,7,9,14,24,-1029
1013,11.599093,1,6,9,17,27,-1027
1014,11.610759,2,6,9,12,22,-1038
1015,11.622429,2,6,9,11,22,-1035
1016,11.6341,3,7,8,15,25,-1035
1017,11.645747,2,6,9,13,23,-1030
1018,11.657417,2,6,9,11,26,-1028
1019,11.669064,3,6,9,13,25,-1036
1020,11.680713,2,6,9,15,25,-1033
1021,11.692383,2,6,9,16,27,-1031
1022,11.704041,2,6,9,19,29,-1030
1023,11.71569,2,6,9,21,24,-1036
1024,11.727392,2,6,10,12,27,-1032
1025,11.739097,3,6,10,14,25,-1032
1026,11.750773,2,6,9,14,29,-1036
1027,11.762456,1,6,9,17,27,-1039
1028,11.774092,2,5,9,15,28,-1034
1029,11.78574,2,6,8,15,25,-1029
1030,11.797408,3,6,9,17,28,-1036
1031,11.809053,3,6,9,12,28,-1034
1032,11.820698,3,7,9,16,27,-1030
1033,11.832461,2,6,10,15,25,-1040
1034,11.844136,3,6,9,14,27,-1031
1035,11.855759,2,6,9,15,29,-1038
1036,11.867362,2,6,9,15,24,-1030
1037,11.878913,2,6,9,14,26,-1039
1038,11.890457,3,6,9,16,23,-1030
1039,11.902004,2,6,9,15,24,-1032
1040,11.913567,2,5,9,14,25,-1024
1041,11.925118,3,6,9,13,26,-1037
1042,11.936684,2,6,9,12,29,-1033
1043,11.948253,2,7,9,13,28,-1034
1044,11.959933,2,6,10,16,22,-1031
1045,11.971604,2,6,9,12,26,-1035
1046,11.983284,2,6,9,12,25,-1036
1047,11.994939,3,7,9,14,23,-1041
1048,12.006624,2,5,9,11,24,-1034
1049,12.018291,2,6,9,18,26,-1033
1050,12.029961,2,6,8,13,24,-1035
1051,12.041632,2,5,9,16,26,-1033
1052,12.053303,2,6,8,14,25,-1030
1053,12.06496,2,6,9,17,25,-1026
1054,12.076524,1,6,11,15,26,-1032
1055,12.088068,2,6,9,10,27,-1039
1056,12.099643,2,6,9,18,25,-1033
1057,12.111196,3,7,9,12,25,-1033
1058,12.122773,2,6,9,13,25,-1032
1059,12.134303,2,6,8,15,26,-1036
1060,12.145867,3,6,9,11,27,-1032
1061,12.157427,2,7,10,14,28,-1037
1062,12.169052,3,6,9,16,26,-1038
1063,12.18071,2,6,9,16,24,-1041
1064,12.192355,2,6,9,14,25,-1037
1065,12.204004,3,6,9,15,23,-1036
1066,12.215671,2,5,9,12,28,-1035
1067,12.227346,2,5,9,14,24,-1036
1068,12.239017,2,6,10,15,26,-1033
1069,12.250679,1,6,10,14,26,-1035
1070,12.262354,2,5,9,15,26,-1039
1071,12.274019,2,6,9,13,27,-1038
1072,12.285607,2,6,10,15,26,-1035
1073,12.297154,3,6,9,13,25,-1035
1074,12.30873,2,6,9,14,20,-1029
1075,12.32027,2,7,9,17,30,-1032
1076,12.331819,2,7,8,16,28,-1032
1077,12.343369,2,6,10,13,26,-1041
1078,12.354944,2,7,9,14,27,-1032
1079,12.366508,3,6,9,13,26,-1027
1080,12.378094,2,6,9,15,31,-1038
1081,12.389763,2,6,9,17,28,-1034
1082,12.401424,2,6,9,13,27,-1033
1083,12.413075,3,5,9,12,28,-1026
1084,12.424738,2,6,9,14,25,-1033
1085,12.436382,2,7,9,15,28,-1030
1086,12.448031,2,6,10,17,28,-1030
1087,12.459681,2,6,9,15,26,-1037
1088,12.471388,2,7,10,13,33,-1036
1089,12.483046,3,7,9,17,27,-1034
1090,12.494736,2,6,10,15,26,-1031
1091,12.506391,2,6,9,17,20,-1035
1092,12.518063,2,5,9,15,28,-1038
1093,12.529712,2,6,10,16,29,-1037
1094,12.541351,2,6,9,14,23,-1035
1095,12.553003,2,5,10,12,25,-1040
1096,12.564666,3,7,9,11,25,-1034
1097,12.576338,2,7,9,9,23,-1036
1098,12.587989,2,5,9,15,29,-1032
1099,12.599658,2,6,9,16,25,-1031
1100,12.611306,2,6,9,16,23,-1028
1101,12.623002,2,6,10,12,25,-1036
1102,12.634656,2,5,9,18,21,-1033
1103,12.646333,2,7,9,17,29,-1037
1104,12.657998,2,7,9,15,26,-1032
1105,12.669659,2,6,10,11,31,-1039
1106,12.681333,2,6,9,16,23,-1034
1107,12.693006,2,5,9,12,26,-1033
1108,12.70466,2,7,9,14,25,-1035
1109,12.716307,3,6,9,18,28,-1037
1110,12.727958,2,6,8,19,25,-1027
1111,12.739601,3,7,9,14,28,-1038
1112,12.751272,2,6,9,17,30,-1036
1113,12.762931,2,6,9,16,28,-1031
1114,12.774599,3,6,9,12,25,-1028
1115,12.786275,3,6,9,13,32,-1038
1116,12.797947,3,6,9,16,29,-1036
1117,12.809504,2,7,9,17,27,-1031
1118,12.821053,2,6,9,12,29,-1030
1119,12.832616,2,6,9,10,27,-1028
1120,12.844203,2,6,9,11,24,-1042
1121,12.855877,3,7,9,14,29,-1035
1122,12.867432,3,5,9,13,27,-1038
1123,12.879014,2,5,9,14,29,-1031
1124,12.890558,2,6,9,16,26,-1034
1125,12.902206,3,6,9,15,26,-1035
1126,12.913888,2,6,9,15,28,-1036
1127,12.925544,3,6,10,17,26,-1034
1128,12.937197,2,7,9,16,24,-1033
1129,12.948858,2,6,9,16,26,-1031
1130,12.960499,3,6,9,9,26,-1031
1131,12.97215,2,6,9,13,25,-1033
1132,12.983807,2,6,9,16,24,-1035
1133,12.995459,2,6,10,14,25,-1026
1134,13.007142,2,6,8,16,27,-1030
1135,13.018806,2,7,9,18,25,-1030
1136,13.03048,2,7,9,14,24,-1039
1137,13.042138,2,6,9,15,25,-1034
1138,13.053824,2,5,9,18,25,-1033
1139,13.065464,2,7,10,12,25,-1032
1140,13.077138,2,6,9,15,30,-1039
1141,13.088791,2,6,10,14,24,-1036
1142,13.100463,3,6,9,14,27,-1040
1143,13.112135,3,5,9,10,21,-1031
1144,13.123793,2,6,10,14,28,-1037
1145,13.135447,2,6,9,13,29,-1041
1146,13.147147,2,6,9,14,23,-1033
1147,13.158805,2,6,9,16,24,-1031
1148,13.170516,2,6,9,15,27,-1033
1149,13.182165,2,6,9,17,28,-1027
1150,13.193835,2,6,9,14,25,-1034
1151,13.205571,2,6,9,13,27,-1032
1152,13.217239,2,6,9,14,23,-1036
1153,13.228807,2,6,8,16,31,-1034
1154,13.240358,3,6,11,11,25,-1031
1155,13.251901,2,7,10,15,22,-1030
1156,13.263448,3,6,9,15,24,-1035
1157,13.27502,3,6,9,11,29,-1031
1158,13.286546,2,6,9,16,24,-1031
1159,13.298062,2,6,10,12,27,-1031
1160,13.309618,2,6,9,19,25,-1031
1161,13.321313,2,7,9,15,22,-1033
1162,13.332981,2,6,9,15,27,-1031
1163,13.344654,2,6,10,13,29,-1037
1164,13.356333,2,7,9,13,24,-1033
1165,13.368018,2,6,9,11,28,-1040
1166,13.379661,3,6,9,16,27,-1035
1167,13.391311,2,6,9,15,25,-1037
1168,13.40303,2,7,9,16,25,-1034
1169,13.414691,2,6,9,20,28,-1036
1170,13.426366,3,6,9,13,26,-1035
1171,13.438072,3,6,8,14,29,-1034
1172,13.449724,2,6,8,14,23,-1031
1173,13.461403,2,6,9,14,29,-1030
1174,13.473061,2,5,9,19,24,-1032
1175,13.484709,2,6,9,17,26,-1032
1176,13.496375,2,6,9,14,28,-1029
1177,13.508096,2,6,9,16,26,-1028
1178,13.51991,2,5,9,14,23,-1027
1179,13.531487,2,7,9,12,28,-1037
1180,13.543041,2,7,8,15,24,-1030
1181,13.55461,2,7,9,14,28,-1028
1182,13.566186,2,6,9,13,28,-1037
1183,13.577737,2,6,9,15,23,-1033
1184,13.589318,2,6,9,12,25,-1038
1185,13.60087,2,6,8,15,26,-1035
1186,13.612418,3,6,9,16,27,-1037
1187,13.623983,2,6,8,12,26,-1036
1188,13.635656,2,5,10,15,27,-1036
1189,13.647307,2,6,10,15,23,-1035
1190,13.65899,2,6,9,16,25,-1027
1191,13.670666,2,5,9,16,28,-1032
1192,13.682338,2,6,9,15,24,-1033
1193,13.693999,2,6,8,17,27,-1036
1194,13.705659,1,6,9,16,25,-1035
1195,13.717322,2,6,9,16,27,-1039
1196,13.728978,2,6,8,16,22,-1029
1197,13.740649,2,6,9,13,22,-1034
1198,13.7523,3,6,9,16,25,-1038
1199,13.763954,2,6,8,17,21,-1036
1200,13.775621,2,6,9,13,27,-1035
1201,13.787284,2,6,9,10,26,-1032
1202,13.798938,2,5,9,18,24,-1025
1203,13.810627,3,6,9,16,23,-1033
1204,13.822317,3,6,10,15,23,-1026
1205,13.833978,2,6,10,13,26,-1037
1206,13.845669,2,6,10,16,27,-1034
1207,13.85732,2,6,9,17,28,-1035
1208,13.868968,2,5,9,14,25,-1034
1209,13.880738,2,6,10,14,27,-1031
1210,13.892416,2,6,9,18,26,-1032
1211,13.904059,3,6,8,11,25,-1032
1212,13.91572,2,6,9,13,23,-1033
1213,13.927465,3,6,9,14,24,-1031
1214,13.939155,2,6,9,18,25,-1039
1215,13.950729,2,7,9,15,24,-1039
1216,13.962353,2,6,9,14,27,-1033
1217,13.973943,3,5,10,15,20,-1028
1218,13.985485,3,6,9,16,26,-1039
1219,13.997029,2,6,8,13,23,-1032
1220,14.00858,2,6,9,14,27,-1030
1221,14.020125,2,6,9,15,25,-1037
1222,14.031791,3,6,9,15,25,-1030
1223,14.04376,2,6,9,13,27,-1032
1224,14.055509,2,5,10,15,24,-1033
1225,14.067169,2,6,8,18,28,-1035
1226,14.07888,2,5,9,14,27,-1037
1227,14.090535,2,6,9,10,26,-1035
1228,14.102221,2,6,10,16,26,-1031
1229,14.113882,2,5,10,9,24,-1029
1230,14.125541,2,5,9,13,30,-1032
1231,14.137191,2,7,9,14,31,-1032
1232,14.148747,2,6,10,15,25,-1037
1233,14.160293,2,7,9,13,26,-1034
1234,14.171844,2,6,9,13,27,-1035
1235,14.18339,2,7,9,14,24,-1036
1236,14.194944,2,6,9,14,25,-1033
1237,14.206494,2,6,9,12,29,-1034
1238,14.21807,2,6,9,13,25,-1039
1239,14.229631,2,6,9,13,26,-1032
1240,14.241273,2,6,9,14,23,-1034
1241,14.252925,2,5,10,17,25,-1033
1242,14.264565,2,6,10,12,28,-1034
1243,14.27621,2,6,8,14,28,-1038
1244,14.287877,2,6,10,13,25,-1036
1245,14.299527,2,6,9,15,26,-1036
1246,14.311185,2,6,9,19,23,-1028
1247,14.322876,2,6,9,11,22,-1031
1248,14.334601,2,6,9,14,27,-1038
1249,14.346328,3,6,9,15,24,-1033
1250,14.357885,3,6,9,14,26,-1041
1251,14.369436,2,6,10,18,24,-1034
1252,14.380983,2,6,9,17,31,-1036
1253,14.39256,3,6,9,15,25,-1039
1254,14.404109,2,7,9,12,25,-1041
1255,14.415659,3,6,9,16,26,-1032
1256,14.427217,2,6,9,12,26,-1032
1257,14.438797,2,7,10,15,28,-1036
1258,14.450426,2,6,9,15,26,-1032
1259,14.462082,2,7,8,16,28,-1038
1260,14.473759,2,7,9,12,24,-1034
1261,14.485406,2,6,9,17,24,-1037
1262,14.497063,2,5,9,15,28,-1032
1263,14.508753,2,7,9,13,27,-1034
1264,14.520404,1,6,9,14,24,-1034
1265,14.532055,3,5,9,14,22,-1037
1266,14.543742,2,5,9,14,25,-1033
1267,14.555406,2,6,9,15,30,-1033
1268,14.566982,2,6,9,16,24,-1036
1269,14.578547,2,7,9,17,23,-1026
1270,14.590064,2,6,9,15,27,-1030
1271,14.601613,2,6,8,14,23,-1034
1272,14.613221,2,5,9,12,25,-1035
1273,14.624803,3,7,9,15,24,-1035
1274,14.636379,2,5,9,14,25,-1038
1275,14.647923,2,6,10,14,26,-1035
1276,14.659547,2,6,9,16,28,-1032
1277,14.671194,2,6,9,13,29,-1033
1278,14.682892,2,6,9,13,28,-1038
1279,14.694588,2,6,9,12,25,-1034
1280,14.70629,2,7,8,14,31,-1030
1281,14.717967,2,6,9,10,24,-1037
1282,14.729636,3,6,9,14,26,-1034
1283,14.741286,2,5,9,14,27,-1035
1284,14.752956,3,5,9,16,24,-1027
1285,14.764626,3,6,9,11,25,-1033
1286,14.776186,2,6,9,16,29,-1038
1287,14.787744,2,6,9,17,24,-1031
1288,14.799313,2,6,9,18,24,-1039
1289,14.810874,1,6,9,14,24,-1035
1290,14.822478,2,6,9,18,24,-1038
1291,14.834053,3,6,10,11,25,-1035
1292,14.845604,2,6,9,12,22,-1031
1293,14.85716,3,6,9,19,27,-1032
1294,14.868783,2,6,9,10,26,-1034
1295,14.880433,2,6,9,15,28,-1033
1296,14.892101,2,7,9,11,22,-1037
1297,14.903847,3,6,9,16,26,-1035
1298,14.91552,2,6,8,13,23,-1031
1299,14.927181,3,6,9,16,23,-1031
1300,14.938878,2,6,9,13,28,-1035
1301,14.950543,2,6,9,16,24,-1036
1302,14.962227,3,6,9,13,24,-1029
1303,14.973903,1,7,10,14,25,-1035
1304,14.985554,2,6,9,12,25,-1026
1305,14.997197,2,6,9,14,23,-1035
1306,15.008874,2,6,10,16,28,-1036
1307,15.020535,2,6,9,19,26,-1037
1308,15.03218,2,6,10,17,22,-1033
1309,15.04383,2,6,10,16,24,-1036
1310,15.055522,2,6,10,18,31,-1031
1311,15.067268,3,6,10,14,25,-1040
1312,15.078951,2,6,10,15,25,-1039
1313,15.090548,3,6,9,16,29,-1032
1314,15.102111,2,6,9,16,25,-1028
1315,15.1137,3,6,9,17,28,-1037
1316,15.12524,2,6,10,12,27,-1036
1317,15.136782,3,6,9,14,25,-1034
1318,15.148339,2,6,9,16,24,-1038
1319,15.159947,1,7,9,15,29,-1037
1320,15.171521,2,6,9,17,23,-1035
1321,15.183191,2,6,9,8,24,-1032
1322,15.194881,2,6,9,15,24,-1034
1323,15.206544,3,5,9,19,23,-1037
1324,15.218217,2,6,9,12,26,-1035
1325,15.2299,2,6,9,14,23,-1036
1326,15.24156,3,6,9,16,26,-1032
1327,15.25321,2,6,10,13,27,-1037
1328,15.26489,2,7,10,15,24,-1039
1329,15.276543,2,7,9,15,28,-1034
1330,15.28809,2,6,9,13,28,-1033
1331,15.299646,2,6,10,15,27,-1033
1332,15.311219,2,6,10,13,26,-1031
1333,15.322786,2,7,9,12,26,-1034
1334,15.334372,2,6,9,12,28,-1032
1335,15.345938,2,6,9,15,28,-1034
1336,15.357484,1,5,9,15,26,-1027
1337,15.369042,2,6,9,15,25,-1037
1338,15.380657,3,6,9,11,29,-1039
1339,15.392314,2,6,10,15,25,-1037
1340,15.403988,2,6,9,10,27,-1040
1341,15.415656,2,7,9,15,26,-1037
1342,15.427315,1,6,9,11,28,-1036
1343,15.439016,1,6,9,17,27,-1034
1344,15.450679,2,6,9,13,20,-1034
1345,15.462353,3,6,8,15,25,-1032
1346,15.474024,2,6,9,13,25,-1035
1347,15.485721,2,6,9,17,27,-1033
1348,15.497311,2,6,9,16,24,-1034
1349,15.508866,2,6,9,13,24,-1032
1350,15.520453,2,5,9,17,26,-1043
1351,15.531996,2,6,9,14,25,-1031
1352,15.543555,2,5,9,13,24,-1035
1353,15.555111,2,6,9,15,28,-1030
1354,15.566669,2,6,9,9,23,-1034
1355,15.578233,2,6,10,15,24,-1031
1356,15.589936,2,6,9,15,24,-1040
1357,15.601613,2,6,10,20,23,-1033
1358,15.613268,2,5,10,13,22,-1036
1359,15.624916,2,6,9,16,23,-1029
1360,15.636564,3,6,9,14,26,-1036
1361,15.64823,2,6,8,15,25,-1034
1362,15.659892,3,6,9,16,27,-1036
1363,15.671538,2,6,9,11,26,-1037
1364,15.68319,2,7,9,15,26,-1031
1365,15.694766,2,6,10,19,24,-1038
1366,15.706305,2,6,9,15,27,-1029
1367,15.717821,3,7,10,13,22,-1033
1368,15.729367,3,6,9,16,22,-1035
1369,15.740912,2,6,9,13,30,-1034
1370,15.752461,2,6,8,18,28,-1032
1371,15.764015,3,6,8,16,27,-1032
1372,15.775583,2,6,10,14,21,-1039
1373,15.787173,2,6,9,15,22,-1038
1374,15.798795,1,6,9,14,28,-1040
1375,15.810511,3,6,9,13,25,-1038
1376,15.822215,2,5,9,11,26,-1040
1377,15.833887,2,6,9,12,25,-1033
1378,15.845539,2,6,9,15,28,-1033
1379,15.857189,2,6,9,14,28,-1034
1380,15.868859,2,6,10,15,23,-1030
1381,15.880515,2,5,10,14,25,-1030
1382,15.892177,2,5,10,14,26,-1038
1383,15.903845,2,6,9,13,24,-1032
1384,15.915405,2,6,9,12,24,-1031
1385,15.927073,2,7,9,16,27,-1030
1386,15.938628,3,6,9,15,24,-1030
1387,15.950186,2,5,10,12,27,-1034
1388,15.96173,2,6,8,13,25,-1037
1389,15.973301,2,6,8,14,28,-1037
1390,15.984849,2,6,9,18,24,-1030
1391,15.996418,2,6,9,11,28,-1030
1392,16.008029,2,6,9,15,26,-1032
1393,16.019685,2,6,10,11,25,-1033
1394,16.031379,2,7,9,13,24,-1033
1395,16.043034,2,6,9,12,22,-1029
1396,16.054684,2,6,10,13,25,-1036
1397,16.066351,2,7,8,15,26,-1027
1398,16.078003,2,6,9,15,23,-1029
1399,16.089652,3,6,9,14,26,-1038
1400,16.101305,3,6,10,14,26,-1032
1401,16.112953,2,6,9,11,26,-1035
1402,16.124623,2,6,9,15,27,-1036
1403,16.136273,2,7,9,16,21,-1034
1404,16.147956,2,6,10,12,26,-1032
1405,16.15975,2,6,8,11,27,-1028
1406,16.171411,2,6,9,17,24,-1032
1407,16.183151,2,7,9,16,28,-1033
1408,16.194816,3,6,9,15,25,-1033
1409,16.206599,3,5,9,15,29,-1032
1410,16.21827,2,6,10,15,26,-1030
1411,16.229822,2,5,9,13,26,-1033
1412,16.24137,3,6,9,13,21,-1034
1413,16.25292,2,6,10,13,27,-1036
1414,16.264474,2,6,9,13,26,-1040
1415,16.276023,2,6,9,15,25,-1037
1416,16.287574,2,6,9,13,25,-1034
1417,16.299203,2,7,9,14,25,-1031
1418,16.310818,2,6,10,16,29,-1030
1419,16.322522,2,6,10,19,23,-1036
1420,16.334203,2,6,9,12,23,-1041
1421,16.345883,2,6,9,18,28,-1039
1422,16.357543,2,6,9,12,26,-1033
1423,16.369192,3,6,9,13,29,-1032
1424,16.380864,3,6,9,11,25,-1036
1425,16.392522,2,6,9,18,25,-1030
1426,16.404172,2,6,9,16,26,-1035
1427,16.415841,3,5,9,17,26,-1034
1428,16.427505,2,6,9,12,25,-1027
1429,16.439066,2,6,9,13,24,-1035
1430,16.450622,3,7,9,11,26,-1033
1431,16.4622,2,6,9,14,25,-1035
1432,16.473741,2,6,10,16,25,-1040
1433,16.485298,3,6,9,15,25,-1033
1434,16.496846,2,6,9,14,26,-1033
1435,16.508394,2,6,9,18,25,-1028
1436,16.519953,2,6,9,13,28,-1028
1437,16.531651,2,6,9,16,26,-1039
1438,16.543312,2,5,9,18,26,-1039
1439,16.555028,2,6,9,20,27,-1031
1440,16.566737,2,6,9,14,25,-1034
1441,16.578397,2,6,10,14,25,-1033
1442,16.590088,2,6,9,14,25,-1031
1443,16.601747,2,5,9,18,26,-1031
1444,16.613396,2,6,9,12,24,-1035
1445,16.625063,3,7,9,10,24,-1035
1446,16.636732,2,7,10,13,27,-1036
1447,16.648288,2,6,9,13,23,-1037
1448,16.65984,2,6,9,11,25,-1028
1449,16.671447,2,6,9,14,31,-1035
1450,16.68304,2,5,10,12,24,-1038
1451,16.694598,2,6,9,12,28,-1031
1452,16.706197,3,5,9,15,29,-1039
1453,16.717747,2,6,10,16,25,-1036
1454,16.729338,2,7,9,9,26,-1035
1455,16.740963,2,6,9,13,23,-1037
1456,16.75262,2,6,9,14,25,-1032
1457,16.764273,3,6,10,14,29,-1033
1458,16.775925,3,6,9,15,22,-1032
1459,16.787596,2,6,8,14,26,-1026
1460,16.799264,3,6,9,13,26,-1039
1461,16.811007,2,5,10,12,27,-1028
1462,16.82266,2,6,9,12,25,-1035
1463,16.834381,2,6,10,14,24,-1039
1464,16.846048,3,6,9,15,23,-1032
1465,16.857602,2,5,8,16,26,-1039
1466,16.869186,3,7,9,14,29,-1029
1467,16.880731,2,6,9,12,26,-1030
1468,16.89227,3,6,9,11,23,-1033
1469,16.90382,2,6,9,19,27,-1037
1470,16.915361,2,6,9,15,29,-1037
1471,16.92693,2,6,9,14,25,-1032
1472,16.938491,2,7,10,13,26,-1036
1473,16.950149,2,6,9,12,23,-1031
1474,16.961837,2,6,9,14,24,-1036
1475,16.97352,2,6,10,16,23,-1033
1476,16.985163,3,5,9,13,25,-1035
1477,16.996818,2,6,9,15,25,-1036
1478,17.008492,3,7,9,13,28,-1035
1479,17.020139,3,7,9,12,27,-1035
1480,17.031789,2,6,9,11,28,-1041
1481,17.043477,3,7,9,15,25,-1032
1482,17.055121,3,6,10,14,23,-1032
1483,17.066696,3,6,9,14,29,-1031
1484,17.078257,2,6,9,14,20,-1038
1485,17.089826,2,6,9,13,26,-1031
1486,17.101377,2,6,10,11,27,-1038
1487,17.112948,2,6,9,16,25,-1031
1488,17.124495,2,6,9,14,23,-1029
1489,17.136044,2,6,9,17,25,-1034
1490,17.147607,2,6,9,17,20,-1027
1491,17.15926,2,6,9,13,25,-1039
1492,17.170916,3,6,8,16,23,-1035
1493,17.182617,2,7,10,12,22,-1036
1494,17.194282,3,6,9,15,26,-1042
1495,17.205966,2,6,9,14,22,-1027
1496,17.21763,2,6,9,13,25,-1035
1497,17.229282,2,6,10,13,29,-1032
1498,17.240947,2,6,10,14,26,-1034
1499,17.252623,2,7,9,12,27,-1032
1500,17.264276,2,7,10,10,29,-1031
1501,17.275836,2,6,9,20,30,-1033
1502,17.287444,2,7,9,17,29,-1035
1503,17.299064,2,6,9,12,27,-1031
1504,17.310628,2,6,10,12,24,-1028
1505,17.322198,2,6,10,11,28,-1034
1506,17.333745,2,6,9,12,27,-1033
1507,17.345305,2,7,9,18,25,-1037
1508,17.35687,2,6,9,10,26,-1034
1509,17.368497,2,7,9,18,24,-1033
1510,17.380147,2,6,10,14,25,-1035
1511,17.391803,2,7,10,15,24,-1034
1512,17.40345,2,6,8,16,28,-1028
1513,17.415131,2,6,9,17,28,-1034
1514,17.426785,2,6,9,18,26,-1037
1515,17.438461,2,7,9,15,26,-1038
1516,17.45009,2,6,9,15,27,-1032
1517,17.46176,2,6,9,14,24,-1031
1518,17.473425,3,5,9,14,23,-1040
1519,17.484984,2,7,10,11,23,-1041
1520,17.496574,2,6,9,12,29,-1033
1521,17.508119,3,7,9,18,26,-1036
1522,17.519666,3,6,9,15,26,-1034
1523,17.531217,3,5,9,13,25,-1027
1524,17.542801,3,6,9,17,22,-1038
1525,17.554366,2,6,9,12,25,-1039
1526,17.565962,3,6,9,17,23,-1039
1527,17.577608,2,7,10,13,27,-1028
1528,17.589267,3,7,10,14,28,-1035
1529,17.60091,3,6,9,13,24,-1032
1530,17.612553,2,6,9,17,25,-1035
1531,17.62422,3,5,9,13,25,-1037
1532,17.635871,2,6,10,14,28,-1035
1533,17.647516,2,6,9,20,29,-1032
1534,17.659175,2,6,9,16,23,-1037
1535,17.670904,2,6,9,11,26,-1034
1536,17.6826,2,6,9,17,27,-1035
1537,17.694197,2,6,9,15,22,-1030
1538,17.705748,2,6,10,10,28,-1036
1539,17.717316,2,6,9,13,24,-1037
1540,17.728863,2,6,9,16,27,-1033
1541,17.740441,2,6,9,10,28,-1032
1542,17.751982,2,6,9,12,26,-1034
1543,17.763532,2,7,9,17,29,-1033
1544,17.775099,2,6,9,15,28,-1026
1545,17.786739,3,6,10,17,28,-1033
1546,17.79842,3,5,9,13,26,-1030
1547,17.810097,2,6,9,13,27,-1032
1548,17.821747,2,6,9,12,25,-1031
1549,17.833396,3,5,9,17,24,-1030
1550,17.845042,2,6,9,15,23,-1040
1551,17.856712,2,6,10,14,23,-1031
1552,17.868365,2,7,9,11,22,-1031
1553,17.88001,2,7,9,13,28,-1032
1554,17.891569,2,6,9,16,30,-1029
1555,17.903146,2,6,9,14,25,-1029
1556,17.914709,3,6,10,16,23,-1036
1557,17.926309,3,5,9,12,26,-1033
1558,17.937863,2,6,9,13,27,-1035
1559,17.949437,2,6,9,11,25,-1032
1560,17.960979,2,6,10,14,24,-1028
1561,17.972553,2,6,10,14,26,-1037
1562,17.984118,2,5,9,16,24,-1033
1563,17.995781,2,6,9,22,25,-1033
1564,18.007422,2,6,9,17,29,-1032
1565,18.019127,2,6,9,16,24,-1036
1566,18.03082,3,5,9,16,29,-1039
1567,18.042511,2,6,10,15,23,-1030
1568,18.054172,2,7,10,12,27,-1030
1569,18.065834,2,6,9,13,25,-1036
1570,18.077507,3,6,8,16,25,-1035
1571,18.089172,2,6,9,17,25,-1028
1572,18.100843,2,5,9,13,28,-1033
1573,18.112493,2,6,10,14,22,-1040
1574,18.12414,2,5,9,16,28,-1036
1575,18.135793,2,6,9,17,23,-1042
1576,18.147437,2,6,9,18,25,-1029
1577,18.159127,2,7,9,15,28,-1030
1578,18.17079,3,7,9,13,25,-1033
1579,18.182497,2,6,9,13,23,-1037
1580,18.194158,2,6,9,16,25,-1035
1581,18.205835,2,6,9,14,28,-1032
1582,18.217522,2,7,10,11,26,-1027
1583,18.229226,2,7,9,15,24,-1035
1584,18.240889,2,7,10,15,25,-1032
1585,18.252545,2,6,8,19,25,-1034
1586,18.264193,2,7,9,9,29,-1034
1587,18.275878,2,6,9,9,27,-1035
1588,18.28759,2,7,9,11,29,-1034
1589,18.299269,3,6,9,14,26,-1029
1590,18.310949,2,6,9,18,28,-1039
1591,18.322603,2,6,9,14,25,-1034
1592,18.334269,3,6,10,16,26,-1034
1593,18.345959,2,6,9,14,27,-1032
1594,18.357625,2,6,9,16,28,-1035
1595,18.369288,2,6,9,14,21,-1032
1596,18.380978,3,6,9,15,27,-1031
1597,18.392619,3,6,8,19,26,-1039
1598,18.404279,2,6,8,14,25,-1033
1599,18.415852,2,6,8,18,28,-1031
1600,18.427444,3,6,9,12,26,-1031
1601,18.43906,2,6,10,14,25,-1028
1602,18.450608,2,6,9,15,25,-1035
1603,18.462178,2,6,10,15,27,-1035
1604,18.473733,3,6,10,13,24,-1027
1605,18.48531,3,7,9,14,26,-1036
1606,18.496864,3,7,9,12,29,-1036
1607,18.508501,3,5,10,16,25,-1030
1608,18.52015,2,5,10,12,23,-1029
1609,18.531801,2,7,9,14,27,-1035
1610,18.543494,2,6,10,14,30,-1032
1611,18.555115,2,5,10,13,27,-1034
1612,18.566782,2,6,9,14,22,-1033
1613,18.58123,2,6,10,15,28,-1030
1614,18.592944,2,6,10,10,27,-1034
1615,18.604632,2,6,9,17,23,-1032
1616,18.616332,3,6,8,15,26,-1037
1617,18.627932,2,7,9,15,24,-1039
1618,18.639472,2,6,10,11,25,-1030
1619,18.651035,2,6,9,15,25,-1034
1620,18.662586,2,6,9,15,27,-1032
1621,18.674136,2,7,9,16,24,-1031
1622,18.685681,2,6,9,19,21,-1029
1623,18.69723,3,6,10,14,28,-1026
1624,18.708815,2,6,10,19,25,-1039
1625,18.720454,2,6,9,16,28,-1030
1626,18.732122,2,6,10,16,27,-1037
1627,18.743767,2,7,9,15,28,-1039
1628,18.755415,2,6,9,12,26,-1035
1629,18.767107,2,6,9,13,28,-1038
1630,18.778758,2,5,9,12,27,-1041
1631,18.790484,2,6,10,19,23,-1034
1632,18.802159,2,7,9,10,27,-1031
1633,18.813851,2,7,9,12,23,-1029
1634,18.825511,3,6,9,15,25,-1033
1635,18.837072,1,7,9,13,25,-1030
1636,18.84862,2,7,9,17,21,-1030
1637,18.860175,2,6,9,14,27,-1036
1638,18.87173,2,7,9,15,25,-1034
1639,18.883296,2,7,8,12,25,-1038
1640,18.89486,2,7,8,15,27,-1031
1641,18.90646,3,7,9,15,27,-1031
1642,18.918071,3,6,9,12,24,-1030
1643,18.929708,2,6,9,13,32,-1037
1644,18.94136,1,6,9,13,27,-1037
1645,18.953004,2,6,10,13,27,-1027
1646,18.964657,2,7,10,14,28,-1034
1647,18.9763,2,6,9,10,26,-1037
1648,18.987951,2,6,9,17,24,-1034
1649,18.99975,2,5,9,14,28,-1028
1650,19.01141,2,6,9,15,24,-1034
1651,19.023116,2,7,9,14,26,-1040
1652,19.034783,2,6,10,13,25,-1037
1653,19.046317,2,6,9,16,28,-1036
1654,19.057873,2,6,9,17,23,-1032
1655,19.069432,2,5,9,15,26,-1030
1656,19.080974,2,6,9,15,26,-1029
1657,19.092513,3,7,9,11,26,-1034
1658,19.104062,2,6,9,13,29,-1037
1659,19.115606,1,6,9,15,28,-1034
1660,19.127173,2,6,9,15,23,-1035
1661,19.138865,2,6,8,11,26,-1033
1662,19.150524,3,6,9,13,29,-1030
1663,19.162211,2,5,9,15,24,-1031
1664,19.173905,2,6,9,12,24,-1040
1665,19.185571,2,6,10,15,24,-1032
1666,19.197226,3,6,9,17,25,-1033
1667,19.208874,2,6,10,12,27,-1037
1668,19.220524,2,6,9,15,25,-1033
1669,19.232195,2,5,9,17,25,-1033
1670,19.243867,1,6,9,18,21,-1042
1671,19.255516,2,5,10,16,22,-1037
1672,19.267167,3,6,9,14,28,-1036
1673,19.278851,2,6,9,12,26,-1030
1674,19.290524,3,6,9,14,27,-1035
1675,19.302197,2,7,9,14,27,-1035
1676,19.31384,2,6,9,15,26,-1034
1677,19.325485,2,6,9,16,28,-1035
1678,19.337162,2,6,9,14,31,-1033
1679,19.348838,2,6,10,12,27,-1025
1680,19.360485,2,6,9,19,26,-1035
1681,19.372134,3,6,9,16,26,-1035
1682,19.383779,2,6,9,13,24,-1035
1683,19.395438,2,6,9,13,24,-1027
1684,19.407113,2,7,10,15,28,-1037
1685,19.418772,3,6,9,16,23,-1033
1686,19.430436,2,6,9,15,26,-1035
1687,19.442123,2,7,9,17,24,-1038
1688,19.453772,3,6,9,12,24,-1030
1689,19.465432,2,7,9,12,27,-1038
1690,19.477092,2,6,9,13,27,-1035
1691,19.488742,2,5,9,12,31,-1035
1692,19.500393,3,6,9,12,27,-1037
1693,19.512066,2,6,10,14,31,-1038
1694,19.523725,2,6,9,15,25,-1033
1695,19.535378,2,6,10,11,26,-1037
1696,19.547071,2,6,9,12,30,-1037
1697,19.558752,1,7,9,13,27,-1033
1698,19.570403,2,6,9,15,25,-1033
1699,19.582092,3,6,9,12,27,-1038
1700,19.593737,2,7,9,13,27,-1033
1701,19.605388,2,6,10,16,23,-1029
1702,19.617042,2,6,9,15,24,-1035
1703,19.628714,2,6,9,13,25,-1037
1704,19.640364,2,6,8,11,27,-1038
1705,19.652006,2,6,9,14,26,-1032
1706,19.663557,2,6,10,16,27,-1030
1707,19.675101,3,6,9,12,28,-1034
1708,19.68667,2,6,9,13,28,-1033
1709,19.698226,2,6,9,11,28,-1034
1710,19.709815,2,6,9,18,23,-1036
1711,19.721362,2,6,9,14,30,-1032
1712,19.732925,2,6,9,12,25,-1039
1713,19.744467,1,7,9,12,24,-1039
1714,19.756014,2,5,9,15,26,-1038
1715,19.767669,2,6,9,16,28,-1030
1716,19.779386,2,6,9,15,29,-1030
1717,19.791039,3,5,10,12,24,-1037
1718,19.802721,3,6,9,14,26,-1028
1719,19.81436,3,6,9,15,28,-1032
1720,19.826007,2,6,9,13,24,-1032
1721,19.837653,3,6,9,10,24,-1036
1722,19.849334,2,6,10,14,20,-1040
1723,19.860986,2,6,10,10,27,-1034
1724,19.872633,3,7,9,13,27,-1034
1725,19.884292,3,6,9,15,28,-1037
1726,19.895956,2,6,9,17,21,-1038
1727,19.907624,2,6,9,15,28,-1037
1728,19.919321,2,6,9,11,26,-1034
1729,19.931001,2,6,9,14,26,-1031
1730,19.942656,2,6,9,17,26,-1035
1731,19.954368,1,6,9,15,23,-1034
1732,19.966038,2,6,10,14,23,-1038
1733,19.977597,2,6,9,15,29,-1033
1734,19.989153,3,6,8,11,27,-1034
1735,20.000703,2,6,9,15,27,-1029
1736,20.012272,2,5,9,13,26,-1031
1737,20.023942,2,6,9,14,24,-1034
1738,20.035553,2,7,9,11,24,-1025
1739,20.047355,2,6,9,13,26,-1034
1740,20.059131,2,7,8,19,26,-1034
1741,20.070716,2,6,10,12,23,-1031
1742,20.082311,2,6,9,13,22,-1034
1743,20.093892,2,6,9,12,26,-1036
1744,20.105441,1,6,10,16,28,-1028
1745,20.116992,2,6,9,15,25,-1034
1746,20.128552,2,6,9,13,25,-1039
1747,20.140097,3,6,9,13,27,-1035
1748,20.151654,3,7,10,13,23,-1031
1749,20.163227,2,6,9,14,27,-1036
1750,20.174858,2,6,9,14,28,-1034
1751,20.18654,2,6,9,14,29,-1034
1752,20.198226,3,6,9,15,27,-1045
1753,20.209884,2,5,10,12,24,-1041
1754,20.221552,2,6,8,19,21,-1034
1755,20.233211,2,6,9,10,22,-1034
1756,20.244865,2,6,8,14,24,-1030
1757,20.256524,2,6,9,15,27,-1031
1758,20.268232,1,6,9,11,27,-1033
1759,20.279928,2,5,10,15,29,-1037
1760,20.291548,2,5,10,15,29,-1034
1761,20.303109,2,6,10,15,31,-1030
1762,20.31468,2,6,9,17,22,-1037
1763,20.326233,1,6,9,14,21,-1035
1764,20.337808,2,6,9,14,27,-1034
1765,20.349353,2,6,9,9,23,-1036
1766,20.360903,2,6,8,15,25,-1034
1767,20.372466,3,7,9,13,29,-1034
1768,20.384103,1,7,9,14,28,-1031
1769,20.395759,2,7,9,14,27,-1036
1770,20.407421,2,6,9,15,24,-1036
1771,20.419111,3,6,8,15,25,-1033
1772,20.430774,2,5,10,15,25,-1028
1773,20.442471,2,6,9,13,30,-1030
1774,20.454129,3,6,9,9,28,-1032
1775,20.465817,3,6,9,10,27,-1030
1776,20.477487,2,6,9,18,26,-1034
1777,20.489136,3,7,9,15,26,-1033
1778,20.500697,2,6,9,13,22,-1031
1779,20.512248,2,6,10,18,24,-1033
1780,20.523797,2,6,10,11,25,-1035
1781,20.535345,3,6,9,16,24,-1032
1782,20.546916,2,6,10,13,27,-1035
1783,20.558469,2,6,9,18,28,-1035
1784,20.570042,2,5,9,18,30,-1034
1785,20.581614,2,6,9,13,25,-1029
1786,20.593247,3,6,10,17,25,-1026
1787,20.604927,3,6,9,14,25,-1029
1788,20.616591,2,7,10,15,24,-1035
1789,20.628276,2,5,9,11,28,-1034
1790,20.639954,2,6,9,12,27,-1030
1791,20.651614,2,7,9,12,29,-1031
1792,20.663294,2,7,9,15,22,-1034
1793,20.67499,2,7,9,10,27,-1033
1794,20.686661,2,7,10,13,27,-1030
1795,20.698333,2,7,10,13,24,-1030
1796,20.70994,2,6,9,15,23,-1034
1797,20.721489,3,6,9,18,20,-1033
1798,20.733044,2,6,9,15,27,-1035
1799,20.744591,2,7,9,16,25,-1033
1800,20.756138,3,6,9,17,25,-1036
1801,20.767728,2,6,8,19,28,-1032
1802,20.779298,3,6,9,12,27,-1033
1803,20.790862,2,6,10,12,25,-1032
1804,20.802478,2,6,10,16,23,-1034
1805,20.814137,2,6,9,13,26,-1031
1806,20.825822,2,5,9,12,26,-1043
1807,20.837473,2,7,9,17,26,-1027
1808,20.849128,2,6,9,15,26,-1031
1809,20.860784,2,6,9,17,29,-1031
1810,20.872457,2,6,9,13,24,-1035
1811,20.884147,3,6,9,16,28,-1028
1812,20.89593,2,6,8,14,28,-1035
1813,20.907515,2,6,9,11,21,-1031
1814,20.919075,2,6,9,15,26,-1035
1815,20.930664,2,6,9,14,26,-1041
1816,20.942235,2,6,9,13,28,-1036
1817,20.953813,3,6,10,15,28,-1035
1818,20.965424,2,5,9,14,28,-1037
1819,20.976984,2,6,10,12,26,-1035
1820,20.988554,2,6,10,17,29,-1031
1821,21.000116,2,6,10,12,28,-1036
1822,21.011813,3,6,9,16,29,-1040
1823,21.023522,3,6,9,16,26,-1039
1824,21.035236,2,7,9,15,23,-1034
1825,21.047065,2,7,10,14,26,-1032
1826,21.05874,2,7,10,15,24,-1030
1827,21.070423,2,7,10,13,25,-1028
1828,21.082097,2,7,10,18,24,-1033
1829,21.093754,2,5,9,17,30,-1032
1830,21.105402,2,7,9,14,31,-1039
1831,21.11706,2,6,9,13,26,-1034
1832,21.128718,3,6,9,15,24,-1030
1833,21.140371,2,6,9,19,29,-1037
1834,21.152013,2,6,9,12,26,-1028
1835,21.163667,2,6,9,14,28,-1036
1836,21.175365,2,6,8,11,28,-1030
1837,21.187019,2,6,9,11,29,-1034
1838,21.198685,2,7,9,12,26,-1030
1839,21.210372,2,6,9,14,25,-1037
1840,21.22202,2,6,9,15,29,-1037
1841,21.233671,2,7,9,16,27,-1038
1842,21.245342,3,7,9,15,29,-1032
1843,21.256995,3,6,9,15,26,-1035
1844,21.268679,3,6,9,15,27,-1035
1845,21.280355,2,6,9,15,21,-1031
1846,21.291999,2,6,8,11,23,-1037
1847,21.303661,2,6,9,14,25,-1036
1848,21.315355,3,7,9,14,29,-1031
1849,21.327017,3,6,10,13,28,-1031
1850,21.338691,3,5,9,15,25,-1032
1851,21.35035,2,6,9,15,28,-1028
1852,21.362004,3,6,9,12,28,-1036
1853,21.373665,3,6,8,17,27,-1035
1854,21.385333,3,7,9,12,24,-1036
1855,21.397006,3,7,9,17,28,-1037
1856,21.408673,2,6,9,14,29,-1029
1857,21.420356,2,5,10,18,23,-1036
1858,21.432011,2,6,9,18,24,-1039
1859,21.443678,2,7,9,17,22,-1034
1860,21.455371,2,7,9,16,23,-1032
1861,21.467053,2,6,9,15,28,-1030
1862,21.478736,2,7,9,15,25,-1038
1863,21.490391,2,6,8,17,26,-1029
1864,21.502083,3,6,9,13,21,-1026
1865,21.513733,3,6,9,14,26,-1029
1866,21.525394,2,6,8,14,26,-1032
1867,21.537089,1,6,10,17,26,-1030
1868,21.54867,2,6,10,14,27,-1031
1869,21.560243,2,7,9,9,22,-1037
1870,21.571801,2,6,9,12,28,-1031
1871,21.583353,2,6,9,15,27,-1036
1872,21.594921,2,6,10,14,27,-1036
1873,21.606468,2,6,9,15,27,-1034
1874,21.618041,2,7,9,17,24,-1031
1875,21.629601,3,7,9,14,27,-1027
1876,21.641249,2,6,9,15,29,-1028
1877,21.65293,2,6,9,18,27,-1029
1878,21.66459,3,6,9,14,24,-1032
1879,21.676244,1,6,9,17,28,-1031
1880,21.687899,3,7,8,13,27,-1035
1881,21.699549,2,6,9,12,24,-1033
1882,21.711214,2,6,9,13,29,-1040
1883,21.722864,3,7,9,9,27,-1031
1884,21.734531,2,6,9,14,25,-1039
1885,21.746213,2,6,9,14,31,-1036
1886,21.757898,2,6,9,13,28,-1030
1887,21.769564,2,6,9,13,26,-1034
1888,21.781225,2,6,9,13,22,-1026
1889,21.792883,2,6,9,13,28,-1028
1890,21.804537,2,6,9,14,27,-1031
1891,21.81621,3,7,9,13,24,-1041
1892,21.827861,2,5,10,16,27,-1031
1893,21.839543,3,6,9,16,23,-1029
1894,21.851278,2,6,9,14,24,-1031
1895,21.862949,2,6,9,13,27,-1030
1896,21.874607,2,6,9,11,24,-1036
1897,21.886256,2,6,9,13,28,-1027
1898,21.89791,2,5,9,12,28,-1038
1899,21.909585,2,7,9,11,24,-1038
1900,21.921232,2,6,9,16,28,-1034
1901,21.932883,2,6,9,15,25,-1031
1902,21.944567,2,5,10,14,25,-1030
1903,21.956231,3,6,10,12,27,-1030
1904,21.967796,1,6,9,11,31,-1043
1905,21.979387,1,6,9,16,26,-1029
1906,21.990947,2,6,9,16,29,-1030
1907,22.002551,2,6,9,14,28,-1038
1908,22.014063,2,6,9,14,23,-1043
1909,22.025618,2,6,8,17,26,-1033
1910,22.037162,2,6,9,14,28,-1032
1911,22.048738,2,7,9,15,27,-1036
1912,22.060391,2,7,8,13,25,-1036
1913,22.072236,2,7,10,14,27,-1033
1914,22.083896,2,6,9,12,26,-1030
1915,22.095571,2,7,10,15,25,-1035
1916,22.107244,2,5,9,16,21,-1037
1917,22.1189,2,6,10,15,22,-1030
1918,22.130604,2,7,10,21,28,-1028
1919,22.142304,2,7,10,20,27,-1038
1920,22.153983,2,7,9,12,25,-1033
1921,22.165645,3,6,9,13,26,-1031
1922,22.177291,2,6,9,19,27,-1026
1923,22.188949,2,7,9,15,27,-1029
1924,22.2006,2,6,9,17,27,-1035
1925,22.212239,2,6,9,14,24,-1031
1926,22.223885,3,7,9,17,25,-1034
1927,22.235555,2,7,10,15,23,-1030
1928,22.247257,2,6,9,16,27,-1035
1929,22.25895,2,6,9,12,24,-1032
1930,22.270605,2,6,9,16,23,-1037
1931,22.282254,3,6,9,15,25,-1032
1932,22.293902,3,5,9,14,25,-1031
1933,22.305568,3,7,9,16,27,-1032
1934,22.31722,3,7,8,18,26,-1039
1935,22.328874,3,6,9,12,28,-1034
1936,22.340513,2,7,9,17,26,-1030
1937,22.352161,2,6,9,13,31,-1028
1938,22.363862,2,5,9,11,25,-1026
1939,22.375505,2,7,9,14,28,-1034
1940,22.387159,2,6,9,8,27,-1039
1941,22.398854,3,7,10,18,24,-1030
1942,22.410503,2,6,8,13,22,-1033
1943,22.422157,2,7,10,16,25,-1038
1944,22.433831,2,6,9,14,27,-1038
1945,22.445476,3,8,9,16,27,-1033
1946,22.457125,2,7,9,13,29,-1033
1947,22.468803,2,6,9,17,27,-1038
1948,22.480457,3,6,10,17,26,-1034
1949,22.492112,2,6,9,17,28,-1029
1950,22.50376,2,6,9,14,27,-1036
1951,22.515448,2,6,9,15,25,-1032
1952,22.52712,2,6,9,19,27,-1031
1953,22.5388,1,5,9,16,27,-1032
1954,22.550483,2,6,9,16,23,-1038
1955,22.562138,2,6,10,14,26,-1033
1956,22.573814,2,6,9,17,27,-1036
1957,22.585404,2,5,8,13,27,-1036
1958,22.596947,2,7,9,16,27,-1039
1959,22.608486,3,7,9,14,28,-1035
1960,22.620034,2,6,9,15,27,-1031
1961,22.631574,2,7,10,13,28,-1024
1962,22.643148,2,6,9,16,28,-1031
1963,22.654707,3,6,9,12,24,-1035
1964,22.66629,3,6,9,15,30,-1026
1965,22.677831,2,5,10,16,26,-1036
1966,22.689458,1,6,9,14,27,-1030
1967,22.701113,2,6,9,14,24,-1035
1968,22.712756,2,7,9,15,22,-1030
1969,22.724405,3,6,9,16,25,-1039
1970,22.736073,2,6,9,15,27,-1032
1971,22.747739,2,6,10,13,25,-1034
1972,22.759386,2,6,9,10,26,-1033
1973,22.771064,1,6,9,17,28,-1037
1974,22.782744,2,7,8,13,25,-1032
1975,22.794444,3,6,9,13,26,-1034
1976,22.806045,2,6,9,13,23,-1031
1977,22.8176,2,6,9,13,24,-1036
1978,22.829152,3,7,9,15,26,-1027
1979,22.840702,3,7,9,14,26,-1034
1980,22.852271,2,6,9,14,25,-1035
1981,22.863813,1,6,9,14,23,-1027
1982,22.87536,1,6,9,15,25,-1028
1983,22.886949,3,6,9,13,25,-1040
1984,22.898611,2,6,9,16,26,-1034
1985,22.910293,2,6,9,15,25,-1028
1986,22.921978,2,7,9,12,26,-1032
1987,22.93362,2,6,10,15,22,-1032
1988,22.945271,3,7,8,13,28,-1036
1989,22.956955,2,7,9,13,26,-1036
1990,22.968601,2,6,10,13,22,-1037
1991,22.980252,2,5,9,14,26,-1029
1992,22.991918,2,5,10,12,27,-1035
1993,23.003504,2,6,10,15,27,-1035
1994,23.015036,2,6,8,18,25,-1038
1995,23.026594,3,6,9,14,29,-1043
1996,23.038172,2,5,9,13,25,-1039
1997,23.049722,2,6,10,13,28,-1034
1998,23.061265,3,6,9,9,25,-1038
1999,23.07281,1,6,9,14,25,-1038
